ax,ay,az,gx,gy,gz,timestamp_ms
-0.256,-0.906,0.803,25.36,-224.74,-176.43,1785099073140.018
-0.21,-0.902,0.766,28.41,-225.38,-179.42,1785099073140.359
-0.172,-0.926,0.719,35.65,-224.22,-182.84,1785099073140.736
-0.15,-0.913,0.687,44.62,-222.08,-186.86,1785099073141.074
-0.12,-0.893,0.706,54.96,-220.25,-189.37,1785099073141.386
-0.114,-0.883,0.699,67.42,-219.58,-191.5,1785099073141.749
-0.113,-0.834,0.675,79.78,-219.82,-192.21,1785099073142.071
-0.084,-0.765,0.604,91.62,-221.08,-191.66,1785099073142.377
-0.016,-0.677,0.493,99.28,-221.81,-191.08,1785099073142.687
0.068,-0.6,0.415,101.32,-221.23,-190.1,1785099073142.997
0.152,-0.576,0.39,102.42,-220.95,-188.79,1785099073143.304
0.194,-0.606,0.392,107.09,-221.32,-187.93,1785099073143.62
0.173,-0.593,0.346,114.17,-222.39,-187.26,1785099073143.932
0.172,-0.527,0.305,120.79,-223.09,-183.08,1785099073144.248
0.195,-0.485,0.266,128.51,-223.0,-176.85,1785099073144.553
0.227,-0.443,0.218,133.92,-222.51,-170.81,1785099073144.8599
0.271,-0.369,0.116,133.43,-221.84,-165.14,1785099073145.1663
0.34,-0.264,0.035,126.19,-219.73,-159.15,1785099073145.473
0.418,-0.233,0.007,119.14,-216.59,-153.81,1785099073145.7751
0.435,-0.247,-0.054,113.65,-213.66,-152.84,1785099073146.08
0.427,-0.204,-0.135,108.49,-210.21,-152.01,1785099073146.383
0.451,-0.16,-0.174,106.02,-205.3,-147.56,1785099073146.6858
0.471,-0.135,-0.175,105.17,-200.45,-143.1,1785099073146.9878
0.471,-0.13,-0.165,104.68,-196.94,-139.96,1785099073147.295
0.446,-0.119,-0.174,104.83,-193.61,-136.94,1785099073147.6062
0.437,-0.094,-0.186,105.59,-189.58,-132.05,1785099073147.912
0.453,-0.068,-0.206,105.96,-185.8,-126.74,1785099073148.185
0.487,-0.041,-0.236,103.85,-182.38,-122.14,1785099073148.4612
0.513,-0.039,-0.266,100.41,-178.75,-118.59,1785099073148.735
0.529,-0.028,-0.297,94.7,-175.24,-115.45,1785099073149.004
0.558,0.002,-0.368,87.5,-171.39,-111.85,1785099073149.27
0.587,0.042,-0.488,78.22,-165.99,-107.43,1785099073149.5737
0.623,0.115,-0.603,65.43,-158.18,-101.72,1785099073149.863
0.654,0.163,-0.746,54.72,-147.74,-95.95,1785099073150.1272
0.691,0.226,-0.907,44.28,-132.69,-91.43,1785099073150.3967
0.739,0.312,-1.019,31.34,-114.29,-87.16,1785099073150.671
0.788,0.387,-1.083,16.45,-95.37,-83.8,1785099073150.95
0.837,0.425,-1.054,0.89,-76.94,-83.93,1785099073151.2058
0.836,0.427,-0.967,-11.93,-60.67,-85.7,1785099073151.469
0.815,0.411,-0.905,-20.23,-45.2,-82.13,1785099073151.736
0.797,0.409,-0.889,-24.51,-28.6,-67.14,1785099073152.003
0.801,0.443,-0.881,-25.61,-10.83,-42.42,1785099073152.262
0.839,0.515,-0.846,-26.18,5.98,-18.34,1785099073152.5671
0.882,0.563,-0.774,-27.16,21.49,-2.47,1785099073152.8662
0.9,0.548,-0.684,-28.32,37.05,4.24,1785099073153.128
0.898,0.467,-0.571,-30.27,50.87,6.65,1785099073153.399
0.889,0.356,-0.459,-33.45,60.91,10.8,1785099073153.718
0.886,0.269,-0.341,-36.44,66.9,18.31,1785099073154.018
0.898,0.212,-0.242,-36.47,69.19,26.06,1785099073154.2861
0.916,0.172,-0.163,-32.75,69.4,31.71,1785099073154.5532
0.918,0.142,-0.119,-28.93,67.84,34.0,1785099073154.8218
0.913,0.131,-0.065,-27.71,65.13,35.07,1785099073155.083
0.904,0.096,0.01,-23.77,62.01,36.26,1785099073155.349
0.874,0.06,0.025,-14.13,58.99,36.71,1785099073155.6191
0.859,0.074,-0.008,-3.78,56.61,37.93,1785099073155.883
0.874,0.115,-0.034,3.69,54.9,40.8,1785099073156.12
0.889,0.126,-0.031,7.2,53.56,43.28,1785099073156.364
0.897,0.108,-0.033,8.09,52.19,44.31,1785099073156.6082
0.901,0.093,-0.008,8.0,49.71,45.35,1785099073156.853
0.896,0.067,0.025,9.83,45.53,45.53,1785099073157.0898
0.887,0.045,0.037,13.4,41.57,44.16,1785099073157.3398
0.883,0.046,0.024,16.24,38.97,42.42,1785099073157.581
0.893,0.068,0.009,16.39,37.08,41.9,1785099073157.818
0.901,0.071,0.007,14.71,36.04,42.05,1785099073158.0742
0.9,0.05,0.004,13.18,35.83,42.05,1785099073158.318
0.891,0.029,-0.01,12.7,36.26,42.76,1785099073158.56
0.896,0.025,-0.022,10.93,36.87,44.4,1785099073158.797
0.902,0.022,-0.011,7.9,37.26,45.44,1785099073159.038
0.891,0.017,0.015,5.19,37.69,45.56,1785099073159.2769
0.879,0.017,0.024,4.36,38.85,45.59,1785099073159.518
0.887,0.024,0.011,4.43,41.05,46.69,1785099073159.758
0.903,0.037,-0.003,3.14,42.57,47.15,1785099073160.0042
0.9,0.044,-0.004,0.34,44.13,45.87,1785099073160.2449
0.896,0.029,-0.01,-0.76,47.61,45.01,1785099073160.479
0.92,0.015,-0.016,-0.98,51.27,46.3,1785099073160.7207
0.881,0.029,-0.012,-0.85,52.95,49.53,1785099073160.959
0.839,0.058,0.035,-0.46,58.02,51.18,1785099073161.199
0.939,-0.006,0.059,5.13,64.21,57.83,1785099073161.439
0.95,-0.039,0.064,15.38,66.44,59.91,1785099073161.68
0.919,-0.026,0.068,22.64,66.23,61.8,1785099073161.917
0.926,-0.01,0.068,25.51,67.57,65.31,1785099073162.139
0.92,-0.007,0.096,25.12,70.19,66.13,1785099073162.3682
0.945,-0.042,0.129,24.08,73.89,65.49,1785099073162.596
0.957,-0.082,0.16,23.22,76.24,63.26,1785099073162.821
0.938,-0.089,0.175,23.19,74.25,61.83,1785099073163.041
0.941,-0.093,0.184,24.35,71.96,63.02,1785099073163.2659
0.931,-0.098,0.196,26.76,72.3,65.95,1785099073163.4949
0.928,-0.116,0.191,30.24,72.85,68.03,1785099073163.721
0.932,-0.145,0.21,32.44,72.6,70.1,1785099073163.954
0.941,-0.173,0.217,33.54,72.63,71.63,1785099073164.183
0.941,-0.186,0.232,32.69,72.94,71.78,1785099073164.416
0.954,-0.201,0.261,31.68,72.76,72.39,1785099073164.66
0.958,-0.218,0.29,30.46,71.96,73.76,1785099073164.9102
0.959,-0.236,0.327,27.74,71.11,75.93,1785099073165.165
0.956,-0.256,0.366,25.09,70.01,78.19,1785099073165.412
0.961,-0.276,0.393,23.22,68.48,79.9,1785099073165.637
0.984,-0.307,0.413,22.22,65.83,82.95,1785099073165.865
0.913,-0.327,0.426,21.85,62.11,88.93,1785099073166.096
0.933,-0.291,0.424,19.32,63.81,90.82,1785099073166.323
0.96,-0.279,0.454,8.33,61.53,92.47,1785099073166.558
0.975,-0.343,0.47,2.87,53.59,95.65,1785099073166.784
0.914,-0.389,0.466,2.84,49.56,100.13,1785099073167.0132
0.911,-0.366,0.459,2.84,49.71,103.64,1785099073167.237
0.912,-0.34,0.45,0.64,47.15,105.72,1785099073167.465
0.902,-0.358,0.443,-2.32,43.21,108.4,1785099073167.69
0.878,-0.393,0.43,-5.52,39.86,111.42,1785099073167.8982
0.884,-0.412,0.43,-8.36,36.65,113.74,1785099073168.114
0.9,-0.448,0.427,-8.82,32.56,116.0,1785099073168.332
0.904,-0.482,0.435,-8.09,27.68,118.23,1785099073168.547
0.904,-0.482,0.435,-5.34,23.13,119.21,1785099073168.769
0.904,-0.499,0.474,2.29,19.38,119.11,1785099073168.989
0.905,-0.523,0.519,13.92,14.56,117.86,1785099073169.2031
0.886,-0.54,0.543,25.73,9.19,115.79,1785099073169.4111
0.873,-0.542,0.57,36.29,2.99,113.56,1785099073169.6301
0.869,-0.561,0.612,36.29,2.99,113.56,1785099073169.848
0.855,-0.601,0.611,44.98,-4.18,111.15,1785099073170.082
0.836,-0.616,0.589,48.49,-11.32,106.85,1785099073170.298
0.814,-0.606,0.563,45.44,-17.64,100.47,1785099073170.517
0.791,-0.608,0.546,36.32,-22.55,94.42,1785099073170.7341
0.779,-0.624,0.537,23.62,-25.91,89.14,1785099073170.95
0.77,-0.65,0.499,8.67,-28.02,83.74,1785099073171.159
0.761,-0.662,0.469,-7.9,-28.57,79.44,1785099073171.371
0.757,-0.664,0.463,-23.53,-27.92,77.67,1785099073171.587
0.747,-0.667,0.478,-36.19,-27.19,77.39,1785099073171.797
0.722,-0.686,0.493,-46.17,-27.19,76.75,1785099073172.0122
0.684,-0.674,0.464,-56.4,-28.41,74.74,1785099073172.225
0.652,-0.653,0.422,-69.49,-29.91,72.88,1785099073172.437
0.647,-0.645,0.411,-84.26,-32.38,70.68,1785099073172.647
0.64,-0.656,0.377,-98.45,-35.19,67.2,1785099073172.862
0.616,-0.649,0.341,-113.28,-38.06,65.28,1785099073173.0781
0.607,-0.625,0.333,-124.24,-41.26,67.6,1785099073173.291
0.606,-0.615,0.296,-123.97,-43.34,71.14,1785099073173.508
0.604,-0.609,0.252,-116.09,-44.04,75.66,1785099073173.7239
0.606,-0.637,0.212,-103.73,-44.8,79.99,1785099073173.94
0.607,-0.701,0.141,-90.76,-45.32,81.58,1785099073174.151
0.577,-0.734,0.055,-84.96,-46.51,79.74,1785099073174.366
0.537,-0.716,-0.013,-88.56,-48.1,80.08,1785099073174.5867
0.52,-0.702,-0.077,-103.12,-50.84,82.37,1785099073174.8062
0.511,-0.651,-0.114,-128.7,-53.71,82.46,1785099073175.02
0.529,-0.661,-0.13,-156.22,-55.42,81.15,1785099073175.237
0.529,-0.737,-0.143,-184.7,-56.86,75.38,1785099073175.446
0.511,-0.812,-0.158,-213.14,-59.39,66.5,1785099073175.647
0.488,-0.854,-0.194,-234.87,-61.92,58.72,1785099073175.851
0.475,-0.855,-0.235,-245.8,-63.11,54.6,1785099073176.053
0.487,-0.865,-0.272,-245.03,-62.72,52.98,1785099073176.257
0.486,-0.857,-0.31,-237.34,-61.53,49.44,1785099073176.4578
0.491,-0.824,-0.327,-225.84,-59.66,46.33,1785099073176.6628
0.502,-0.79,-0.329,-208.69,-56.46,43.24,1785099073176.8682
0.534,-0.824,-0.329,-183.72,-51.97,40.38,1785099073177.074
0.553,-0.914,-0.338,-156.22,-48.59,34.79,1785099073177.276
0.542,-0.963,-0.324,-130.92,-47.27,29.36,1785099073177.485
0.533,-1.007,-0.329,-105.01,-48.65,28.44,1785099073177.691
0.524,-1.037,-0.385,-81.76,-50.33,29.97,1785099073177.8892
0.505,-1.024,-0.435,-65.8,-50.63,33.08,1785099073178.093
0.498,-1.005,-0.474,-55.21,-50.42,37.08,1785099073178.298
0.498,-0.994,-0.518,-48.95,-49.96,38.06,1785099073178.502
0.493,-0.977,-0.546,-47.43,-49.2,36.41,1785099073178.7
0.491,-0.966,-0.564,-48.95,-48.98,33.33,1785099073178.903
0.472,-0.921,-0.561,-54.35,-49.23,28.87,1785099073179.104
0.467,-0.885,-0.532,-58.66,-50.2,26.18,1785099073179.299
0.473,-0.915,-0.533,-57.37,-51.67,22.8,1785099073179.501
0.455,-0.931,-0.542,-54.35,-52.98,16.79,1785099073179.706
0.431,-0.914,-0.554,-49.13,-53.87,11.69,1785099073179.9092
0.424,-0.875,-0.589,-40.41,-53.68,8.88,1785099073180.106
0.428,-0.815,-0.619,-30.61,-51.85,6.71,1785099073180.305
0.437,-0.765,-0.629,-19.99,-49.29,4.15,1785099073180.538
0.446,-0.759,-0.62,-8.48,-45.93,0.85,1785099073180.7502
0.442,-0.769,-0.526,11.9,-40.35,-7.23,1785099073181.147
0.439,-0.768,-0.487,23.38,-38.73,-8.73,1785099073181.34
-1.018,-0.598,-0.578,-26.67,4.67,9.52,1785099073181.7688
-1.118,-0.628,-0.563,-13.7,7.9,10.68,1785099073181.959
-1.183,-0.658,-0.554,0.21,11.41,9.13,1785099073187.826
-1.232,-0.659,-0.526,14.4,16.66,6.68,1785099073193.487
-1.248,-0.667,-0.511,35.86,22.03,4.18,1785099073203.943
-1.245,-0.644,-0.525,65.03,28.17,-1.37,1785099073214.5942
-1.258,-0.585,-0.503,99.25,33.45,-7.78,1785099073227.7163
-1.246,-0.534,-0.526,135.99,37.05,-12.42,1785099073233.4368
-1.217,-0.496,-0.572,166.54,42.21,-16.21,1785099073244.2778
-1.215,-0.481,-0.618,186.38,47.0,-20.29,1785099073257.5947
-1.213,-0.464,-0.68,196.17,50.81,-21.67,1785099073263.4229
-1.185,-0.43,-0.738,199.99,54.84,-18.74,1785099073274.2441
-1.137,-0.382,-0.77,202.12,59.14,-11.35,1785099073287.524
-1.078,-0.323,-0.777,203.07,63.33,-0.43,1785099073293.246
-1.029,-0.259,-0.761,201.82,67.6,13.15,1785099073304.19
-0.987,-0.219,-0.715,198.22,71.08,29.51,1785099073317.449
-0.931,-0.238,-0.69,194.04,74.25,46.27,1785099073323.243
-0.881,-0.279,-0.633,189.67,77.91,62.5,1785099073334.241
-0.819,-0.312,-0.552,185.03,79.99,81.55,1785099073347.434
-0.723,-0.375,-0.509,182.74,81.82,102.45,1785099073353.2422
-0.634,-0.5,-0.492,185.13,85.51,121.37,1785099073364.408
-0.603,-0.64,-0.518,192.91,91.4,136.57,1785099073377.7402
-0.599,-0.836,-0.491,208.08,99.43,149.42,1785099073383.747
-0.593,-1.003,-0.563,225.56,106.63,156.35,1785099073394.872
-0.617,-1.079,-0.58,237.04,118.23,160.68,1785099073408.0962
-0.635,-1.107,-0.578,243.9,128.76,165.41,1785099073414.1418
-0.591,-1.127,-0.63,241.77,138.98,166.26,1785099073427.449
-0.511,-1.175,-0.608,228.74,150.61,157.75,1785099073433.881
-0.444,-1.292,-0.523,209.45,156.71,135.65,1785099073445.031
-0.414,-1.413,-0.475,182.2,156.01,102.21,1785099073458.142
-0.408,-1.502,-0.413,148.87,153.23,66.47,1785099073464.131
-0.427,-1.547,-0.309,118.47,147.19,31.04,1785099073477.476
-0.445,-1.619,-0.273,93.72,137.55,-5.77,1785099073483.655
-0.456,-1.729,-0.269,66.96,126.77,-45.29,1785099073494.407
-0.466,-1.787,-0.208,36.68,117.68,-83.07,1785099073507.648
-0.438,-1.792,-0.134,14.86,112.28,-113.62,1785099073513.72
-0.398,-1.786,-0.112,6.71,108.58,-141.03,1785099073524.4731
-0.35,-1.755,-0.118,3.14,104.4,-167.06,1785099073537.7012
-0.293,-1.72,-0.093,-1.89,100.1,-190.22,1785099073543.627
-0.256,-1.739,-0.064,-8.15,96.74,-212.41,1785099073554.374
-0.27,-1.747,-0.018,-16.14,95.03,-233.83,1785099073567.523
-0.291,-1.712,0.046,-20.42,93.51,-249.37,1785099073573.517
-0.285,-1.673,0.082,-17.12,90.27,-260.41,1785099073584.255
-0.273,-1.639,0.1,-10.04,84.11,-269.63,1785099073594.969
-0.24,-1.615,0.088,-2.38,77.06,-277.14,1785099073608.277
-0.209,-1.584,0.066,5.43,71.63,-283.67,1785099073614.1929
-0.184,-1.559,0.059,16.45,66.87,-288.19,1785099073624.8728
-0.161,-1.583,0.057,30.21,60.06,-292.55,1785099073638.0889
-0.162,-1.549,0.085,39.19,52.1,-298.23,1785099073643.95
-0.165,-1.49,0.132,48.13,43.76,-300.58,1785099073654.582
-0.172,-1.467,0.122,58.93,33.39,-302.1,1785099073667.97
-0.19,-1.412,0.107,66.07,24.54,-305.37,1785099073674.237
-0.2,-1.381,0.089,70.83,15.35,-309.52,1785099073684.758
-0.201,-1.294,0.095,69.7,8.51,-314.62,1785099073697.9512
-0.163,-1.249,0.152,71.87,4.15,-316.2,1785099073703.947
-0.132,-1.269,0.189,80.57,-0.89,-318.95,1785099073714.413
-0.157,-1.189,0.212,90.27,-6.47,-321.85,1785099073727.777
-0.137,-1.052,0.219,105.47,-12.09,-317.03,1785099073733.6252
-0.077,-0.941,0.202,124.15,-18.77,-310.83,1785099073744.493
-0.028,-0.853,0.166,137.27,-27.38,-307.35,1785099073757.7158
0.0,-0.772,0.179,141.54,-38.27,-303.23,1785099073763.712
0.003,-0.721,0.196,140.42,-50.94,-299.39,1785099073774.615
-0.001,-0.677,0.204,133.95,-64.12,-293.74,1785099073788.018
0.011,-0.629,0.195,126.74,-75.62,-285.56,1785099073793.892
0.043,-0.569,0.169,122.17,-84.41,-276.83,1785099073804.957
0.084,-0.542,0.148,121.74,-91.92,-268.17,1785099073818.2158
0.105,-0.539,0.145,124.42,-99.52,-260.48,1785099073824.174
0.105,-0.532,0.112,130.01,-107.76,-253.52,1785099073837.625
0.099,-0.501,0.058,136.91,-114.78,-242.71,1785099073843.576
0.121,-0.457,0.024,142.98,-121.25,-227.97,1785099073854.877
0.135,-0.436,0.035,146.89,-128.36,-215.86,1785099073868.142
0.111,-0.448,0.029,143.99,-136.66,-209.78,1785099073874.0952
0.079,-0.49,0.016,131.87,-144.11,-206.88,1785099073887.763
0.046,-0.47,-0.066,112.7,-148.35,-203.71,1785099073893.636
0.071,-0.391,-0.091,96.68,-147.77,-194.01,1785099073904.8728
0.123,-0.318,-0.118,90.58,-147.22,-181.4,1785099073918.062
0.173,-0.232,-0.171,90.09,-145.33,-171.54,1785099073924.052
0.173,-0.232,-0.171,92.68,-142.67,-164.56,1785099073937.492
0.214,-0.202,-0.162,92.62,-141.15,-162.79,1785099073943.466
0.227,-0.187,-0.201,87.5,-137.97,-161.44,1785099073954.487
0.246,-0.14,-0.214,82.67,-133.43,-157.44,1785099073967.724
0.282,-0.109,-0.233,82.67,-133.43,-157.44,1785099073973.7642
0.321,-0.081,-0.293,78.01,-127.17,-153.36,1785099073984.691
0.362,-0.054,-0.337,71.5,-120.49,-148.38,1785099073997.964
0.423,-0.019,-0.365,62.93,-114.57,-142.22,1785099074003.9922
0.48,0.044,-0.391,51.73,-110.84,-137.46,1785099074014.894
0.534,0.094,-0.438,37.17,-109.13,-134.07,1785099074028.159
0.562,0.13,-0.568,21.12,-107.12,-131.72,1785099074034.3418
0.58,0.198,-0.767,1.31,-102.24,-128.24,1785099074047.521
0.597,0.296,-0.954,-23.93,-94.15,-122.17,1785099074053.56
0.62,0.37,-1.1,-51.06,-79.17,-114.6,1785099074064.2712
0.67,0.427,-1.168,-76.66,-58.47,-107.06,1785099074075.0022
0.697,0.493,-1.268,-96.16,-37.02,-98.85,1785099074088.246
0.692,0.604,-1.34,-111.7,-14.07,-85.82,1785099074094.178
0.707,0.714,-1.326,-122.2,10.71,-67.2,1785099074104.94
0.739,0.785,-1.277,-128.33,34.79,-44.86,1785099074121.116
0.767,0.799,-1.187,-130.8,58.75,-21.82,1785099074123.768
0.75,0.766,-1.083,-131.35,80.87,0.79,1785099074134.502
0.709,0.72,-1.014,-132.36,101.72,22.03,1785099074148.0042
0.685,0.686,-0.937,-135.81,120.88,42.18,1785099074154.561
0.656,0.647,-0.883,-138.0,138.98,60.82,1785099074165.2212
0.596,0.61,-0.84,-137.06,156.32,77.49,1785099074178.2742
0.56,0.583,-0.735,-133.24,172.06,93.97,1785099074184.169
0.555,0.518,-0.634,-122.81,184.45,111.64,1785099074197.685
0.532,0.442,-0.535,-108.07,193.03,128.06,1785099074203.661
0.503,0.356,-0.456,-91.56,198.71,141.85,1785099074214.835
0.471,0.267,-0.403,-76.97,203.16,153.23,1785099074228.0588
0.44,0.189,-0.38,-68.12,207.1,163.12,1785099074234.138
0.417,0.127,-0.34,-66.59,211.28,170.93,1785099074247.453
0.402,0.046,-0.279,-70.35,215.19,175.88,1785099074253.409
0.425,-0.066,-0.229,-76.11,218.76,180.09,1785099074264.42
0.418,-0.141,-0.186,-82.64,219.12,186.32,1785099074277.651
0.383,-0.172,-0.137,-88.99,219.09,194.71,1785099074283.5771
0.359,-0.183,-0.098,-96.07,219.92,201.54,1785099074294.689
0.33,-0.191,-0.079,-104.37,220.28,205.79,1785099074307.889
0.305,-0.219,-0.058,-111.88,220.95,208.56,1785099074313.983
0.269,-0.257,-0.055,-117.04,221.59,210.46,1785099074327.507
0.22,-0.305,-0.058,-120.73,223.0,214.18,1785099074333.504
0.167,-0.333,-0.091,-125.68,226.42,220.95,1785099074344.738
0.107,-0.32,-0.101,-132.39,230.02,230.66,1785099074357.972
0.064,-0.323,-0.079,-136.75,232.18,241.8,1785099074363.9622
0.02,-0.347,-0.028,-140.84,235.15,251.05,1785099074377.5278
-0.042,-0.411,0.024,-141.91,239.05,259.87,1785099074383.55
-0.139,-0.467,0.105,-139.13,241.89,272.53,1785099074394.853
-0.256,-0.524,0.219,-131.38,242.07,288.43,1785099074408.0388
-0.388,-0.581,0.312,-119.17,241.1,302.93,1785099074414.0588
-0.51,-0.621,0.335,-105.17,240.52,316.08,1785099074427.4958
-0.618,-0.701,0.34,-92.81,242.13,329.17,1785099074433.771
-0.731,-0.851,0.329,-83.32,244.82,342.14,1785099074444.723
-0.845,-1.071,0.293,-74.65,249.37,353.07,1785099074457.939
-0.996,-1.332,0.241,-71.44,255.44,359.11,1785099074463.891
-1.208,-1.589,0.254,-80.23,261.45,359.02,1785099074474.616
-1.447,-1.85,0.377,-95.4,261.82,349.71,1785099074488.0051
-1.618,-2.009,0.496,-113.1,256.32,328.26,1785099074494.171
-1.587,-2.033,0.732,-118.02,248.45,298.07,1785099074507.696
-1.263,-2.102,0.919,-99.25,228.49,265.88,1785099074513.866
-0.85,-2.073,0.992,-70.8,197.91,228.46,1785099074524.96
-0.469,-2.028,1.038,-33.3,165.14,186.71,1785099074538.035
-0.16,-2.156,1.097,15.02,135.44,140.26,1785099074543.916
0.008,-2.352,1.164,62.35,103.82,87.95,1785099074554.868
0.036,-2.331,1.232,90.73,62.47,40.77,1785099074568.083
0.08,-2.156,1.181,90.88,21.39,3.51,1785099074574.0103
0.065,-2.005,1.12,63.94,-12.48,-36.53,1785099074584.513
-0.048,-1.87,1.089,18.59,-40.96,-75.38,1785099074597.729
-0.132,-1.837,1.07,-25.42,-61.53,-102.08,1785099074603.7068
-0.139,-1.901,1.07,-53.25,-74.89,-120.3,1785099074614.37
-0.123,-1.909,1.084,-61.59,-83.62,-135.96,1785099074627.6182
-0.116,-1.811,1.076,-54.54,-90.49,-147.47,1785099074633.7888
-0.097,-1.682,1.018,-39.86,-96.84,-153.51,1785099074644.337
-0.089,-1.595,0.939,-26.25,-102.05,-157.11,1785099074657.5679
-0.104,-1.574,0.925,-16.17,-107.55,-157.32,1785099074663.504
-0.108,-1.605,0.927,-2.04,-113.93,-155.58,1785099074674.467
-0.123,-1.614,0.908,18.49,-121.43,-156.29,1785099074687.784
-0.133,-1.613,0.862,43.79,-129.89,-159.79,1785099074693.6838
-0.153,-1.562,0.815,66.23,-138.46,-166.17,1785099074704.724
-0.149,-1.48,0.758,79.9,-148.01,-173.62,1785099074717.944
-0.117,-1.437,0.707,82.89,-157.78,-181.22,1785099074723.899
-0.105,-1.413,0.706,77.76,-167.52,-190.5,1785099074735.018
-0.122,-1.367,0.694,70.83,-178.72,-198.77,1785099074748.179
-0.143,-1.307,0.673,64.7,-189.89,-203.25,1785099074754.2788
-0.149,-1.266,0.651,61.1,-199.65,-206.15,1785099074767.5679
-0.17,-1.24,0.614,62.35,-207.68,-209.23,1785099074773.561
-0.19,-1.212,0.573,67.84,-215.25,-211.74,1785099074784.564
-0.201,-1.129,0.516,72.45,-222.08,-214.27,1785099074797.867
-0.184,-1.036,0.447,75.41,-226.11,-216.47,1785099074803.873
-0.163,-0.96,0.407,78.31,-228.34,-218.3,1785099074814.824
-0.139,-0.889,0.376,82.98,-230.51,-219.89,1785099074828.4531
-0.104,-0.814,0.336,91.07,-231.42,-219.61,1785099074834.1812
-0.042,-0.733,0.289,100.62,-231.94,-215.95,1785099074847.47
0.02,-0.689,0.259,111.39,-231.7,-211.13,1785099074853.625
0.059,-0.669,0.258,120.46,-232.43,-207.31,1785099074864.757
0.069,-0.632,0.181,128.33,-234.2,-205.05,1785099074877.9788
0.093,-0.483,0.082,129.8,-235.76,-199.01,1785099074883.984
0.174,-0.395,0.089,126.87,-236.4,-188.79,1785099074897.5098
0.192,-0.375,0.067,125.0,-237.22,-184.36,1785099074903.615
0.179,-0.347,0.046,125.77,-236.27,-181.07,1785099074914.777
0.172,-0.351,0.047,133.12,-235.39,-174.14,1785099074928.011
0.161,-0.307,-0.015,140.93,-236.15,-164.95,1785099074934.0212
0.19,-0.232,-0.072,143.38,-235.15,-152.71,1785099074947.5962
0.248,-0.199,-0.096,141.85,-233.5,-141.27,1785099074953.9998
0.29,-0.217,-0.151,138.25,-233.28,-136.17,1785099074964.9841
0.301,-0.236,-0.184,130.56,-233.04,-135.47,1785099074978.111
0.298,-0.247,-0.198,122.07,-232.25,-134.68,1785099074984.114
0.3,-0.231,-0.203,112.64,-231.82,-131.66,1785099074997.6802
0.326,-0.208,-0.237,101.05,-231.48,-128.18,1785099075003.78
0.358,-0.19,-0.278,85.91,-230.45,-127.78,1785099075014.864
0.398,-0.217,-0.344,70.41,-226.81,-128.91,1785099075028.09
0.433,-0.257,-0.463,56.64,-220.01,-130.83,1785099075034.1902
0.453,-0.248,-0.562,43.46,-211.34,-132.21,1785099075045.3748
0.478,-0.201,-0.638,34.0,-202.28,-131.57,1785099075058.2932
0.503,-0.108,-0.71,27.86,-193.0,-130.77,1785099075064.263
0.515,-0.009,-0.797,24.38,-183.23,-130.47,1785099075077.7112
0.543,0.065,-0.928,24.41,-173.47,-132.42,1785099075083.6348
0.616,0.159,-1.106,19.56,-162.48,-134.5,1785099075094.7102
0.668,0.283,-1.313,7.54,-148.26,-134.65,1785099075107.885
0.671,0.422,-1.578,-9.55,-129.64,-130.01,1785099075114.426
0.678,0.605,-1.825,-32.23,-104.5,-119.17,1785099075124.7603
0.72,0.791,-1.95,-53.62,-73.7,-102.27,1785099075137.974
0.713,0.887,-2.035,-57.59,-35.71,-83.8,1785099075143.875
0.745,0.93,-1.916,-45.23,8.27,-60.03,1785099075154.535
0.829,0.872,-1.728,-27.04,44.19,-32.44,1785099075167.676
0.824,0.831,-1.57,-25.21,71.41,-7.23,1785099075173.6099
0.802,0.814,-1.363,-47.15,99.06,16.63,1785099075184.011
0.809,0.729,-1.126,-82.49,122.71,37.29,1785099075194.8318
0.747,0.663,-0.928,-117.56,136.51,56.4,1785099075208.0
0.747,0.663,-0.928,-134.19,141.94,76.14,1785099075213.978
0.701,0.571,-0.752,-135.29,142.52,92.87,1785099075225.03
0.685,0.465,-0.64,-131.53,141.24,108.89,1785099075238.256
0.653,0.424,-0.594,-119.33,141.48,125.49,1785099075244.311
0.644,0.386,-0.559,-100.41,144.14,138.37,1785099075257.93
0.638,0.321,-0.554,-100.41,144.14,138.37,1785099075263.884
0.608,0.271,-0.568,-84.99,147.74,147.56,1785099075275.944
0.584,0.26,-0.566,-75.47,151.55,156.44,1785099075288.285
0.563,0.244,-0.515,-67.32,156.04,165.14,1785099075294.292
0.546,0.18,-0.456,-60.34,161.17,171.79,1785099075307.669
0.531,0.099,-0.393,-57.89,165.81,175.82,1785099075314.129
0.505,0.041,-0.323,-59.6,168.0,179.82,1785099075324.6401
0.476,-0.005,-0.258,-63.23,167.49,185.83,1785099075337.868
0.45,-0.064,-0.203,-67.17,166.72,191.93,1785099075343.807
0.432,-0.117,-0.156,-71.96,165.9,196.33,1785099075354.839
0.415,-0.157,-0.131,-75.84,165.38,200.23,1785099075368.131
0.39,-0.175,-0.1,-79.13,164.98,205.6,1785099075374.105
0.368,-0.186,-0.102,-81.33,164.95,211.62,1785099075387.5278
0.351,-0.207,-0.119,-83.19,166.26,217.51,1785099075393.471
0.34,-0.235,-0.125,-84.38,167.46,222.57,1785099075404.531
0.322,-0.266,-0.132,-86.49,168.68,226.97,1785099075417.708
0.288,-0.292,-0.12,-90.4,170.2,231.82,1785099075423.664
0.237,-0.327,-0.1,-93.3,172.83,237.59,1785099075434.772
0.169,-0.367,-0.082,-94.27,176.82,244.33,1785099075447.9502
0.108,-0.388,-0.044,-94.7,181.71,251.96,1785099075453.909
0.059,-0.42,0.013,-92.26,187.17,260.26,1785099075464.9192
0.0,-0.474,0.072,-85.97,191.44,267.83,1785099075478.2158
-0.051,-0.536,0.137,-76.57,195.17,273.69,1785099075484.142
-0.098,-0.606,0.182,-64.06,199.1,277.17,1785099075497.609
-0.127,-0.666,0.172,-51.0,203.5,280.1,1785099075503.958
-0.158,-0.73,0.099,-42.36,209.2,284.31,1785099075514.556
-0.219,-0.798,0.068,-44.34,217.54,291.63,1785099075527.862
-0.308,-0.948,0.148,-46.39,227.55,300.24,1785099075533.8308
-0.467,-1.223,0.298,-36.99,236.76,301.1,1785099075544.887
-0.682,-1.498,0.444,-19.47,243.42,291.15,1785099075558.144
-0.864,-1.67,0.569,-6.07,247.14,277.93,1785099075564.0352
-0.947,-1.707,0.588,-2.9,250.47,264.93,1785099075575.273
-0.93,-1.628,0.512,-5.31,255.41,250.4,1785099075588.181
-0.886,-1.549,0.439,-7.57,257.61,231.85,1785099075594.24
-0.87,-1.504,0.451,-9.52,251.66,210.33,1785099075605.018
-0.836,-1.505,0.571,-7.29,237.68,191.29,1785099075618.888
-0.721,-1.593,0.777,9.52,219.89,176.95,1785099075624.047
-0.537,-1.73,0.975,48.25,199.96,163.52,1785099075634.957
-0.353,-1.771,1.047,99.09,176.4,150.36,1785099075648.118
-0.196,-1.72,1.023,142.67,150.94,138.95,1785099075654.1592
-0.085,-1.682,0.935,154.85,123.78,121.8,1785099075667.608
-0.057,-1.595,0.845,126.35,98.57,95.34,1785099075673.7512
-0.056,-1.499,0.809,69.4,75.78,68.39,1785099075684.407
-0.055,-1.455,0.801,2.62,53.47,44.65,1785099075694.937
-0.026,-1.453,0.848,-60.82,31.56,25.21,1785099075708.212
0.026,-1.507,0.918,-107.36,10.86,7.72,1785099075714.404
0.049,-1.636,0.977,-130.41,-7.39,-11.99,1785099075724.7568
0.018,-1.731,0.978,-135.07,-23.38,-32.17,1785099075737.934
-0.028,-1.735,0.95,-126.93,-36.44,-44.1,1785099075743.474
-0.058,-1.746,0.906,-107.03,-46.6,-49.81,1785099075754.4092
-0.106,-1.751,0.891,-83.25,-56.49,-58.2,1785099075767.854
-0.07,-1.792,0.882,-57.77,-65.55,-71.14,1785099075773.8108
-0.048,-1.794,0.832,-30.4,-72.39,-90.37,1785099075784.342
-0.106,-1.714,0.823,-3.88,-79.1,-106.42,1785099075794.988
-0.151,-1.613,0.803,15.47,-89.72,-116.21,1785099075808.2659
-0.133,-1.589,0.723,22.03,-102.27,-128.21,1785099075814.2058
-0.109,-1.608,0.678,18.49,-112.98,-144.69,1785099075827.5608
-0.127,-1.641,0.657,15.56,-122.14,-160.83,1785099075833.7002
-0.173,-1.642,0.626,18.01,-130.28,-172.89,1785099075844.558
-0.198,-1.595,0.594,26.61,-137.09,-179.91,1785099075857.8079
-0.2,-1.518,0.555,37.48,-143.1,-184.91,1785099075863.7388
-0.181,-1.447,0.53,45.87,-148.29,-189.86,1785099075876.147
-0.17,-1.405,0.518,50.6,-153.63,-195.59,1785099075888.111
-0.17,-1.373,0.511,52.71,-159.83,-203.74,1785099075895.0952
-0.161,-1.363,0.481,55.18,-164.77,-213.32,1785099075905.073
-0.154,-1.311,0.427,55.42,-167.64,-222.72,1785099075918.302
-0.113,-1.216,0.435,53.22,-168.92,-228.52,1785099075924.2292
-0.049,-1.195,0.469,52.95,-169.26,-232.06,1785099075937.7012
-0.03,-1.165,0.49,53.9,-170.29,-236.95,1785099075943.63
-0.035,-1.075,0.5,57.65,-172.28,-238.5,1785099075954.6602
-0.025,-0.964,0.484,63.84,-175.05,-236.24,1785099075967.896
-0.001,-0.856,0.477,68.97,-178.62,-234.81,1785099075973.8892
0.051,-0.848,0.467,75.11,-182.44,-235.45,1785099075984.8872
0.05,-0.804,0.373,78.74,-187.05,-239.27,1785099075998.107
0.095,-0.671,0.271,80.51,-189.0,-237.25,1785099076004.1963
0.196,-0.554,0.221,82.89,-188.42,-230.17,1785099076017.528
0.277,-0.464,0.185,84.99,-187.84,-225.07,1785099076023.49
0.307,-0.411,0.166,86.21,-188.39,-221.72,1785099076034.515
0.299,-0.373,0.189,87.89,-189.86,-217.17,1785099076047.731
0.283,-0.368,0.242,94.15,-192.05,-210.46,1785099076053.7422
0.261,-0.414,0.282,108.37,-194.4,-203.96,1785099076064.847
0.211,-0.433,0.22,127.96,-196.81,-197.91,1785099076078.034
0.201,-0.333,0.099,142.16,-199.5,-187.17,1785099076084.086
0.283,-0.213,-0.031,145.94,-201.51,-172.34,1785099076097.649
0.4,-0.128,-0.12,135.65,-202.49,-161.02,1785099076103.663
0.493,-0.11,-0.174,115.76,-202.67,-155.58,1785099076114.892
0.522,-0.129,-0.19,92.78,-201.3,-154.52,1785099076128.158
0.5,-0.17,-0.18,73.52,-199.22,-154.82,1785099076134.082
0.458,-0.194,-0.181,62.93,-196.97,-154.85,1785099076147.5042
0.428,-0.179,-0.193,59.18,-193.76,-152.32,1785099076153.7158
0.425,-0.142,-0.205,58.47,-190.25,-148.26,1785099076164.511
0.43,-0.103,-0.202,57.95,-186.83,-144.47,1785099076177.79
0.427,-0.073,-0.191,56.79,-184.36,-141.73,1785099076183.738
0.432,-0.043,-0.181,56.4,-182.65,-140.69,1785099076194.7642
0.451,-0.012,-0.184,59.33,-181.52,-140.48,1785099076207.999
0.487,-0.004,-0.228,64.67,-181.04,-140.02,1785099076213.94
0.523,-0.0,-0.281,67.26,-179.72,-140.11,1785099076224.964
0.546,0.006,-0.345,65.86,-178.08,-139.74,1785099076238.21
0.567,0.012,-0.419,61.86,-176.31,-138.04,1785099076244.185
0.568,0.036,-0.48,56.52,-174.57,-135.84,1785099076257.613
0.556,0.078,-0.566,51.85,-172.37,-133.15,1785099076263.5952
0.556,0.129,-0.707,49.38,-167.18,-129.37,1785099076274.601
0.569,0.193,-0.889,47.61,-157.75,-125.46,1785099076287.861
0.604,0.283,-1.132,40.83,-145.12,-122.14,1785099076293.783
0.634,0.438,-1.431,23.77,-129.98,-118.02,1785099076304.862
0.633,0.652,-1.818,-3.3,-109.38,-109.56,1785099076318.0598
0.605,0.955,-2.137,-39.58,-79.74,-92.68,1785099076323.979
0.618,1.188,-2.045,-65.4,-41.17,-67.6,1785099076334.6099
0.671,1.04,-1.802,-53.56,0.31,-44.37,1785099076347.8389
0.672,0.841,-1.583,-26.61,42.3,-27.8,1785099076353.885
0.657,0.777,-1.354,-14.37,79.35,-8.03,1785099076364.1118
0.671,0.73,-1.136,-32.59,106.02,14.5,1785099076374.858
0.688,0.664,-0.921,-72.94,122.62,35.1,1785099076388.105
0.694,0.622,-0.736,-112.61,129.67,56.43,1785099076394.1948
0.697,0.581,-0.61,-134.1,130.68,78.98,1785099076405.169
0.668,0.538,-0.543,-136.3,129.58,98.82,1785099076418.242
0.63,0.505,-0.534,-129.76,129.95,113.8,1785099076424.265
0.606,0.478,-0.53,-121.25,132.94,124.76,1785099076437.7952
0.596,0.44,-0.508,-111.18,136.72,134.25,1785099076443.748
0.588,0.375,-0.498,-99.92,141.18,142.61,1785099076455.007
0.571,0.326,-0.476,-90.73,146.24,149.14,1785099076468.1548
0.566,0.274,-0.444,-83.5,150.79,156.59,1785099076473.871
0.556,0.205,-0.417,-76.63,155.13,163.46,1785099076487.7551
0.527,0.146,-0.405,-71.69,159.43,168.25,1785099076493.723
0.527,0.146,-0.405,-70.07,163.55,173.53,1785099076504.937
0.503,0.127,-0.364,-68.03,166.75,181.31,1785099076518.2139
0.507,0.103,-0.282,-63.81,168.28,188.27,1785099076523.816
0.501,0.051,-0.207,-60.18,168.46,193.37,1785099076534.9172
0.484,0.001,-0.153,-56.22,168.89,197.42,1785099076547.9731
0.463,-0.059,-0.121,-56.22,168.89,197.42,1785099076554.307
0.441,-0.109,-0.106,-53.77,169.56,200.72,1785099076565.124
0.424,-0.139,-0.096,-53.87,171.21,204.02,1785099076578.2458
0.419,-0.165,-0.088,-55.24,173.83,207.92,1785099076584.1868
0.431,-0.184,-0.078,-57.31,176.95,212.16,1785099076597.6309
0.428,-0.204,-0.072,-59.48,179.6,215.74,1785099076603.706
0.399,-0.216,-0.07,-62.5,182.38,219.15,1785099076614.6062
0.367,-0.228,-0.057,-64.91,185.46,223.58,1785099076627.875
0.322,-0.246,-0.035,-64.97,188.15,229.83,1785099076633.9011
0.269,-0.255,-0.018,-63.51,191.32,237.53,1785099076644.844
0.23,-0.259,0.004,-61.71,195.5,246.41,1785099076658.117
0.203,-0.272,0.053,-59.45,199.44,255.62,1785099076664.0679
0.157,-0.327,0.151,-53.38,203.04,263.74,1785099076677.534
0.089,-0.447,0.243,-41.57,206.27,268.93,1785099076683.472
0.032,-0.548,0.259,-28.57,208.99,270.24,1785099076694.525
-0.001,-0.577,0.246,-18.52,213.32,272.07,1785099076707.7397
-0.002,-0.589,0.24,-12.85,217.75,277.78,1785099076713.7122
-0.006,-0.687,0.271,-10.8,221.2,283.85,1785099076724.721
-0.052,-0.87,0.307,-9.31,224.86,288.34,1785099076737.969
-0.146,-1.044,0.404,-5.1,229.99,292.09,1785099076743.8662
-0.255,-1.207,0.536,4.76,235.57,295.3,1785099076754.684
-0.395,-1.33,0.65,17.0,243.05,294.6,1785099076767.942
-0.568,-1.387,0.749,27.19,246.89,285.9,1785099076773.923
-0.688,-1.421,0.804,27.89,247.02,273.66,1785099076784.9321
-0.768,-1.383,0.712,14.56,247.08,258.25,1785099076798.1912
-0.805,-1.259,0.583,-15.5,246.35,245.34,1785099076804.2332
-0.811,-1.233,0.544,-53.22,240.03,233.86,1785099076817.751
-0.875,-1.316,0.55,-87.98,229.93,217.11,1785099076823.6958
-0.993,-1.434,0.612,-113.53,219.24,201.09,1785099076834.745
-1.071,-1.506,0.734,-123.63,203.83,192.72,1785099076847.8853
-0.977,-1.563,0.854,-113.13,184.48,188.79,1785099076854.046
-0.773,-1.632,0.911,-87.25,162.6,178.87,1785099076865.032
-0.589,-1.684,0.92,-55.42,139.99,161.23,1785099076878.277
-0.504,-1.679,0.889,-27.47,118.5,141.33,1785099076884.402
-0.447,-1.606,0.883,-10.41,99.37,128.27,1785099076897.685
-0.336,-1.557,0.908,0.95,82.52,119.66,1785099076903.683
-0.226,-1.507,0.891,9.49,63.54,103.85,1785099076914.2021
-0.161,-1.436,0.812,12.88,41.54,77.39,1785099076925.067
-0.148,-1.425,0.711,8.24,19.9,46.14,1785099076938.14
-0.182,-1.459,0.617,-5.19,2.59,15.9,1785099076944.0068
-0.218,-1.536,0.644,-21.49,-10.47,-9.34,1785099076954.2341
-0.237,-1.645,0.765,-33.51,-22.49,-31.65,1785099076964.959
-0.237,-1.691,0.884,-39.49,-36.5,-51.24,1785099076978.115
-0.223,-1.689,0.939,-36.99,-50.17,-66.81,1785099076984.032
-0.227,-1.66,0.91,-28.35,-62.47,-82.0,1785099076994.5469
-0.254,-1.623,0.857,-19.62,-74.1,-95.1,1785099077007.854
-0.281,-1.655,0.834,-9.43,-83.1,-101.2,1785099077013.8591
-0.296,-1.715,0.821,6.1,-89.57,-103.76,1785099077024.291
-0.315,-1.668,0.786,25.76,-97.72,-109.81,1785099077035.0598
-0.306,-1.61,0.719,46.45,-105.66,-118.05,1785099077048.272
-0.3,-1.563,0.681,60.79,-112.92,-129.73,1785099077054.38
-0.308,-1.528,0.673,68.24,-120.27,-142.03,1785099077067.7131
-0.319,-1.508,0.706,72.18,-127.87,-152.68,1785099077074.952
-0.331,-1.515,0.725,78.1,-135.9,-162.36,1785099077084.83
-0.359,-1.494,0.743,85.3,-144.02,-170.54,1785099077097.9941
-0.373,-1.469,0.75,92.99,-152.38,-175.18,1785099077103.9172
-0.377,-1.426,0.73,100.41,-160.44,-178.08,1785099077114.999
-0.363,-1.365,0.715,105.41,-167.7,-180.18,1785099077128.2407
-0.336,-1.31,0.725,106.6,-175.82,-182.84,1785099077134.2512
-0.311,-1.285,0.751,106.05,-185.43,-187.72,1785099077147.8113
-0.324,-1.277,0.76,107.24,-194.89,-194.83,1785099077153.96
-0.35,-1.233,0.76,108.86,-203.77,-200.51,1785099077165.3298
-0.35,-1.182,0.729,110.78,-212.26,-203.56,1785099077178.294
-0.309,-1.101,0.655,110.26,-219.34,-206.18,1785099077184.275
-0.226,-1.003,0.594,103.34,-225.04,-207.98,1785099077197.8503
-0.133,-0.937,0.542,90.21,-229.65,-209.72,1785099077203.796
-0.062,-0.875,0.504,74.22,-232.25,-211.04,1785099077214.9019
-0.012,-0.793,0.459,60.52,-233.22,-210.46,1785099077228.1658
0.055,-0.712,0.454,51.7,-232.61,-207.34,1785099077234.339
0.117,-0.696,0.488,49.93,-231.91,-205.11,1785099077247.6008
0.121,-0.674,0.496,55.27,-232.43,-204.72,1785099077253.5159
0.11,-0.63,0.464,68.45,-233.04,-200.6,1785099077264.571
0.109,-0.544,0.404,84.32,-233.8,-193.03,1785099077277.854
0.146,-0.444,0.33,95.31,-234.17,-184.24,1785099077283.78
0.201,-0.365,0.258,97.14,-233.68,-177.1,1785099077294.822
0.242,-0.313,0.143,88.75,-233.65,-171.94,1785099077308.0
0.296,-0.244,0.081,71.5,-232.98,-167.12,1785099077314.1438
0.356,-0.24,0.112,56.0,-231.15,-162.85,1785099077325.114
0.354,-0.302,0.113,47.76,-230.38,-162.69,1785099077338.2302
0.314,-0.282,0.051,42.79,-229.71,-163.55,1785099077344.284
0.34,-0.205,0.018,41.51,-226.08,-159.34,1785099077357.6519
0.392,-0.164,-0.009,43.4,-221.81,-153.87,1785099077363.6018
0.427,-0.129,-0.043,42.57,-217.87,-150.79,1785099077374.665
0.458,-0.118,-0.071,41.47,-213.05,-148.81,1785099077387.907
0.461,-0.121,-0.094,41.2,-209.57,-148.17,1785099077394.063
0.445,-0.108,-0.076,41.08,-207.71,-148.2,1785099077405.045
0.431,-0.116,-0.06,45.99,-205.57,-147.01,1785099077418.903
0.403,-0.123,-0.061,55.27,-203.16,-145.24,1785099077424.115
0.377,-0.104,-0.083,65.58,-201.3,-141.88,1785099077437.461
0.376,-0.06,-0.107,74.28,-200.29,-136.48,1785099077443.5588
0.402,-0.016,-0.137,80.75,-200.14,-132.57,1785099077454.519
0.458,0.016,-0.175,84.02,-198.95,-130.62,1785099077467.7498
0.492,0.029,-0.227,82.58,-198.68,-130.38,1785099077473.559
0.511,0.039,-0.286,77.94,-198.74,-130.99,1785099077484.9658
0.533,0.056,-0.346,70.68,-198.64,-130.1,1785099077498.019
0.539,0.057,-0.453,63.69,-197.21,-129.4,1785099077504.132
0.53,0.071,-0.595,55.6,-193.18,-128.39,1785099077515.001
0.522,0.125,-0.78,46.82,-185.25,-126.22,1785099077528.239
0.533,0.207,-1.036,37.63,-172.22,-122.2,1785099077534.1802
0.563,0.336,-1.39,22.37,-155.92,-116.82,1785099077547.611
0.571,0.565,-1.929,-6.04,-134.53,-110.45,1785099077553.8071
0.55,0.926,-2.418,-51.64,-102.66,-96.01,1785099077564.435
0.595,1.124,-2.414,-88.9,-53.07,-75.93,1785099077577.7002
0.699,1.003,-2.089,-88.17,2.2,-60.21,1785099077583.67
0.673,0.988,-1.789,-70.53,51.94,-37.87,1785099077594.1848
0.733,0.984,-1.383,-70.68,94.7,-0.09,1785099077604.734
0.75,0.826,-0.95,-92.26,120.21,27.59,1785099077617.8647
0.648,0.611,-0.688,-104.65,136.05,42.97,1785099077623.822
0.673,0.489,-0.452,-106.97,141.91,61.34,1785099077634.775
0.731,0.484,-0.297,-105.5,136.36,84.9,1785099077647.9858
0.716,0.475,-0.275,-93.33,130.34,104.46,1785099077654.033
0.715,0.448,-0.296,-75.38,127.45,115.97,1785099077664.9739
0.727,0.388,-0.331,-59.36,127.05,122.14,1785099077678.2458
0.736,0.315,-0.384,-49.35,127.96,124.91,1785099077684.278
0.741,0.254,-0.419,-45.23,129.58,125.95,1785099077697.6729
0.726,0.209,-0.448,-43.92,132.15,127.29,1785099077703.704
0.72,0.188,-0.446,-45.05,134.25,130.83,1785099077714.585
0.717,0.163,-0.413,-48.49,135.65,135.01,1785099077727.875
0.703,0.138,-0.383,-54.29,137.49,138.49,1785099077733.8
0.686,0.119,-0.315,-62.5,138.77,142.83,1785099077744.8362
0.679,0.081,-0.231,-71.05,138.74,147.47,1785099077758.106
0.684,0.038,-0.193,-78.89,139.38,150.85,1785099077764.0261
0.686,-0.01,-0.183,-85.21,141.45,153.39,1785099077775.056
0.671,-0.059,-0.17,-88.29,143.22,156.59,1785099077788.3352
0.671,-0.059,-0.17,-87.04,144.63,162.18,1785099077794.298
0.652,-0.097,-0.144,-80.75,146.37,169.44,1785099077807.71
0.641,-0.126,-0.132,-72.27,148.5,175.66,1785099077813.66
0.623,-0.139,-0.139,-64.24,152.2,180.03,1785099077824.711
0.592,-0.15,-0.149,-64.24,152.2,180.03,1785099077838.03
0.562,-0.179,-0.144,-57.99,157.57,183.23,1785099077843.961
0.537,-0.209,-0.145,-52.86,164.1,184.67,1785099077854.849
0.507,-0.226,-0.129,-50.57,170.72,185.37,1785099077868.2073
0.468,-0.241,-0.112,-51.24,176.95,187.14,1785099077874.441
0.438,-0.256,-0.096,-53.83,182.62,190.25,1785099077887.641
0.406,-0.274,-0.069,-56.86,188.02,193.91,1785099077893.5361
0.363,-0.285,-0.04,-59.36,193.06,197.64,1785099077904.569
0.321,-0.284,-0.012,-61.71,198.0,202.31,1785099077917.8691
0.291,-0.292,0.003,-64.97,203.68,207.28,1785099077923.762
0.317,-0.339,0.022,-69.7,208.69,214.67,1785099077934.895
0.158,-0.368,0.045,-71.17,211.86,224.34,1785099077948.457
0.145,-0.391,0.099,-68.39,221.2,228.16,1785099077954.3538
0.091,-0.415,0.157,-68.79,224.49,230.2,1785099077965.107
-0.02,-0.459,0.22,-70.8,227.33,236.61,1785099077978.302
-0.069,-0.556,0.286,-66.93,230.96,248.51,1785099077984.24
-0.107,-0.61,0.318,-53.93,236.85,256.94,1785099077997.636
-0.192,-0.641,0.291,-41.26,240.82,263.13,1785099078003.741
-0.244,-0.72,0.31,-39.19,245.12,274.64,1785099078014.651
-0.317,-0.87,0.391,-41.63,251.26,284.31,1785099078027.8918
-0.464,-1.039,0.481,-42.36,254.22,286.42,1785099078034.081
-0.656,-1.174,0.57,-44.13,253.12,281.44,1785099078045.0571
-0.824,-1.297,0.647,-49.47,252.39,273.29,1785099078058.1602
-0.946,-1.393,0.739,-54.11,252.39,262.25,1785099078064.1128
-0.972,-1.535,0.768,-47.43,249.61,247.23,1785099078077.534
-1.002,-1.605,0.677,-37.9,248.36,228.71,1785099078083.4858
-1.054,-1.481,0.616,-30.67,245.12,219.95,1785099078094.5051
-1.057,-1.358,0.582,-12.42,235.66,218.7,1785099078107.8247
