ax,ay,az,gx,gy,gz,timestamp_ms
-0.223,-1.691,0.391,62.29,-96.41,-161.66,1785098928432.53
-0.241,-1.596,0.392,78.55,-103.18,-171.42,1785098928432.8718
-0.272,-1.548,0.422,95.65,-110.17,-184.12,1785098928433.1882
-0.294,-1.498,0.461,112.4,-119.69,-198.03,1785098928433.482
-0.293,-1.439,0.498,128.39,-130.53,-209.33,1785098928433.784
-0.282,-1.375,0.528,146.89,-142.0,-216.62,1785098928434.054
-0.284,-1.335,0.533,169.59,-153.69,-221.47,1785098928434.326
-0.31,-1.259,0.496,190.4,-165.75,-225.04,1785098928434.5989
-0.281,-1.203,0.415,205.6,-175.76,-221.32,1785098928434.87
-0.213,-1.123,0.378,209.23,-183.97,-213.84,1785098928435.137
-0.153,-1.06,0.357,205.33,-191.38,-208.41,1785098928435.436
-0.122,-1.013,0.334,195.38,-197.33,-205.79,1785098928435.7231
-0.077,-0.946,0.287,180.46,-201.97,-204.9,1785098928436.013
-0.026,-0.839,0.243,161.69,-205.02,-203.68,1785098928436.291
0.043,-0.714,0.225,141.12,-206.82,-198.86,1785098928436.584
0.112,-0.652,0.253,124.91,-207.22,-194.07,1785098928436.888
0.118,-0.645,0.272,119.45,-206.98,-191.02,1785098928437.1897
0.114,-0.622,0.281,118.59,-206.98,-185.09,1785098928437.46
0.136,-0.579,0.241,118.11,-207.28,-177.53,1785098928437.736
0.176,-0.488,0.164,114.63,-206.27,-170.14,1785098928438.011
0.24,-0.41,0.087,106.81,-203.71,-162.97,1785098928438.3308
0.299,-0.373,0.037,93.17,-201.09,-159.64,1785098928438.621
0.336,-0.367,-0.006,76.51,-197.97,-160.13,1785098928438.914
0.357,-0.349,-0.029,59.57,-193.64,-161.02,1785098928439.1812
0.376,-0.327,-0.026,45.99,-188.6,-161.23,1785098928439.465
0.381,-0.304,-0.027,38.27,-182.99,-161.6,1785098928439.7322
0.388,-0.257,-0.03,34.03,-176.67,-161.53,1785098928439.986
0.414,-0.206,-0.037,32.59,-170.57,-159.49,1785098928440.248
0.452,-0.161,-0.05,34.67,-164.59,-156.32,1785098928440.496
0.48,-0.123,-0.066,39.0,-159.09,-153.72,1785098928440.7417
0.506,-0.091,-0.083,44.28,-155.16,-151.13,1785098928441.0088
0.528,-0.061,-0.077,50.87,-151.1,-148.72,1785098928441.283
0.542,-0.034,-0.073,60.73,-146.79,-145.48,1785098928441.56
0.559,-0.003,-0.081,71.84,-142.49,-140.35,1785098928441.8271
0.585,0.03,-0.094,79.99,-139.04,-134.37,1785098928442.0962
0.607,0.054,-0.117,83.44,-136.81,-127.9,1785098928442.352
0.636,0.079,-0.128,83.01,-134.22,-121.37,1785098928442.5972
0.68,0.102,-0.147,81.18,-131.32,-114.35,1785098928442.857
0.714,0.116,-0.168,78.34,-129.43,-107.82,1785098928443.124
0.714,0.116,-0.168,75.44,-128.76,-101.02,1785098928443.378
0.725,0.142,-0.197,72.42,-127.9,-93.54,1785098928443.6272
0.75,0.167,-0.258,68.42,-126.38,-87.1,1785098928443.9
0.793,0.168,-0.32,62.23,-124.76,-82.46,1785098928444.15
0.824,0.165,-0.381,53.29,-122.87,-77.85,1785098928444.3982
0.848,0.167,-0.444,53.29,-122.87,-77.85,1785098928444.6367
0.867,0.175,-0.497,40.77,-120.3,-73.49,1785098928444.8828
0.886,0.197,-0.528,26.06,-117.16,-70.16,1785098928445.128
0.909,0.217,-0.561,12.54,-112.55,-66.9,1785098928445.3518
0.927,0.241,-0.597,-0.15,-106.85,-64.24,1785098928445.5781
0.954,0.28,-0.614,-12.39,-101.26,-62.17,1785098928445.811
0.971,0.303,-0.623,-21.58,-95.0,-60.58,1785098928446.042
0.977,0.313,-0.641,-25.67,-87.74,-58.66,1785098928446.269
0.97,0.32,-0.659,-25.03,-80.02,-55.39,1785098928446.5
0.962,0.33,-0.687,-20.75,-72.39,-50.9,1785098928446.732
0.968,0.333,-0.72,-14.28,-63.39,-45.26,1785098928446.964
0.969,0.337,-0.742,-9.16,-54.29,-39.16,1785098928447.1892
0.959,0.34,-0.743,-6.56,-45.41,-33.36,1785098928447.417
0.949,0.335,-0.755,-3.91,-35.68,-27.65,1785098928447.645
0.932,0.329,-0.765,-2.47,-26.12,-21.67,1785098928447.867
0.924,0.317,-0.771,-3.42,-17.18,-15.93,1785098928448.0908
0.916,0.316,-0.757,-6.29,-8.39,-10.25,1785098928448.317
0.902,0.319,-0.737,-8.73,0.31,-4.43,1785098928448.538
0.887,0.312,-0.718,-9.55,9.4,1.43,1785098928448.766
0.877,0.295,-0.692,-10.56,18.07,7.32,1785098928448.995
0.874,0.271,-0.654,-13.55,26.06,12.39,1785098928449.2249
0.861,0.248,-0.612,-17.06,33.05,17.09,1785098928449.4531
0.853,0.229,-0.563,-20.87,39.19,22.19,1785098928449.692
0.841,0.223,-0.511,-24.63,44.1,27.19,1785098928449.928
0.823,0.217,-0.462,-27.62,48.22,32.11,1785098928450.1729
0.808,0.21,-0.415,-30.0,51.97,36.26,1785098928450.4548
0.798,0.193,-0.385,-31.07,55.94,39.64,1785098928450.73
0.793,0.174,-0.359,-31.4,60.06,42.6,1785098928450.9849
0.801,0.164,-0.332,-31.1,63.94,45.72,1785098928451.224
0.783,0.16,-0.303,-29.6,66.5,49.56,1785098928451.4429
0.787,0.145,-0.269,-28.17,69.22,53.83,1785098928451.6611
0.808,0.146,-0.226,-27.56,70.68,55.76,1785098928451.878
0.71,0.151,-0.221,-27.07,65.55,56.86,1785098928452.091
0.678,0.12,-0.149,-24.84,68.94,62.53,1785098928452.302
0.736,0.093,-0.148,-17.94,71.6,67.63,1785098928452.517
0.675,0.132,-0.161,-13.21,68.67,68.06,1785098928452.7302
0.625,0.145,-0.163,-11.08,74.28,71.84,1785098928452.945
0.709,0.093,-0.165,-8.09,82.0,80.94,1785098928453.159
0.724,0.073,-0.148,-4.7,84.9,85.6,1785098928453.3708
0.692,0.07,-0.132,-4.03,87.65,89.39,1785098928453.58
0.704,0.04,-0.111,-4.15,89.88,95.07,1785098928453.792
0.728,0.018,-0.099,-4.79,89.6,98.45,1785098928454.003
0.66,0.014,-0.102,-8.48,88.69,100.47,1785098928454.211
0.672,-0.066,-0.097,-15.5,91.22,104.83,1785098928454.43
0.644,-0.086,-0.086,-21.88,93.26,102.21,1785098928454.6501
0.583,-0.137,-0.09,-28.96,97.02,102.05,1785098928454.8682
0.636,-0.183,-0.057,-35.34,106.33,106.57,1785098928455.082
0.677,-0.178,0.005,-42.76,114.51,108.98,1785098928455.301
0.64,-0.162,0.082,-50.72,116.06,112.34,1785098928455.522
0.592,-0.174,0.175,-56.43,113.96,118.14,1785098928455.7432
0.563,-0.199,0.239,-58.2,112.64,125.37,1785098928455.957
0.549,-0.241,0.268,-57.22,111.88,132.82,1785098928456.179
0.537,-0.302,0.276,-54.26,111.03,138.25,1785098928456.407
0.556,-0.377,0.265,-51.09,112.03,140.35,1785098928456.6282
0.558,-0.428,0.266,-50.17,113.13,142.86,1785098928456.8472
0.596,-0.49,0.296,-49.87,112.13,148.63,1785098928457.0662
0.594,-0.502,0.35,-50.66,107.3,154.3,1785098928457.288
0.576,-0.509,0.41,-49.04,100.5,159.4,1785098928457.502
0.568,-0.524,0.446,-43.37,93.02,163.7,1785098928457.718
0.527,-0.535,0.438,-39.06,84.81,169.41,1785098928457.939
0.507,-0.559,0.395,-39.43,77.36,175.18,1785098928458.166
0.562,-0.569,0.34,-44.31,72.15,176.64,1785098928458.3782
0.556,-0.624,0.288,-52.06,67.84,178.84,1785098928458.5989
0.569,-0.703,0.293,-60.06,65.31,180.94,1785098928458.8062
0.543,-0.726,0.272,-67.78,63.72,176.79,1785098928459.007
0.51,-0.744,0.282,-73.61,62.47,180.09,1785098928459.2278
0.5,-0.785,0.341,-74.98,57.04,191.32,1785098928459.435
0.485,-0.773,0.375,-68.97,48.13,201.33,1785098928459.667
0.463,-0.735,0.332,-56.31,40.8,209.75,1785098928459.873
0.474,-0.734,0.307,-43.58,36.23,216.99,1785098928460.079
0.45,-0.748,0.283,-33.66,31.92,220.44,1785098928460.302
0.443,-0.797,0.194,-28.5,27.92,222.85,1785098928460.5188
0.449,-0.815,0.169,-32.56,24.2,226.33,1785098928460.756
0.455,-0.845,0.214,-37.97,18.95,232.15,1785098928460.9658
0.444,-0.871,0.239,-39.03,12.51,236.73,1785098928461.1763
0.428,-0.896,0.221,-37.42,5.86,238.72,1785098928461.375
0.426,-0.974,0.184,-36.01,-1.04,241.13,1785098928461.594
0.423,-1.008,0.122,-40.8,-10.22,241.62,1785098928461.804
0.419,-1.007,0.081,-55.27,-21.61,239.3,1785098928462.014
0.408,-1.02,0.102,-76.17,-34.88,235.79,1785098928462.2131
0.4,-1.094,0.099,-95.34,-49.2,230.38,1785098928462.422
0.353,-1.155,0.08,-110.78,-64.0,224.13,1785098928462.6328
0.28,-1.138,0.078,-119.27,-80.45,220.5,1785098928462.844
0.219,-1.128,0.076,-114.81,-97.14,222.14,1785098928463.048
0.17,-1.153,0.048,-100.5,-112.89,223.64,1785098928463.259
0.113,-1.178,-0.005,-86.0,-125.98,217.51,1785098928463.4922
0.016,-1.241,-0.065,-77.09,-135.96,208.78,1785098928463.695
-0.075,-1.345,-0.118,-74.28,-144.96,205.69,1785098928463.9038
-0.102,-1.395,-0.117,-72.33,-148.75,200.57,1785098928464.117
-0.138,-1.442,-0.117,-63.63,-146.73,186.65,1785098928464.327
-0.231,-1.486,-0.128,-54.57,-142.19,171.03,1785098928464.527
-0.333,-1.441,-0.145,-49.78,-140.45,161.87,1785098928464.729
-0.387,-1.353,-0.211,-46.6,-140.23,162.42,1785098928464.9292
-0.399,-1.215,-0.283,-48.89,-136.69,169.56,1785098928465.1301
-0.365,-1.095,-0.365,-53.07,-129.09,179.51,1785098928465.322
-0.301,-1.018,-0.424,-57.8,-118.47,181.86,1785098928465.525
-0.276,-1.06,-0.417,-61.34,-107.85,169.96,1785098928465.729
-0.326,-1.181,-0.402,-67.72,-99.09,148.2,1785098928465.919
-0.434,-1.226,-0.376,-79.68,-91.4,130.25,1785098928466.1382
-0.486,-1.214,-0.339,-85.79,-83.83,126.74,1785098928466.3647
-0.475,-1.13,-0.292,-81.7,-75.38,129.31,1785098928466.5972
-0.451,-0.989,-0.252,-71.63,-67.17,131.63,1785098928466.795
-0.443,-0.862,-0.24,-61.98,-62.72,134.71,1785098928467.0051
-0.441,-0.77,-0.258,-56.73,-62.72,141.27,1785098928467.235
-0.429,-0.675,-0.282,-57.53,-63.51,147.62,1785098928467.459
-0.433,-0.561,-0.286,-62.17,-61.19,151.83,1785098928467.669
-0.447,-0.521,-0.277,-65.4,-57.53,155.43,1785098928467.8662
-0.493,-0.603,-0.268,-66.16,-56.52,156.01,1785098928468.064
-0.589,-0.758,-0.226,-65.31,-59.05,153.72,1785098928468.2568
-0.698,-0.937,-0.175,-56.34,-63.66,152.29,1785098928468.4548
-0.796,-1.04,-0.145,-36.01,-66.29,154.0,1785098928468.662
-0.875,-1.038,-0.152,-7.32,-64.49,161.14,1785098928468.858
-0.936,-0.972,-0.209,20.02,-60.06,172.73,1785098928469.0508
-0.971,-0.876,-0.29,34.12,-53.96,185.06,1785098928469.25
-0.991,-0.787,-0.361,30.15,-47.03,192.66,1785098928469.451
-1.022,-0.711,-0.408,9.22,-40.5,192.42,1785098928469.649
-1.059,-0.653,-0.449,-25.06,-35.04,186.5,1785098928469.858
-1.089,-0.62,-0.505,-68.67,-30.55,177.01,1785098928470.056
-1.098,-0.61,-0.571,-119.45,-26.55,164.77,1785098928470.263
-1.1,-0.598,-0.603,-172.46,-22.25,150.7,1785098928470.456
-1.101,-0.591,-0.578,-219.49,-18.77,137.3,1785098928470.646
-1.088,-0.607,-0.507,-253.46,-17.61,12133.0,1785098928471.018
-1.025,-0.707,-0.319,-268.81,-23.87,96.99,1785098928471.206
-1.21,-0.606,-0.319,-23.68,23.13,-9.86,1785098928471.618
-1.21,-0.606,-0.319,-21.67,28.32,-16.36,1785098928471.803
-1.271,-0.606,-0.283,-7.05,37.84,-21.15,1785098928471.9858
-1.296,-0.61,-0.229,15.78,46.39,-24.11,1785098928482.228
-1.274,-0.62,-0.161,40.25,52.0,-28.02,1785098928495.5342
-1.251,-0.591,-0.088,68.36,55.36,-32.96,1785098928501.14
-1.243,-0.574,-0.092,68.36,55.36,-32.96,1785098928511.925
-1.255,-0.545,-0.11,93.45,56.95,-37.75,1785098928525.2312
-1.288,-0.503,-0.139,113.22,54.81,-42.18,1785098928530.929
-1.281,-0.457,-0.163,127.63,51.45,-43.0,1785098928541.833
-1.25,-0.403,-0.214,137.39,47.73,-41.17,1785098928555.0908
-1.2,-0.322,-0.247,141.39,44.1,-36.13,1785098928560.906
-1.152,-0.232,-0.249,139.1,39.25,-28.17,1785098928571.813
-1.111,-0.128,-0.245,127.96,33.69,-17.76,1785098928585.042
-1.055,-0.031,-0.229,107.12,27.65,-4.3,1785098928590.825
-0.979,0.008,-0.209,79.84,21.52,9.34,1785098928601.5579
-0.919,-0.017,-0.185,50.02,15.87,19.96,1785098928612.187
-0.876,-0.081,-0.162,22.83,10.07,29.02,1785098928625.486
-0.84,-0.165,-0.144,1.92,3.85,38.7,1785098928631.194
-0.815,-0.246,-0.136,-11.6,-3.85,49.23,1785098928641.6619
-0.766,-0.315,-0.137,-19.41,-12.54,61.25,1785098928652.404
-0.722,-0.381,-0.141,-21.79,-21.82,73.52,1785098928665.58
-0.693,-0.438,-0.151,-18.52,-31.16,86.55,1785098928671.735
-0.707,-0.472,-0.162,-10.04,-40.16,100.07,1785098928682.313
-0.748,-0.491,-0.198,1.04,-49.26,114.38,1785098928695.539
-0.781,-0.501,-0.268,11.32,-57.53,128.33,1785098928701.445
-0.774,-0.488,-0.358,18.59,-63.66,140.66,1785098928712.153
-0.746,-0.469,-0.459,22.22,-66.77,150.79,1785098928725.4138
-0.746,-0.481,-0.54,22.34,-67.02,159.55,1785098928731.606
-0.754,-0.546,-0.594,22.13,-66.1,167.03,1785098928742.1738
-0.764,-0.62,-0.621,23.38,-64.27,170.63,1785098928755.438
-0.782,-0.676,-0.622,26.83,-61.22,170.48,1785098928761.301
-0.798,-0.68,-0.635,28.9,-56.58,168.28,1785098928772.101
-0.819,-0.653,-0.65,23.62,-49.56,164.4,1785098928785.31
-0.836,-0.652,-0.673,8.21,-41.57,156.59,1785098928791.3
-0.815,-0.723,-0.708,-13.21,-32.29,143.28,1785098928801.9998
-0.769,-0.838,-0.734,-31.59,-21.79,124.06,1785098928815.207
-0.726,-0.958,-0.718,-37.11,-11.05,101.6,1785098928821.2537
-0.708,-1.052,-0.682,-24.93,-0.98,78.4,1785098928831.722
-0.715,-1.106,-0.658,2.93,8.12,55.57,1785098928842.219
-0.742,-1.131,-0.659,41.08,15.66,32.78,1785098928855.5361
-0.766,-1.121,-0.692,80.14,22.58,11.54,1785098928861.362
-0.79,-1.075,-0.76,113.5,30.58,-8.33,1785098928871.9448
-0.797,-0.985,-0.852,136.36,39.25,-26.25,1785098928885.223
-0.806,-0.907,-0.931,148.75,48.1,-44.28,1785098928891.584
-0.831,-0.874,-0.97,151.49,55.24,-64.42,1785098928901.9102
-0.861,-0.871,-0.975,146.31,60.88,-85.85,1785098928915.1292
-0.89,-0.908,-0.974,137.09,66.23,-107.7,1785098928921.139
-0.929,-0.967,-0.972,124.06,71.41,-130.92,1785098928932.0588
-0.987,-1.01,-0.961,107.36,76.85,-152.75,1785098928945.275
-1.046,-1.003,-0.934,88.84,80.63,-170.29,1785098928951.2683
-1.083,-0.977,-0.897,73.95,85.82,-184.91,1785098928962.085
-1.087,-1.005,-0.855,64.76,91.74,-195.47,1785098928975.3699
-1.036,-1.129,-0.807,58.9,95.49,-206.67,1785098928981.259
-1.005,-1.333,-0.779,57.13,97.69,-226.23,1785098928992.073
-1.033,-1.569,-0.777,58.87,100.34,-251.01,1785098929005.45
-1.133,-1.743,-0.785,63.36,103.82,-272.01,1785098929012.217
-1.233,-1.757,-0.782,68.58,108.28,-282.42,1785098929022.339
-1.23,-1.688,-0.786,80.9,113.53,-284.89,1785098929036.345
-1.099,-1.542,-0.78,95.83,120.88,-291.51,1785098929041.5571
-0.897,-1.423,-0.755,108.1,126.99,-303.66,1785098929055.042
-0.729,-1.397,-0.728,117.4,130.92,-318.89,1785098929061.0051
-0.608,-1.337,-0.668,124.7,134.37,-328.71,1785098929072.4402
-0.495,-1.328,-0.634,141.39,133.09,-330.55,1785098929085.469
-0.449,-1.171,-0.691,152.26,124.49,-329.84,1785098929091.5032
-0.304,-0.89,-0.654,153.2,114.66,-314.55,1785098929105.17
-0.107,-0.668,-0.621,148.78,102.69,-309.49,1785098929111.0798
-0.01,-0.508,-0.619,123.54,87.16,-325.33,1785098929122.184
0.049,-0.543,-0.505,85.97,77.85,-343.18,1785098929135.387
0.044,-0.707,-0.212,48.74,71.75,-357.98,1785098929141.336
0.053,-0.817,0.039,24.2,60.43,-365.37,1785098929152.2063
0.096,-0.756,0.18,20.81,48.86,-361.03,1785098929165.344
0.133,-0.63,0.263,34.88,32.59,-340.86,1785098929171.628
0.161,-0.544,0.27,52.58,9.64,-319.86,1785098929182.012
0.163,-0.481,0.213,59.08,-16.45,-308.73,1785098929195.269
0.133,-0.445,0.17,51.27,-40.38,-301.1,1785098929201.178
0.088,-0.374,0.146,35.43,-61.19,-294.66,1785098929211.991
0.079,-0.288,0.105,18.83,-80.05,-286.48,1785098929225.181
0.114,-0.234,0.073,5.28,-94.42,-277.38,1785098929231.115
0.141,-0.213,0.094,-6.5,-106.2,-270.88,1785098929241.8408
0.151,-0.25,0.11,-11.35,-117.47,-263.37,1785098929255.091
0.171,-0.304,0.135,-7.2,-127.23,-251.78,1785098929261.012
0.196,-0.324,0.157,4.7,-135.78,-235.57,1785098929271.882
0.231,-0.333,0.166,21.76,-144.78,-212.74,1785098929285.0051
0.264,-0.335,0.197,40.5,-152.96,-187.66,1785098929290.999
0.281,-0.383,0.16,60.21,-162.48,-162.51,1785098929301.91
0.299,-0.39,0.108,74.92,-170.72,-139.16,1785098929315.073
0.331,-0.401,0.086,84.14,-176.76,-119.63,1785098929321.138
0.342,-0.42,0.012,83.32,-182.81,-105.75,1785098929332.14
0.364,-0.437,-0.065,73.21,-187.63,-93.36,1785098929345.509
0.371,-0.494,-0.138,64.58,-190.44,-81.51,1785098929351.23
0.374,-0.524,-0.228,58.66,-190.5,-70.83,1785098929362.134
0.405,-0.537,-0.316,57.5,-187.02,-59.79,1785098929375.388
0.44,-0.508,-0.39,57.5,-182.5,-49.38,1785098929381.1619
0.468,-0.487,-0.452,56.43,-177.77,-40.25,1785098929392.084
0.464,-0.509,-0.521,53.29,-172.89,-34.12,1785098929405.416
0.443,-0.544,-0.604,46.88,-167.67,-30.82,1785098929411.0952
0.457,-0.579,-0.679,36.38,-161.41,-27.28,1785098929422.137
0.478,-0.621,-0.774,23.5,-153.32,-24.08,1785098929435.52
0.505,-0.658,-0.875,8.12,-142.0,-21.82,1785098929441.7961
0.524,-0.715,-0.98,-7.2,-126.01,-22.46,1785098929452.0461
0.543,-0.749,-1.107,-23.74,-106.51,-25.3,1785098929465.3088
0.569,-0.771,-1.229,-41.51,-84.26,-27.44,1785098929471.3691
0.571,-0.747,-1.282,-60.15,-62.07,-28.17,1785098929481.7979
0.557,-0.708,-1.292,-74.83,-39.28,-26.83,1785098929492.239
0.538,-0.672,-1.281,-84.54,-15.41,-25.64,1785098929505.825
0.497,-0.654,-1.28,-90.43,7.6,-25.94,1785098929511.6448
0.454,-0.645,-1.248,-98.48,32.01,-28.66,1785098929522.1702
0.436,-0.634,-1.214,-107.27,57.92,-31.28,1785098929535.3643
0.376,-0.636,-1.219,-113.68,86.83,-34.7,1785098929541.276
0.307,-0.588,-1.157,-125.68,112.4,-36.35,1785098929552.154
0.268,-0.548,-1.11,-135.17,133.3,-31.53,1785098929565.3892
0.232,-0.522,-1.065,-137.06,154.39,-23.99,1785098929571.5452
0.178,-0.494,-1.02,-134.31,177.8,-17.88,1785098929582.378
0.155,-0.472,-1.018,-132.82,201.76,-12.67,1785098929595.673
0.131,-0.445,-0.981,-134.59,222.48,-8.82,1785098929601.588
0.081,-0.432,-0.891,-133.18,239.97,-5.62,1785098929612.469
0.041,-0.436,-0.788,-123.11,256.42,-0.06,1785098929625.708
0.012,-0.411,-0.72,-106.97,272.1,8.27,1785098929631.712
0.0,-0.354,-0.673,-90.85,285.71,19.41,1785098929642.423
-0.013,-0.296,-0.592,-76.82,297.92,28.69,1785098929656.48
-0.026,-0.254,-0.526,-65.43,309.85,32.53,1785098929661.606
-0.032,-0.248,-0.516,-59.48,318.22,33.2,1785098929672.4219
-0.043,-0.25,-0.477,-60.91,329.94,30.79,1785098929685.596
-0.029,-0.308,-0.437,-65.55,343.58,28.53,1785098929691.745
-0.043,-0.335,-0.376,-72.88,353.83,27.77,1785098929702.332
-0.05,-0.304,-0.37,-87.01,357.4,31.59,1785098929715.589
-0.059,-0.253,-0.292,-104.92,361.86,37.11,1785098929721.57
-0.044,-0.237,-0.272,-121.25,366.31,43.79,1785098929732.487
-0.027,-0.292,-0.266,-134.74,370.04,53.71,1785098929745.7302
-0.027,-0.292,-0.266,-147.43,372.45,66.1,1785098929751.6611
-0.023,-0.303,-0.219,-152.9,377.24,80.14,1785098929765.1218
-0.009,-0.319,-0.086,-148.81,380.5,93.78,1785098929771.4329
-0.021,-0.342,0.058,-134.62,381.6,109.78,1785098929782.1992
-0.03,-0.345,0.219,-134.62,381.6,109.78,1785098929795.5798
0.012,-0.31,0.338,-110.29,380.2,129.8,1785098929801.495
0.069,-0.263,0.417,-80.02,378.06,150.98,1785098929815.067
0.1,-0.204,0.472,-53.53,373.46,168.83,1785098929821.08
0.116,-0.211,0.553,-33.33,368.24,182.23,1785098929832.001
0.082,-0.271,0.662,-16.91,363.41,191.9,1785098929845.271
0.004,-0.41,0.823,-0.06,359.63,201.06,1785098929851.541
-0.16,-0.581,1.006,18.4,354.78,209.88,1785098929862.1362
-0.334,-0.699,1.142,35.37,346.6,219.55,1785098929875.381
-0.412,-0.789,1.306,48.19,335.52,229.41,1785098929881.37
-0.487,-0.992,1.476,62.75,322.0,231.12,1785098929892.4612
-0.543,-1.213,1.512,78.77,302.87,222.08,1785098929905.649
-0.567,-1.388,1.497,82.95,274.51,205.66,1785098929911.5671
-0.667,-1.442,1.548,65.95,240.0,185.28,1785098929925.189
-0.715,-1.609,1.627,49.29,204.69,171.82,1785098929931.321
-0.494,-1.853,1.596,43.73,173.5,154.7,1785098929942.114
-0.231,-1.719,1.512,36.96,148.44,123.63,1785098929955.3862
-0.175,-1.453,1.549,22.06,124.45,92.87,1785098929961.215
-0.179,-1.34,1.62,-7.69,90.24,59.39,1785098929971.8962
-0.211,-1.361,1.706,-51.39,45.93,20.69,1785098929982.488
-0.187,-1.437,1.803,-91.62,0.21,-14.53,1785098929995.747
-0.129,-1.406,1.833,-120.37,-41.2,-41.99,1785098930001.734
-0.041,-1.352,1.794,-133.0,-76.51,-60.58,1785098930012.338
0.038,-1.308,1.732,-130.5,-105.81,-77.97,1785098930025.583
0.085,-1.266,1.673,-121.43,-130.8,-94.79,1785098930031.614
0.095,-1.221,1.605,-110.84,-151.86,-108.07,1785098930045.444
0.082,-1.214,1.514,-99.61,-168.4,-115.76,1785098930051.1328
0.083,-1.228,1.436,-86.79,-180.88,-119.94,1785098930062.087
0.066,-1.219,1.347,-68.88,-192.69,-122.29,1785098930075.2927
0.077,-1.177,1.249,-45.53,-202.67,-124.42,1785098930081.2612
0.078,-1.111,1.195,-20.23,-210.97,-126.59,1785098930092.312
0.051,-1.051,1.132,7.6,-218.54,-127.75,1785098930105.544
0.026,-1.008,1.072,34.21,-227.88,-128.88,1785098930111.4768
0.021,-0.993,1.01,55.42,-237.65,-131.44,1785098930122.416
0.013,-1.001,0.968,67.29,-247.41,-133.7,1785098930135.7
-0.001,-0.982,0.874,69.55,-258.22,-134.19,1785098930141.6472
0.013,-0.897,0.782,64.79,-266.61,-130.19,1785098930155.144
0.001,-0.813,0.754,58.2,-272.68,-123.66,1785098930161.01
-0.041,-0.758,0.7,53.96,-279.31,-119.69,1785098930172.0837
-0.023,-0.64,0.562,50.87,-285.68,-121.83,1785098930185.281
0.028,-0.603,0.507,44.1,-289.53,-122.04,1785098930191.245
0.039,-0.641,0.455,41.02,-291.97,-120.43,1785098930202.28
0.086,-0.604,0.376,45.17,-289.19,-122.14,1785098930215.5059
0.109,-0.578,0.28,51.85,-285.65,-124.42,1785098930221.464
0.13,-0.567,0.197,56.0,-280.95,-129.43,1785098930232.474
0.15,-0.522,0.158,54.69,-276.38,-138.4,1785098930245.733
0.135,-0.501,0.11,53.47,-273.35,-146.0,1785098930251.9521
0.149,-0.481,0.088,54.38,-268.23,-150.12,1785098930265.1511
0.149,-0.468,0.047,59.69,-262.64,-149.24,1785098930271.1401
0.17,-0.428,-0.01,67.05,-257.97,-147.59,1785098930282.1409
0.195,-0.366,-0.062,73.55,-253.52,-147.56,1785098930295.249
0.231,-0.336,-0.121,80.02,-249.98,-147.83,1785098930301.3918
0.246,-0.323,-0.187,83.77,-246.41,-149.48,1785098930312.3462
0.332,-0.326,-0.24,87.56,-241.43,-144.81,1785098930325.607
0.345,-0.269,-0.342,91.77,-236.73,-146.98,1785098930331.703
0.394,-0.26,-0.39,92.96,-229.65,-143.5,1785098930342.616
0.414,-0.233,-0.43,95.8,-222.48,-140.6,1785098930355.863
0.429,-0.21,-0.474,98.97,-217.47,-138.28,1785098930361.8062
0.434,-0.208,-0.517,100.41,-213.6,-135.29,1785098930375.229
0.456,-0.186,-0.56,99.64,-207.86,-131.14,1785098930381.4138
0.496,-0.152,-0.626,95.8,-203.34,-127.32,1785098930392.514
0.548,-0.126,-0.715,87.68,-198.28,-126.22,1785098930405.592
0.61,-0.118,-0.808,75.26,-189.18,-126.53,1785098930411.494
0.646,-0.112,-0.921,60.73,-180.46,-125.55,1785098930422.566
0.681,-0.109,-1.055,45.78,-170.26,-122.47,1785098930435.827
0.697,-0.062,-1.206,32.47,-154.39,-118.44,1785098930441.7478
0.725,-0.003,-1.383,21.12,-135.9,-111.18,1785098930455.225
0.758,0.07,-1.613,9.58,-116.89,-101.66,1785098930461.1553
0.766,0.198,-1.857,-4.43,-93.6,-90.82,1785098930471.8442
0.778,0.355,-2.09,-18.95,-60.24,-75.93,1785098930482.52
0.796,0.522,-2.206,-32.44,-21.67,-57.37,1785098930495.758
0.868,0.589,-2.05,-40.68,20.97,-37.35,1785098930501.627
0.929,0.506,-1.64,-49.87,58.6,-22.92,1785098930512.177
0.873,0.391,-1.376,-67.72,87.19,-18.13,1785098930525.4468
0.785,0.302,-1.139,-97.02,106.48,-7.97,1785098930531.552
0.76,0.275,-0.91,-113.96,119.14,12.39,1785098930541.933
0.779,0.243,-0.813,-104.1,125.58,32.75,1785098930555.3633
0.833,0.231,-0.743,-92.1,128.24,46.91,1785098930561.566
0.862,0.219,-0.705,-91.86,128.91,57.28,1785098930572.079
0.863,0.217,-0.69,-97.75,132.91,66.35,1785098930585.29
0.89,0.197,-0.651,-101.81,138.25,74.95,1785098930591.273
0.896,0.144,-0.602,-100.86,140.66,80.08,1785098930602.315
0.874,0.096,-0.549,-99.06,140.48,84.96,1785098930615.4602
0.878,0.043,-0.495,-94.7,141.0,90.3,1785098930621.3938
0.877,-0.003,-0.469,-90.37,140.14,94.03,1785098930632.158
0.861,-0.024,-0.431,-91.28,137.61,96.53,1785098930645.4949
0.84,-0.027,-0.384,-95.52,136.51,99.46,1785098930652.7869
0.812,-0.038,-0.388,-98.21,139.56,102.69,1785098930662.2578
0.774,-0.056,-0.358,-100.07,144.66,105.29,1785098930675.5981
0.76,-0.086,-0.309,-97.75,148.26,108.22,1785098930682.154
0.753,-0.11,-0.293,-89.72,150.21,112.4,1785098930692.3972
0.724,-0.133,-0.281,-79.53,151.98,117.4,1785098930705.834
0.668,-0.17,-0.257,-70.35,156.96,120.0,1785098930711.778
0.613,-0.193,-0.249,-62.84,165.01,120.98,1785098930725.218
0.571,-0.202,-0.241,-57.92,172.77,122.65,1785098930731.266
0.523,-0.212,-0.213,-54.51,179.42,124.45,1785098930742.463
0.467,-0.216,-0.203,-50.72,186.96,125.4,1785098930755.751
0.419,-0.221,-0.18,-46.82,195.72,126.71,1785098930761.152
0.372,-0.231,-0.146,-43.49,205.11,126.04,1785098930772.212
0.342,-0.247,-0.116,-42.18,214.7,124.88,1785098930785.365
0.334,-0.303,-0.1,-43.76,223.49,127.11,1785098930791.673
0.282,-0.347,-0.071,-48.52,230.38,130.16,1785098930804.8582
0.24,-0.357,-0.025,-53.74,236.88,133.58,1785098930811.027
0.217,-0.353,0.004,-56.28,243.26,137.82,1785098930822.112
0.149,-0.339,0.06,-56.83,249.37,142.09,1785098930835.397
0.125,-0.347,0.071,-53.59,253.12,147.43,1785098930842.1602
0.1,-0.345,0.115,-46.02,258.92,151.62,1785098930852.4138
-0.006,-0.319,0.176,-32.17,263.62,159.43,1785098930865.608
-0.049,-0.34,0.211,-9.98,266.12,173.53,1785098930871.677
-0.014,-0.357,0.154,18.1,270.46,189.46,1785098930882.45
-0.008,-0.302,0.148,39.92,283.27,204.44,1785098930895.752
-0.126,-0.23,0.234,52.03,295.82,220.37,1785098930902.871
-0.255,-0.215,0.321,59.72,303.29,234.41,1785098930915.102
-0.411,-0.276,0.38,67.14,309.27,241.86,1785098930920.796
-0.532,-0.361,0.37,67.84,318.49,241.25,1785098930932.064
-0.687,-0.432,0.424,52.55,329.14,236.76,1785098930945.3398
-0.807,-0.556,0.463,25.91,338.48,234.2,1785098930951.283
-0.921,-0.716,0.527,-8.94,346.6,231.91,1785098930962.2012
-1.06,-0.859,0.65,-48.07,349.1,230.54,1785098930975.5142
-1.228,-1.043,0.835,-84.75,342.3,231.73,1785098930981.426
-1.291,-1.227,0.921,-115.09,328.2,228.46,1785098930992.544
-1.226,-1.248,0.951,-147.59,313.76,216.44,1785098931005.883
-1.164,-1.122,1.045,-179.88,294.69,203.96,1785098931011.68
-1.05,-1.12,1.053,-190.44,271.74,190.77,1785098931025.352
-0.986,-1.233,1.228,-186.68,242.32,165.23,1785098931031.366
-0.986,-1.233,1.228,-171.97,202.22,132.79,1785098931042.619
-0.892,-1.501,1.222,-153.51,168.65,102.15,1785098931055.932
-0.67,-1.797,1.289,-123.51,134.62,77.03,1785098931061.7542
-0.46,-2.045,1.467,-75.9,96.07,51.61,1785098931075.34
-0.357,-2.027,1.491,-75.9,96.07,51.61,1785098931081.28
-0.214,-1.819,1.309,-31.1,66.19,29.85,1785098931091.7969
-0.074,-1.671,1.213,-7.78,50.08,6.87,1785098931102.2239
-0.146,-1.569,1.132,-16.54,31.13,-15.84,1785098931115.4612
-0.169,-1.571,1.158,-45.44,15.38,-28.44,1785098931121.4841
-0.129,-1.607,1.177,-76.45,-1.22,-37.14,1785098931131.869
-0.104,-1.602,1.158,-99.19,-16.79,-48.37,1785098931142.581
-0.109,-1.565,1.106,-111.55,-30.3,-65.58,1785098931155.874
-0.165,-1.51,1.021,-118.56,-41.9,-84.99,1785098931161.721
-0.307,-1.494,0.897,-121.34,-48.28,-85.97,1785098931172.522
-0.361,-1.614,0.887,-104.83,-46.6,-48.55,1785098931186.029
-0.299,-1.706,0.917,-50.72,-39.46,-16.17,1785098931191.867
-0.292,-1.64,0.871,16.39,-38.82,-24.63,1785098931202.4587
-0.295,-1.579,0.839,64.09,-48.22,-49.1,1785098931215.501
-0.326,-1.589,0.854,91.43,-61.8,-68.64,1785098931221.4292
-0.38,-1.576,0.883,108.19,-76.33,-80.72,1785098931232.042
-0.428,-1.496,0.907,116.06,-92.99,-88.78,1785098931245.322
-0.418,-1.429,0.898,112.67,-111.97,-96.68,1785098931251.5898
-0.404,-1.408,0.887,98.61,-132.02,-107.88,1785098931262.2412
-0.428,-1.359,0.919,78.74,-151.04,-119.11,1785098931275.497
-0.455,-1.357,0.938,66.41,-169.56,-128.97,1785098931281.378
-0.499,-1.378,0.934,64.94,-188.21,-142.8,1785098931292.4668
-0.554,-1.379,0.918,70.68,-205.3,-155.61,1785098931305.7039
-0.583,-1.379,0.929,81.67,-219.98,-161.66,1785098931311.6648
-0.627,-1.342,0.921,95.22,-234.66,-169.19,1785098931325.0872
-0.658,-1.26,0.878,102.82,-249.73,-178.66,1785098931331.256
-0.653,-1.163,0.861,101.93,-265.6,-183.51,1785098931342.23
-0.601,-1.169,0.791,103.03,-278.36,-181.01,1785098931355.5068
-0.55,-1.156,0.698,109.38,-284.55,-174.14,1785098931361.492
-0.475,-0.992,0.545,115.48,-288.06,-166.48,1785098931375.071
-0.323,-0.756,0.362,110.87,-288.58,-157.66,1785098931381.119
-0.16,-0.54,0.318,85.97,-287.76,-151.43,1785098931392.2078
-0.008,-0.457,0.357,42.12,-289.53,-148.69,1785098931405.497
0.069,-0.488,0.506,-15.84,-295.18,-151.55,1785098931411.531
0.063,-0.586,0.618,-77.58,-304.3,-160.8,1785098931422.455
0.042,-0.689,0.655,-130.44,-310.83,-174.29,1785098931435.698
0.064,-0.858,0.54,-155.46,-309.43,-190.34,1785098931441.7139
0.113,-0.943,0.394,-153.23,-297.83,-206.43,1785098931455.332
0.144,-0.821,0.307,-120.27,-278.66,-216.53,1785098931461.3472
0.201,-0.638,0.213,-56.03,-254.8,-214.58,1785098931472.637
0.259,-0.462,0.128,15.87,-233.74,-204.78,1785098931485.776
0.297,-0.264,0.119,73.0,-221.75,-193.09,1785098931491.616
0.342,-0.159,0.153,114.35,-217.44,-182.38,1785098931505.0671
0.338,-0.122,0.111,137.18,-217.35,-178.32,1785098931511.1309
0.328,-0.091,0.044,138.28,-218.42,-179.39,1785098931522.403
0.356,-0.115,0.004,123.45,-220.71,-181.74,1785098931535.6338
0.381,-0.168,0.027,101.72,-220.98,-186.77,1785098931541.573
0.36,-0.251,0.013,87.1,-219.67,-191.96,1785098931555.207
0.297,-0.284,-0.001,81.45,-218.42,-192.33,1785098931561.133
0.256,-0.279,-0.009,84.48,-218.15,-187.78,1785098931572.171
0.251,-0.265,-0.073,93.17,-217.11,-180.82,1785098931585.352
0.267,-0.25,-0.162,100.53,-214.61,-169.16,1785098931591.401
0.278,-0.226,-0.223,106.54,-211.37,-160.1,1785098931602.7861
0.286,-0.18,-0.279,112.67,-208.01,-156.32,1785098931615.775
0.313,-0.146,-0.367,118.26,-205.15,-152.38,1785098931621.867
0.36,-0.134,-0.483,122.29,-200.96,-148.05,1785098931635.4702
0.399,-0.113,-0.589,121.62,-195.14,-143.62,1785098931641.3892
0.451,-0.089,-0.682,117.59,-187.57,-137.97,1785098931654.992
0.509,-0.069,-0.763,111.0,-179.27,-133.43,1785098931661.2107
0.538,-0.044,-0.84,101.54,-171.18,-130.34,1785098931672.3882
0.569,-0.015,-0.934,91.95,-161.14,-126.53,1785098931685.503
0.614,0.045,-1.041,81.73,-149.94,-122.38,1785098931691.4912
0.677,0.111,-1.179,71.17,-135.47,-118.35,1785098931702.6418
0.715,0.187,-1.369,60.46,-118.38,-112.46,1785098931715.659
0.727,0.284,-1.619,49.17,-97.11,-102.69,1785098931721.7058
0.74,0.431,-1.909,35.83,-69.19,-86.76,1785098931732.415
0.787,0.592,-2.021,20.69,-34.73,-64.52,1785098931745.6208
0.818,0.582,-1.833,15.63,3.91,-43.67,1785098931751.559
0.892,0.467,-1.59,17.33,39.34,-29.08,1785098931761.999
0.91,0.418,-1.347,7.05,68.06,-16.72,1785098931772.581
0.887,0.432,-1.071,-19.44,89.66,-3.63,1785098931785.9158
0.918,0.416,-0.83,-52.16,103.31,10.25,1785098931791.729
0.912,0.376,-0.668,-82.16,108.68,24.57,1785098931802.407
0.879,0.313,-0.574,-97.78,109.35,39.22,1785098931815.621
0.869,0.252,-0.522,-99.64,108.19,52.52,1785098931821.6582
0.863,0.231,-0.496,-98.39,107.06,64.18,1785098931832.312
0.85,0.223,-0.467,-94.33,107.33,74.34,1785098931845.529
0.83,0.206,-0.423,-85.82,108.16,81.85,1785098931851.621
0.83,0.178,-0.396,-75.23,108.52,86.64,1785098931862.263
0.834,0.132,-0.375,-65.25,109.41,90.12,1785098931875.5488
0.815,0.086,-0.361,-57.37,109.87,93.08,1785098931881.4458
0.79,0.047,-0.352,-51.45,110.14,97.57,1785098931892.247
0.76,0.017,-0.35,-47.55,110.69,103.34,1785098931905.625
0.75,0.003,-0.325,-48.37,112.74,108.01,1785098931911.4812
0.74,-0.016,-0.307,-53.71,116.18,110.29,1785098931922.5413
0.727,-0.047,-0.285,-62.53,120.0,110.84,1785098931935.822
0.711,-0.101,-0.263,-71.47,123.75,111.27,1785098931941.716
0.681,-0.147,-0.235,-79.41,127.02,112.64,1785098931955.1958
0.657,-0.182,-0.205,-83.53,130.65,115.97,1785098931961.123
0.638,-0.21,-0.192,-82.09,135.01,120.12,1785098931972.1348
0.625,-0.226,-0.186,-77.06,139.81,124.3,1785098931985.3972
0.618,-0.234,-0.18,-70.47,144.72,127.78,1785098931991.346
0.607,-0.234,-0.178,-64.18,150.27,130.74,1785098932002.365
0.601,-0.236,-0.195,-59.51,156.62,133.24,1785098932015.5698
0.601,-0.239,-0.202,-58.53,163.0,134.5,1785098932021.7239
0.6,-0.251,-0.194,-60.79,168.83,135.38,1785098932032.579
0.573,-0.267,-0.181,-65.07,174.02,136.48,1785098932045.813
0.52,-0.273,-0.164,-70.77,179.33,138.07,1785098932051.877
0.469,-0.27,-0.128,-76.63,184.64,140.84,1785098932065.2878
0.428,-0.28,-0.083,-80.02,189.95,144.26,1785098932071.331
0.369,-0.276,-0.047,-80.17,195.72,148.01,1785098932082.2668
0.394,-0.27,-0.009,-79.9,201.09,152.96,1785098932095.5242
0.38,-0.295,0.013,-79.62,203.1,160.44,1785098932101.498
0.335,-0.33,0.066,-78.04,205.33,168.77,1785098932112.493
0.307,-0.365,0.098,-75.66,206.85,174.69,1785098932125.7
0.26,-0.408,0.128,-74.07,209.69,180.36,1785098932131.7717
0.218,-0.458,0.155,-76.08,211.37,187.96,1785098932145.117
0.205,-0.497,0.166,-80.9,212.16,196.2,1785098932151.084
0.183,-0.544,0.169,-86.73,213.51,205.18,1785098932162.067
0.159,-0.603,0.201,-94.45,213.45,215.89,1785098932175.299
0.143,-0.673,0.263,-100.62,212.1,227.61,1785098932181.27
0.08,-0.745,0.335,-102.21,210.76,235.97,1785098932192.456
-0.018,-0.797,0.44,-99.06,209.33,239.66,1785098932205.7031
-0.124,-0.89,0.567,-88.14,205.27,244.7,1785098932211.81
-0.246,-1.024,0.698,-68.91,202.0,247.47,1785098932225.138
-0.303,-1.181,0.802,-45.99,198.95,245.28,1785098932231.0999
-0.329,-1.381,0.771,-20.39,197.49,239.23,1785098932242.094
-0.362,-1.384,0.733,-3.66,198.74,233.59,1785098932255.335
-0.316,-1.282,0.704,6.65,198.71,232.73,1785098932261.363
-0.254,-1.238,0.734,14.47,197.49,223.3,1785098932272.394
-0.227,-1.408,0.799,30.4,193.18,201.51,1785098932285.4631
-0.328,-1.591,0.8,49.01,186.71,166.57,1785098932291.459
-0.483,-1.568,0.814,57.31,181.55,139.62,1785098932302.4841
-0.497,-1.478,0.878,64.24,178.96,130.8,1785098932315.406
-0.497,-1.478,0.878,74.62,172.86,123.11,1785098932321.3901
-0.408,-1.402,0.877,82.55,163.58,109.35,1785098932332.396
-0.326,-1.32,0.816,83.59,153.63,96.9,1785098932345.664
-0.266,-1.197,0.724,81.85,146.61,89.66,1785098932351.3757
-0.241,-1.108,0.62,78.55,143.68,83.16,1785098932362.323
-0.313,-1.042,0.528,78.55,143.68,83.16,1785098932375.5
-0.37,-1.006,0.494,68.18,140.57,76.02,1785098932381.312
-0.44,-1.002,0.507,52.4,133.95,68.61,1785098932392.2063
-0.437,-1.063,0.587,34.79,126.44,64.39,1785098932405.556
-0.415,-1.092,0.741,18.31,116.15,56.7,1785098932411.2808
-0.351,-1.138,0.871,8.91,102.82,49.96,1785098932422.184
-0.292,-1.24,0.973,6.5,89.42,42.85,1785098932435.424
-0.265,-1.34,1.081,3.81,72.66,33.63,1785098932441.546
-0.256,-1.414,1.171,3.75,54.02,23.29,1785098932451.875
-0.24,-1.458,1.24,10.32,36.04,12.36,1785098932462.527
-0.209,-1.469,1.281,21.67,18.56,-0.73,1785098932475.5552
-0.198,-1.401,1.285,32.65,1.34,-15.11,1785098932481.7522
-0.189,-1.321,1.262,40.74,-15.2,-27.04,1785098932491.8162
-0.206,-1.272,1.216,44.53,-32.07,-38.48,1785098932505.175
-0.231,-1.234,1.16,41.23,-49.35,-48.52,1785098932511.086
-0.241,-1.224,1.109,34.52,-65.92,-57.68,1785098932521.884
-0.261,-1.248,1.091,28.99,-81.27,-67.87,1785098932532.237
-0.281,-1.297,1.104,28.38,-95.77,-77.49,1785098932545.391
-0.305,-1.324,1.131,35.92,-108.49,-86.03,1785098932551.09
-0.336,-1.314,1.159,50.29,-120.12,-92.01,1785098932561.949
-0.363,-1.292,1.163,66.23,-132.91,-94.76,1785098932575.263
-0.388,-1.248,1.155,79.84,-146.0,-96.1,1785098932581.003
-0.408,-1.21,1.139,90.4,-158.36,-96.22,1785098932591.9202
-0.426,-1.191,1.129,99.09,-170.2,-96.19,1785098932605.312
-0.43,-1.173,1.128,105.66,-182.1,-96.93,1785098932611.785
-0.433,-1.156,1.123,110.9,-193.52,-98.24,1785098932622.761
-0.433,-1.122,1.115,114.44,-205.24,-99.83,1785098932635.6921
-0.415,-1.083,1.086,114.72,-217.6,-102.3,1785098932641.5042
-0.375,-1.024,1.06,111.27,-228.83,-104.34,1785098932654.887
-0.323,-0.962,1.041,104.8,-238.84,-106.66,1785098932661.4092
-0.291,-0.887,1.021,95.86,-248.08,-110.11,1785098932672.123
-0.265,-0.801,0.978,83.44,-256.63,-112.31,1785098932685.594
-0.196,-0.727,0.943,65.61,-264.6,-113.96,1785098932691.883
-0.156,-0.681,0.87,45.56,-271.77,-118.11,1785098932702.544
-0.107,-0.647,0.837,22.4,-277.54,-121.01,1785098932715.751
-0.035,-0.674,0.834,2.14,-282.63,-124.91,1785098932721.855
-0.026,-0.685,0.783,-11.96,-286.87,-132.27,1785098932732.482
-0.012,-0.646,0.742,-20.36,-288.74,-137.03,1785098932745.5881
0.018,-0.61,0.681,-20.97,-290.17,-140.02,1785098932751.585
0.044,-0.549,0.53,-15.66,-289.07,-142.28,1785098932764.9941
0.12,-0.473,0.387,-8.18,-283.97,-140.29,1785098932770.874
0.212,-0.405,0.238,1.1,-276.38,-136.51,1785098932781.7622
0.29,-0.341,0.115,7.6,-267.16,-133.34,1785098932795.037
0.335,-0.283,0.047,8.45,-258.4,-130.44,1785098932800.8499
0.379,-0.258,0.055,6.2,-250.8,-127.38,1785098932811.757
0.397,-0.271,0.097,5.37,-244.27,-126.74,1785098932825.022
0.357,-0.294,0.072,7.9,-239.51,-128.45,1785098932830.788
0.314,-0.268,0.031,9.89,-235.66,-128.79,1785098932841.695
0.31,-0.203,-0.047,12.05,-232.0,-125.31,1785098932854.9912
0.347,-0.098,-0.115,11.05,-221.35,-118.02,1785098932860.9998
0.426,-0.032,-0.067,7.11,-202.92,-109.44,1785098932871.9558
0.503,-0.057,-0.047,3.78,-192.39,-106.97,1785098932885.1572
0.604,-0.155,-0.014,-1.04,-183.57,-114.6,1785098932890.976
0.653,-0.318,0.044,-6.56,-175.36,-129.95,1785098932901.8691
0.564,-0.426,0.098,-9.7,-172.73,-146.98,1785098932915.1091
0.453,-0.433,0.166,0.09,-172.7,-155.92,1785098932920.9019
0.419,-0.369,0.182,25.12,-173.01,-155.71,1785098932931.966
0.376,-0.242,0.173,52.37,-171.51,-149.82,1785098932945.2668
0.35,-0.163,0.116,73.52,-171.58,-139.62,1785098932951.1501
0.363,-0.135,0.052,83.5,-172.34,-129.95,1785098932962.152
0.412,-0.119,0.0,86.34,-170.26,-122.1,1785098932975.544
0.479,-0.099,-0.07,88.02,-167.0,-114.78,1785098932981.619
0.538,-0.064,-0.147,85.7,-165.65,-106.94,1785098932992.8892
0.584,-0.006,-0.226,79.35,-165.38,-101.05,1785098933006.018
0.626,0.031,-0.295,70.35,-163.73,-97.23,1785098933012.203
0.658,0.041,-0.37,60.37,-161.63,-95.89,1785098933025.0571
0.688,0.044,-0.456,50.02,-158.7,-95.89,1785098933030.704
0.706,0.065,-0.578,41.75,-153.32,-95.4,1785098933041.9463
0.733,0.081,-0.725,39.46,-144.96,-92.81,1785098933055.2002
0.773,0.097,-0.899,39.0,-135.01,-89.27,1785098933061.0718
0.81,0.151,-1.097,31.77,-123.51,-83.96,1785098933071.882
0.851,0.237,-1.3,16.97,-109.59,-76.88,1785098933082.644
0.881,0.349,-1.581,-2.69,-91.98,-68.24,1785098933095.87
0.903,0.523,-1.899,-28.75,-68.54,-56.49,1785098933101.7869
0.946,0.699,-1.904,-54.84,-36.16,-40.83,1785098933112.074
1.005,0.678,-1.644,-59.88,-2.23,-26.43,1785098933125.1873
1.033,0.589,-1.372,-48.59,29.27,-16.85,1785098933131.3071
1.007,0.572,-1.107,-38.61,58.29,-3.91,1785098933141.6873
1.042,0.538,-0.878,-40.96,79.93,14.62,1785098933152.568
1.001,0.494,-0.687,-54.72,92.53,30.67,1785098933165.921
0.943,0.442,-0.579,-65.43,97.54,44.56,1785098933171.624
0.921,0.383,-0.463,-68.97,97.84,58.53,1785098933181.8472
0.911,0.342,-0.389,-65.07,95.71,71.29,1785098933195.126
0.89,0.31,-0.406,-55.12,95.95,80.72,1785098933201.762
0.874,0.267,-0.439,-46.39,98.3,86.92,1785098933211.526
0.86,0.206,-0.461,-43.18,101.29,90.91,1785098933222.255
0.839,0.153,-0.452,-45.23,104.28,94.03,1785098933235.614
0.802,0.095,-0.445,-47.98,107.46,96.5,1785098933241.28
0.768,0.05,-0.432,-53.68,110.14,99.43,1785098933252.309
0.748,0.027,-0.376,-64.7,111.91,101.54,1785098933265.547
0.737,0.029,-0.332,-77.94,113.28,103.46,1785098933271.459
0.723,0.016,-0.323,-88.87,117.22,105.93,1785098933285.013
0.698,-0.016,-0.295,-97.84,122.47,107.76,1785098933290.865
0.661,-0.036,-0.239,-103.79,126.41,110.48,1785098933302.051
0.61,-0.038,-0.174,-102.76,129.89,116.73,1785098933315.3
0.581,-0.058,-0.129,-93.57,135.93,123.87,1785098933321.2942
0.628,-0.089,-0.104,-80.97,140.32,129.64,1785098933332.281
0.627,-0.118,-0.117,-69.09,141.36,133.06,1785098933345.59
0.615,-0.144,-0.13,-61.46,145.66,134.07,1785098933351.5498
0.575,-0.175,-0.15,-56.98,152.35,133.88,1785098933364.985
0.548,-0.202,-0.142,-54.87,159.79,135.81,1785098933370.898
0.559,-0.239,-0.122,-52.92,166.05,140.39,1785098933381.939
0.552,-0.251,-0.104,-50.02,171.61,145.09,1785098933395.2651
