ax,ay,az,gx,gy,gz,timestamp_ms
0.166,-0.419,0.355,-72.33,251.32,206.52,1785098978454.8792
0.11,-0.515,0.453,-75.35,255.62,210.7,1785098978455.144
0.012,-0.654,0.549,-71.72,259.04,213.48,1785098978455.369
-0.09,-0.76,0.584,-67.23,260.93,213.78,1785098978455.6028
-0.156,-0.786,0.608,-69.43,261.88,216.47,1785098978455.852
-0.23,-0.816,0.687,-72.45,261.45,220.53,1785098978456.099
-0.363,-0.844,0.749,-73.0,260.02,222.05,1785098978456.353
-0.441,-0.89,0.766,-73.31,258.67,222.08,1785098978456.584
-0.512,-0.979,0.867,-71.17,254.46,221.59,1785098978456.8179
-0.624,-1.148,0.945,-65.34,246.99,219.64,1785098978457.0552
-0.764,-1.226,0.935,-63.81,239.54,215.86,1785098978457.2842
-0.8,-1.246,0.921,-61.92,233.38,211.95,1785098978457.5203
-0.771,-1.257,0.877,-57.19,228.1,202.86,1785098978457.7588
-0.774,-1.163,0.862,-52.77,220.28,189.58,1785098978457.9893
-0.762,-1.122,0.883,-41.44,203.83,178.96,1785098978458.226
-0.71,-1.201,0.899,-18.28,185.13,163.24,1785098978458.465
-0.659,-1.278,0.865,10.5,165.26,140.75,1785098978458.698
-0.562,-1.35,0.87,33.6,144.78,120.67,1785098978458.923
-0.482,-1.446,0.955,46.21,121.22,101.05,1785098978459.1648
-0.421,-1.464,1.056,52.58,95.31,80.08,1785098978459.3853
-0.35,-1.356,1.112,51.06,68.64,60.0,1785098978459.6008
-0.266,-1.241,1.122,36.38,41.51,39.95,1785098978459.83
-0.204,-1.151,1.074,4.46,14.22,17.37,1785098978460.0461
-0.161,-1.097,1.012,-37.26,-9.77,-4.36,1785098978460.259
-0.155,-1.102,0.989,-77.15,-28.57,-21.52,1785098978460.4712
-0.174,-1.128,1.001,-106.54,-42.85,-33.54,1785098978460.6929
-0.191,-1.138,0.987,-121.49,-54.35,-40.86,1785098978460.9321
-0.196,-1.116,0.947,-125.74,-63.57,-45.23,1785098978461.15
-0.201,-1.088,0.914,-124.0,-71.57,-48.77,1785098978461.3682
-0.2,-1.069,0.858,-117.53,-78.74,-52.64,1785098978461.592
-0.198,-1.051,0.752,-106.45,-83.19,-57.31,1785098978461.822
-0.189,-1.013,0.635,-94.55,-84.48,-61.07,1785098978462.0537
-0.161,-0.976,0.539,-85.54,-82.98,-63.39,1785098978462.286
-0.155,-0.935,0.493,-81.88,-80.48,-64.55,1785098978462.524
-0.148,-0.921,0.483,-79.87,-78.83,-62.47,1785098978462.746
-0.153,-0.961,0.495,-73.95,-76.85,-58.35,1785098978462.962
-0.189,-0.998,0.512,-61.92,-74.83,-51.7,1785098978463.177
-0.182,-0.998,0.527,-46.08,-73.52,-40.86,1785098978463.396
-0.128,-0.996,0.508,-26.46,-72.45,-34.42,1785098978463.598
-0.11,-0.996,0.493,-10.07,-72.51,-36.32,1785098978463.818
-0.108,-0.998,0.477,-2.14,-73.82,-40.28,1785098978464.031
-0.11,-1.003,0.455,-0.55,-74.95,-44.22,1785098978464.292
-0.101,-1.004,0.402,-3.3,-75.87,-49.01,1785098978464.5388
-0.077,-0.994,0.369,-9.92,-75.14,-54.6,1785098978464.756
-0.06,-0.973,0.383,-17.91,-74.28,-58.29,1785098978464.972
-0.04,-0.931,0.419,-22.89,-75.26,-59.33,1785098978465.181
-0.033,-0.923,0.482,-20.54,-77.0,-60.46,1785098978465.42
-0.065,-0.939,0.528,-11.35,-80.81,-64.06,1785098978465.655
-0.082,-0.971,0.505,1.01,-85.6,-67.54,1785098978465.865
-0.06,-0.994,0.44,11.44,-88.63,-69.43,1785098978466.081
-0.004,-1.0,0.37,17.49,-88.23,-69.83,1785098978466.304
0.031,-0.96,0.358,15.99,-86.61,-69.43,1785098978466.527
0.051,-0.917,0.388,9.22,-86.12,-67.84,1785098978466.729
0.053,-0.902,0.432,1.19,-86.28,-67.32,1785098978466.94
0.04,-0.886,0.466,-7.42,-87.74,-68.18,1785098978467.154
0.033,-0.855,0.486,-15.5,-90.79,-67.81,1785098978467.356
0.059,-0.843,0.492,-20.39,-94.49,-66.84,1785098978467.562
0.104,-0.859,0.436,-20.54,-95.77,-68.3,1785098978467.77
0.159,-0.881,0.346,-19.1,-92.44,-72.02,1785098978467.9712
0.231,-0.892,0.302,-18.83,-85.88,-74.95,1785098978468.162
0.288,-0.893,0.333,-17.94,-78.62,-75.99,1785098978468.362
0.296,-0.908,0.412,-14.07,-72.88,-75.56,1785098978468.5627
0.257,-0.913,0.499,-8.55,-69.15,-74.65,1785098978468.7568
0.206,-0.896,0.586,-2.66,-68.61,-72.48,1785098978468.997
0.178,-0.876,0.599,2.96,-71.35,-70.13,1785098978469.201
0.181,-0.836,0.564,4.0,-74.62,-68.21,1785098978469.41
0.206,-0.785,0.492,-0.98,-78.13,-66.26,1785098978469.5981
0.242,-0.73,0.409,-9.7,-80.32,-63.94,1785098978469.793
0.287,-0.732,0.344,-15.63,-79.99,-61.31,1785098978469.9897
0.303,-0.772,0.279,-16.72,-77.46,-61.8,1785098978470.1838
0.302,-0.808,0.244,-14.44,-73.58,-63.78,1785098978470.383
0.294,-0.837,0.242,-10.38,-69.4,-64.67,1785098978470.592
0.277,-0.84,0.261,-6.5,-65.8,-63.91,1785098978470.7898
0.256,-0.824,0.276,-3.33,-61.98,-61.59,1785098978470.9812
0.247,-0.792,0.286,-2.41,-58.47,-58.44,1785098978471.176
0.255,-0.741,0.302,-1.43,-55.91,-54.99,1785098978471.3708
0.286,-0.746,0.287,1.62,-53.83,-50.9,1785098978471.56
0.307,-0.717,0.272,2.62,-52.1,-47.58,1785098978471.7598
0.332,-0.692,0.305,4.94,-51.45,-41.6,1785098978471.9592
0.354,-0.688,0.289,10.59,-52.13,-34.85,1785098978472.1548
0.401,-0.671,0.274,18.13,-51.97,-28.63,1785098978472.3467
0.453,-0.71,0.29,26.64,-53.29,-22.86,1785098978472.544
0.461,-0.714,0.287,30.7,-57.01,-20.63,1785098978472.737
0.467,-0.7,0.303,33.51,-60.67,-17.09,1785098978472.927
0.467,-0.697,0.297,36.93,-64.85,-11.6,1785098978473.1208
0.481,-0.679,0.288,39.19,-69.8,-5.28,1785098978473.314
0.5,-0.656,0.288,43.43,-74.16,2.11,1785098978473.507
0.481,-0.677,0.299,50.87,-77.79,8.91,1785098978473.695
0.476,-0.704,0.263,56.22,-82.19,13.92,1785098978473.887
0.511,-0.727,0.189,56.95,-85.21,18.59,1785098978474.077
0.555,-0.742,0.157,53.93,-86.83,23.77,1785098978474.2761
0.583,-0.773,0.166,50.84,-87.95,29.11,1785098978474.462
0.574,-0.822,0.178,45.69,-90.21,32.78,1785098978474.664
0.543,-0.797,0.211,34.06,-95.16,35.89,1785098978474.856
0.547,-0.761,0.249,21.55,-101.38,41.66,1785098978475.042
0.539,-0.729,0.295,11.29,-107.67,48.59,1785098978475.2551
0.545,-0.749,0.329,5.4,-115.33,55.21,1785098978475.447
0.56,-0.811,0.26,2.66,-122.81,57.07,1785098978475.6448
0.579,-0.888,0.143,0.73,-128.09,56.43,1785098978475.8333
0.596,-0.95,0.036,-1.25,-131.26,55.3,1785098978476.0269
0.601,-0.934,0.007,-3.39,-132.69,55.91,1785098978476.2703
0.618,-0.917,0.062,-0.37,-134.4,60.43,1785098978476.489
0.615,-0.924,0.188,8.36,-137.97,64.03,1785098978476.6829
0.576,-0.947,0.304,23.26,-144.69,63.78,1785098978476.885
0.507,-0.978,0.345,43.4,-152.9,62.01,1785098978477.0862
0.446,-1.035,0.305,65.1,-160.95,60.64,1785098978477.328
0.446,-1.035,0.305,79.68,-167.64,58.23,1785098978477.5369
0.419,-1.069,0.175,84.05,-169.53,56.86,1785098978477.723
0.413,-1.063,0.019,80.72,-167.21,57.56,1785098978477.907
0.412,-1.051,-0.077,71.32,-163.15,56.55,1785098978478.108
0.426,-1.035,-0.115,71.32,-163.15,56.55,1785098978478.2988
0.437,-1.02,-0.081,56.31,-158.6,52.03,1785098978478.492
0.433,-1.021,-0.002,38.39,-155.22,45.87,1785098978478.673
0.42,-1.03,0.092,22.37,-153.42,38.94,1785098978478.867
0.412,-1.058,0.163,13.4,-153.78,32.23,1785098978479.058
0.401,-1.085,0.19,12.54,-156.41,26.18,1785098978479.24
0.409,-1.097,0.128,19.17,-158.94,21.79,1785098978479.434
0.423,-1.101,-0.012,29.85,-158.18,18.62,1785098978479.642
0.428,-1.085,-0.136,38.03,-153.66,16.88,1785098978479.829
0.459,-1.106,-0.197,45.78,-146.86,18.59,1785098978480.0051
0.446,-1.046,-0.205,51.64,-139.65,8.85,1785098978480.19
0.446,-1.005,-0.167,51.85,-132.6,0.92,1785098978480.3728
0.498,-1.034,-0.078,49.56,-130.01,2.96,1785098978480.556
0.506,-1.033,0.005,49.38,-132.94,-1.83,1785098978480.73
0.437,-0.986,0.055,51.85,-133.95,-10.8,1785098978480.9138
0.426,-0.99,-0.01,52.34,-136.23,-11.08,1785098978481.0989
0.451,-0.999,-0.156,49.44,-136.91,-12.27,1785098978481.276
0.444,-0.981,-0.281,41.78,-132.57,-13.46,1785098978481.457
0.472,-0.982,-0.368,32.2,-124.39,-10.07,1785098978481.65
0.495,-0.976,-0.394,22.8,-114.2,-7.63,1785098978481.8352
0.511,-0.936,-0.348,12.85,-105.17,-9.49,1785098978482.0261
0.526,-0.875,-0.279,3.91,-99.49,-15.53,1785098978482.2102
0.536,-0.829,-0.206,-4.97,-95.28,-24.02,1785098978482.391
0.542,-0.827,-0.14,-15.14,-93.48,-30.76,1785098978482.567
0.537,-0.859,-0.102,-24.6,-93.45,-34.85,1785098978482.7478
0.524,-0.913,-0.098,-27.86,-93.14,-33.05,1785098978482.931
0.538,-0.911,-0.119,-23.22,-91.31,-33.42,1785098978483.1108
0.516,-0.833,-0.212,-18.13,-91.13,-41.11,1785098978483.288
0.495,-0.77,-0.267,-20.33,-86.43,-44.62,1785098978483.4932
0.489,-0.842,-0.293,-28.02,-80.78,-36.47,1785098978483.6748
0.529,-0.949,-0.277,-33.88,-76.24,-24.14,1785098978483.851
0.531,-0.945,-0.256,-30.92,-72.79,-23.19,1785098978484.031
0.515,-0.87,-0.26,-22.89,-68.82,-26.8,1785098978484.211
0.538,-0.813,-0.253,-17.18,-64.24,-26.98,1785098978484.3882
0.558,-0.751,-0.23,-17.46,-61.01,-27.71,1785098978484.566
0.561,-0.719,-0.211,-21.91,-59.02,-27.25,1785098978484.745
0.555,-0.743,-0.192,-27.92,-57.95,-25.7,1785098978484.9229
0.536,-0.801,-0.198,-34.03,-57.47,-26.09,1785098978485.096
0.516,-0.826,-0.21,-41.9,-57.22,-28.9,1785098978485.275
0.507,-0.817,-0.236,-49.78,-57.5,-31.13,1785098978485.4531
0.518,-0.802,-0.27,-57.65,-57.16,-30.64,1785098978485.629
0.536,-0.781,-0.282,-64.0,-55.12,-28.96,1785098978485.7979
0.548,-0.774,-0.277,-64.67,-51.88,-27.07,1785098978485.972
0.555,-0.779,-0.278,-58.47,-48.49,-25.82,1785098978486.1472
0.55,-0.768,-0.264,-48.49,-45.56,-25.57,1785098978486.313
0.541,-0.752,-0.267,-37.23,-43.89,-24.57,1785098978486.5012
0.551,-0.754,-0.28,-27.99,-42.42,-21.64,1785098978486.6738
0.552,-0.742,-0.296,-24.75,-41.17,-19.81,1785098978486.842
0.548,-0.707,-0.329,-28.26,-39.22,-19.56,1785098978487.011
0.555,-0.707,-0.348,-34.3,-36.84,-18.1,1785098978487.1821
0.553,-0.721,-0.356,-41.29,-35.4,-16.82,1785098978487.356
0.551,-0.728,-0.343,-47.46,-34.06,-14.1,1785098978487.524
0.561,-0.757,-0.341,-48.37,-32.14,-11.2,1785098978487.7031
0.558,-0.767,-0.357,-46.39,-29.6,-9.83,1785098978487.874
0.554,-0.757,-0.364,-42.24,-27.16,-7.78,1785098978488.04
0.544,-0.735,-0.385,-37.54,-24.99,-6.74,1785098978488.2441
0.538,-0.716,-0.42,-35.46,-21.76,-5.74,1785098978488.426
0.532,-0.724,-0.406,-35.4,-13.09,-4.43,1785098978488.975
0.531,-0.753,-0.371,-29.6,-11.14,-4.85,1785098978489.143
-0.86,-0.657,-0.477,20.54,-3.2,15.59,1785098978489.332
-0.925,-0.649,-0.434,21.27,-5.46,11.99,1785098978489.498
-0.98,-0.659,-0.426,23.83,-7.84,7.97,1785098978495.9119
-1.021,-0.72,-0.48,30.67,-6.81,4.21,1785098978501.48
-1.087,-0.753,-0.499,38.54,-2.56,-1.01,1785098978511.8809
-1.144,-0.761,-0.468,49.13,3.11,-4.12,1785098978522.357
-1.166,-0.769,-0.421,63.88,10.62,-6.81,1785098978532.8938
-1.171,-0.755,-0.359,80.29,16.45,-11.9,1785098978546.138
-1.154,-0.714,-0.324,97.75,19.47,-16.97,1785098978551.8232
-1.122,-0.672,-0.323,116.18,21.3,-20.66,1785098978562.6729
-1.102,-0.627,-0.343,132.3,22.43,-24.6,1785098978576.0122
-1.101,-0.581,-0.382,143.65,21.42,-26.92,1785098978581.8398
-1.102,-0.545,-0.412,148.29,19.53,-26.7,1785098978592.6763
-1.089,-0.499,-0.431,145.39,18.01,-24.84,1785098978606.002
-1.06,-0.451,-0.446,137.03,17.15,-22.61,1785098978611.736
-1.026,-0.409,-0.454,125.86,17.27,-19.75,1785098978622.6829
-0.989,-0.374,-0.429,112.16,17.46,-15.44,1785098978636.01
-0.95,-0.368,-0.401,96.8,16.97,-10.86,1785098978641.658
-0.921,-0.366,-0.354,78.8,16.05,-5.98,1785098978652.4182
-0.921,-0.366,-0.354,61.53,14.01,-0.24,1785098978662.982
-0.885,-0.4,-0.296,45.66,10.9,4.64,1785098978676.2449
-0.841,-0.452,-0.27,32.23,9.03,9.49,1785098978681.981
-0.794,-0.494,-0.265,23.62,7.93,15.63,1785098978692.3577
-0.759,-0.532,-0.236,21.18,5.1,22.77,1785098978703.1191
-0.736,-0.571,-0.205,21.18,5.1,22.77,1785098978716.327
-0.723,-0.603,-0.185,23.99,1.4,30.79,1785098978722.3098
-0.715,-0.62,-0.168,30.61,-2.5,40.25,1785098978732.4958
-0.696,-0.615,-0.19,40.13,-5.92,50.94,1785098978743.0579
-0.649,-0.582,-0.263,50.36,-6.65,62.29,1785098978756.4248
-0.591,-0.524,-0.313,57.74,-5.07,74.65,1785098978762.2202
-0.539,-0.474,-0.334,60.58,-2.9,86.76,1785098978772.489
-0.505,-0.476,-0.299,60.21,-0.21,97.14,1785098978783.036
-0.494,-0.545,-0.229,60.37,1.37,104.37,1785098978796.316
-0.51,-0.633,-0.167,63.42,1.74,108.95,1785098978802.377
-0.54,-0.68,-0.15,67.81,2.62,113.9,1785098978812.758
-0.566,-0.693,-0.176,70.65,4.21,119.82,1785098978826.196
-0.562,-0.702,-0.239,69.4,5.65,125.68,1785098978831.9448
-0.535,-0.71,-0.313,62.53,7.42,129.22,1785098978842.53
-0.491,-0.726,-0.355,53.96,11.14,131.26,1785098978853.3252
-0.449,-0.765,-0.346,48.52,15.05,131.81,1785098978866.472
-0.429,-0.834,-0.284,48.92,17.15,130.28,1785098978872.4119
-0.429,-0.924,-0.221,57.34,17.06,126.68,1785098978883.146
-0.432,-1.019,-0.201,75.23,16.69,122.62,1785098978896.4082
-0.432,-1.08,-0.212,101.05,18.62,120.37,1785098978902.577
-0.441,-1.101,-0.214,132.08,23.16,121.16,1785098978913.323
-0.473,-1.077,-0.196,161.38,27.68,123.2,1785098978926.592
-0.523,-1.004,-0.198,181.19,31.19,124.64,1785098978932.55
-0.466,-0.966,-0.217,188.12,33.85,125.28,1785098978946.1482
-0.559,-0.88,-0.229,176.95,35.71,112.49,1785098978951.899
-0.553,-0.935,-0.243,156.25,35.07,116.67,1785098978962.965
-0.521,-0.96,-0.281,139.47,39.34,116.7,1785098978976.207
-0.532,-0.938,-0.321,128.91,50.6,111.88,1785098978982.12
-0.565,-0.91,-0.351,117.47,54.57,106.14,1785098978993.1892
-0.702,-0.83,-0.293,100.25,54.6,100.31,1785098979006.521
-0.711,-0.861,-0.237,87.04,54.63,106.48,1785098979012.393
-0.639,-0.878,-0.179,74.8,54.02,106.91,1785098979023.249
-0.657,-0.801,-0.12,62.17,56.46,99.49,1785098979036.542
-0.611,-0.767,-0.108,49.65,58.99,94.94,1785098979042.969
-0.663,-0.773,-0.103,36.38,59.6,83.38,1785098979053.036
-0.695,-0.869,-0.074,29.08,54.14,76.69,1785098979066.1519
-0.667,-0.997,-0.066,36.74,52.89,72.79,1785098979072.1382
-0.677,-1.024,-0.065,55.54,54.14,67.11,1785098979082.627
-0.697,-1.011,-0.065,79.81,53.41,64.67,1785098979093.26
-0.692,-0.974,-0.07,102.85,51.94,61.89,1785098979106.591
-0.702,-0.907,-0.066,119.91,49.62,55.79,1785098979112.4602
-0.708,-0.857,-0.07,131.96,47.0,47.15,1785098979123.303
-0.72,-0.814,-0.081,137.21,44.01,36.38,1785098979136.6628
-0.725,-0.753,-0.088,135.26,39.98,25.94,1785098979142.4902
-0.712,-0.683,-0.106,128.97,35.16,16.63,1785098979153.276
-0.688,-0.637,-0.149,121.16,31.68,6.9,1785098979166.45
-0.665,-0.609,-0.184,112.92,30.88,-3.33,1785098979172.467
-0.69,-0.604,-0.216,104.68,30.79,-13.52,1785098979183.0232
-0.753,-0.619,-0.234,95.37,29.33,-19.93,1785098979196.366
-0.813,-0.634,-0.226,85.6,27.99,-21.49,1785098979202.2349
-0.861,-0.658,-0.205,78.83,27.65,-22.06,1785098979212.7
-0.901,-0.697,-0.179,76.33,28.08,-24.78,1785098979223.168
-0.916,-0.757,-0.152,78.89,28.08,-29.27,1785098979236.373
-0.919,-0.779,-0.121,85.51,27.89,-34.61,1785098979242.566
-0.884,-0.77,-0.091,96.1,27.77,-38.3,1785098979253.0452
-0.813,-0.757,-0.082,108.74,27.83,-42.02,1785098979266.237
-0.746,-0.722,-0.095,120.24,27.07,-46.48,1785098979272.2922
-0.701,-0.707,-0.145,129.03,25.06,-51.67,1785098979282.998
-0.685,-0.683,-0.192,131.6,22.98,-57.65,1785098979296.6987
-0.691,-0.64,-0.209,126.9,21.09,-63.84,1785098979302.34
-0.716,-0.616,-0.192,116.52,19.01,-69.37,1785098979313.002
-0.753,-0.608,-0.16,100.47,14.56,-74.68,1785098979326.299
-0.775,-0.613,-0.141,79.99,8.42,-80.66,1785098979332.164
-0.787,-0.649,-0.136,58.6,2.29,-87.65,1785098979342.6292
-0.817,-0.703,-0.13,39.06,-3.11,-96.16,1785098979353.154
-0.87,-0.721,-0.123,22.25,-8.3,-105.38,1785098979366.383
-0.924,-0.714,-0.123,9.13,-13.09,-113.1,1785098979372.374
-0.976,-0.676,-0.103,-2.9,-17.46,-119.33,1785098979382.8218
-1.013,-0.644,-0.062,-15.11,-21.33,-123.51,1785098979396.106
-1.038,-0.634,-0.008,-30.64,-25.88,-126.62,1785098979402.067
-1.051,-0.591,0.077,-52.61,-31.98,-128.73,1785098979412.816
-1.027,-0.647,0.095,-73.37,-39.58,-130.16,1785098979426.1228
-0.987,-0.772,0.108,-95.43,-46.94,-134.92,1785098979432.009
-0.962,-0.869,0.108,-117.68,-53.62,-142.58,1785098979442.944
-0.915,-0.98,0.045,-130.95,-57.25,-149.17,1785098979456.169
-0.878,-1.095,0.002,-139.13,-58.63,-156.13,1785098979462.0989
-0.866,-1.155,0.0,-146.61,-60.03,-163.12,1785098979472.9338
-0.842,-1.253,-0.026,-149.27,-60.58,-170.75,1785098979486.43
-0.814,-1.409,-0.034,-148.11,-58.35,-183.08,1785098979492.401
-0.815,-1.565,-0.021,-141.54,-54.81,-201.48,1785098979503.452
-0.835,-1.694,-0.06,-123.26,-48.43,-223.15,1785098979516.726
-0.858,-1.749,-0.136,-95.43,-39.19,-244.21,1785098979522.6992
-0.863,-1.746,-0.241,-65.34,-30.4,-264.23,1785098979533.3828
-0.821,-1.805,-0.343,-40.25,-23.04,-284.68,1785098979546.659
-0.8,-1.919,-0.402,-26.76,-16.51,-307.14,1785098979552.789
-0.817,-1.978,-0.412,-24.02,-11.2,-325.21,1785098979563.378
-0.802,-1.944,-0.35,-22.89,-6.07,-334.85,1785098979576.599
-0.713,-1.846,-0.266,-16.33,-3.88,-341.14,1785098979582.525
-0.575,-1.785,-0.167,-1.04,-3.23,-349.25,1785098979592.958
-0.481,-1.73,-0.093,19.5,-5.95,-359.48,1785098979606.3682
-0.384,-1.626,-0.041,41.35,-9.95,-364.64,1785098979612.176
-0.272,-1.593,0.018,66.07,-16.05,-366.86,1785098979622.7798
-0.259,-1.591,0.06,91.34,-26.83,-371.75,1785098979636.2031
-0.333,-1.466,0.053,118.11,-39.09,-372.2,1785098979642.014
-0.35,-1.273,0.087,152.71,-50.72,-362.96,1785098979653.141
-0.317,-1.148,0.108,194.98,-65.13,-353.31,1785098979666.2148
-0.299,-1.084,0.057,230.2,-83.65,-349.41,1785098979672.264
-0.286,-0.936,0.021,244.42,-101.69,-347.94,1785098979683.294
-0.283,-0.78,0.031,242.35,-119.3,-343.82,1785098979696.481
-0.268,-0.615,-0.026,228.77,-136.3,-337.69,1785098979702.6228
-0.189,-0.382,-0.019,204.57,-152.53,-326.46,1785098979716.0818
-0.057,-0.301,-0.005,182.16,-168.65,-312.54,1785098979722.1172
0.027,-0.347,0.032,162.57,-179.45,-305.37,1785098979733.328
-0.018,-0.437,0.067,150.94,-186.86,-301.61,1785098979746.571
-0.061,-0.493,0.107,151.07,-192.42,-296.67,1785098979752.665
-0.123,-0.536,0.115,167.64,-198.37,-288.37,1785098979766.122
-0.047,-0.539,-0.028,193.18,-204.41,-273.72,1785098979772.178
0.037,-0.392,-0.108,205.97,-209.6,-256.6,1785098979783.41
0.105,-0.319,-0.063,206.31,-215.52,-235.36,1785098979796.7478
0.168,-0.415,-0.136,204.9,-220.01,-222.97,1785098979802.72
0.221,-0.321,-0.177,192.18,-220.37,-215.31,1785098979816.21
0.295,-0.284,-0.128,182.87,-219.09,-198.95,1785098979822.314
0.336,-0.29,-0.095,179.27,-218.36,-184.91,1785098979833.505
0.318,-0.321,-0.025,178.2,-216.47,-174.63,1785098979846.674
0.326,-0.326,-0.086,178.11,-213.72,-165.59,1785098979853.069
0.369,-0.272,-0.101,171.0,-210.43,-152.99,1785098979866.297
0.449,-0.245,-0.217,157.48,-209.42,-142.95,1785098979872.4841
0.526,-0.201,-0.294,133.4,-205.85,-135.23,1785098979885.906
0.557,-0.198,-0.358,111.55,-201.03,-128.61,1785098979891.9749
0.572,-0.182,-0.463,91.95,-194.59,-124.45,1785098979903.216
0.575,-0.146,-0.575,73.12,-184.51,-119.24,1785098979916.3342
0.604,-0.124,-0.705,57.1,-171.39,-111.91,1785098979922.7432
0.631,-0.107,-0.859,42.24,-155.83,-103.85,1785098979933.305
0.679,-0.106,-0.983,24.69,-137.24,-93.81,1785098979946.501
0.679,-0.106,-0.983,5.74,-116.86,-84.72,1785098979952.496
0.737,-0.11,-1.086,-12.36,-93.51,-75.62,1785098979962.991
0.804,-0.099,-1.174,-32.2,-69.7,-66.07,1785098979976.267
0.854,-0.088,-1.206,-53.25,-46.54,-57.28,1785098979982.151
0.873,-0.111,-1.181,-74.74,-23.99,-49.56,1785098979992.711
0.857,-0.132,-1.171,-74.74,-23.99,-49.56,1785098980003.404
0.821,-0.127,-1.147,-100.31,-1.74,-41.72,1785098980016.63
0.803,-0.121,-1.105,-127.54,20.48,-34.46,1785098980022.608
0.777,-0.13,-1.121,-152.59,42.57,-26.95,1785098980033.647
0.736,-0.137,-1.102,-176.95,65.07,-18.89,1785098980046.669
0.698,-0.156,-1.056,-195.59,87.83,-10.1,1785098980054.131
0.641,-0.165,-1.041,-208.59,109.16,-0.85,1785098980063.1611
0.58,-0.152,-1.008,-218.39,129.83,9.95,1785098980076.538
0.522,-0.134,-0.968,-222.45,150.4,22.22,1785098980082.409
0.475,-0.103,-0.935,-222.02,169.87,35.46,1785098980093.363
0.429,-0.083,-0.892,-217.51,189.28,48.77,1785098980106.656
0.399,-0.082,-0.841,-208.78,207.98,61.92,1785098980112.564
0.373,-0.124,-0.759,-195.41,226.75,73.95,1785098980126.063
0.347,-0.164,-0.673,-181.46,243.32,85.24,1785098980131.9722
0.33,-0.2,-0.58,-170.29,256.32,95.86,1785098980142.999
0.272,-0.235,-0.488,-163.58,265.85,104.01,1785098980156.4172
0.226,-0.271,-0.435,-161.5,273.26,110.75,1785098980162.225
0.179,-0.284,-0.412,-164.68,279.31,117.47,1785098980175.836
0.15,-0.278,-0.373,-171.12,285.84,125.46,1785098980181.8408
0.141,-0.304,-0.292,-173.07,293.53,132.54,1785098980193.075
0.13,-0.37,-0.261,-172.49,301.64,137.12,1785098980206.35
0.109,-0.36,-0.217,-184.85,308.63,139.19,1785098980212.3489
0.086,-0.285,-0.149,-207.86,312.85,140.9,1785098980225.998
0.082,-0.231,-0.04,-232.28,314.0,143.56,1785098980231.946
0.076,-0.239,0.052,-245.61,315.32,146.28,1785098980243.144
0.023,-0.302,0.14,-239.42,318.28,151.83,1785098980256.371
-0.071,-0.366,0.269,-215.37,321.42,163.34,1785098980262.445
-0.186,-0.407,0.375,-175.24,324.38,181.25,1785098980275.978
-0.285,-0.377,0.401,-127.72,325.72,202.09,1785098980281.95
-0.334,-0.332,0.406,-86.4,327.37,224.49,1785098980293.142
-0.34,-0.343,0.452,-57.68,329.72,243.05,1785098980306.3582
-0.346,-0.465,0.521,-33.75,333.57,253.55,1785098980312.345
-0.374,-0.692,0.585,-13.03,338.18,258.1,1785098980323.3818
-0.489,-0.906,0.691,6.26,343.12,257.61,1785098980336.707
-0.688,-1.094,0.79,25.33,343.21,252.48,1785098980342.8018
-0.864,-1.226,0.918,31.22,339.03,245.61,1785098980356.121
-0.989,-1.388,1.086,18.34,331.25,235.88,1785098980361.9631
-1.046,-1.503,1.201,-7.02,317.97,219.98,1785098980372.7832
-0.947,-1.457,1.256,-39.0,300.0,199.01,1785098980386.079
-0.81,-1.28,1.225,-69.06,274.97,176.12,1785098980392.056
-0.656,-1.251,1.151,-89.21,242.47,151.8,1785098980403.0452
-0.561,-1.368,1.16,-97.42,208.81,123.87,1785098980416.2922
-0.512,-1.532,1.235,-83.53,181.4,97.42,1785098980422.261
-0.457,-1.735,1.361,-45.99,159.83,73.64,1785098980433.063
-0.435,-1.794,1.617,-2.87,133.52,48.22,1785098980446.34
-0.371,-1.642,1.808,25.09,97.51,25.09,1785098980452.248
-0.223,-1.443,1.84,25.24,59.36,3.27,1785098980462.6428
-0.117,-1.335,1.817,-3.02,20.54,-24.32,1785098980473.2668
-0.1,-1.336,1.795,-40.62,-16.21,-55.42,1785098980486.4858
-0.136,-1.353,1.787,-64.46,-47.7,-80.87,1785098980492.584
-0.161,-1.353,1.76,-62.2,-71.57,-96.62,1785098980502.989
-0.163,-1.314,1.752,-41.57,-89.08,-106.36,1785098980516.176
-0.16,-1.278,1.71,-13.18,-105.04,-112.77,1785098980522.345
-0.186,-1.223,1.675,12.63,-120.4,-117.68,1785098980533.1477
-0.213,-1.211,1.639,35.62,-136.6,-120.79,1785098980546.3582
-0.233,-1.224,1.58,57.07,-153.17,-124.82,1785098980552.309
-0.225,-1.238,1.46,77.36,-168.58,-129.4,1785098980563.293
-0.212,-1.201,1.367,90.7,-181.16,-133.82,1785098980576.585
-0.207,-1.139,1.322,96.16,-193.67,-136.88,1785098980582.53
-0.185,-1.103,1.304,98.45,-207.59,-139.04,1785098980596.001
-0.179,-1.119,1.236,100.34,-222.57,-143.83,1785098980602.054
-0.214,-1.081,1.191,97.42,-238.01,-149.91,1785098980613.093
-0.24,-1.043,1.192,93.05,-254.01,-152.07,1785098980627.043
-0.281,-1.019,1.16,93.84,-269.42,-154.09,1785098980632.312
-0.321,-0.983,1.088,96.59,-283.94,-155.55,1785098980643.263
-0.362,-0.92,0.979,99.34,-297.28,-155.8,1785098980656.5562
-0.306,-0.895,0.794,102.63,-307.47,-154.03,1785098980662.46
-0.241,-0.836,0.667,102.91,-311.81,-154.55,1785098980676.076
-0.173,-0.772,0.571,106.78,-312.75,-153.29,1785098980681.957
-0.09,-0.691,0.456,113.01,-312.36,-150.36,1785098980693.294
0.007,-0.596,0.43,117.37,-310.83,-145.51,1785098980706.603
0.05,-0.577,0.41,125.25,-310.56,-142.03,1785098980712.48
0.043,-0.516,0.369,128.7,-312.3,-139.13,1785098980726.1091
0.062,-0.446,0.31,126.93,-314.68,-134.13,1785098980732.127
0.093,-0.359,0.193,119.91,-316.63,-130.28,1785098980743.353
0.155,-0.296,0.054,107.3,-316.66,-127.84,1785098980756.8362
0.218,-0.279,-0.009,90.27,-313.88,-128.7,1785098980762.5688
0.234,-0.305,-0.014,77.7,-309.06,-130.56,1785098980776.0671
0.228,-0.334,-0.014,76.05,-303.29,-130.89,1785098980782.0317
0.196,-0.302,-0.041,80.84,-301.1,-129.46,1785098980793.052
0.162,-0.281,-0.098,88.66,-298.78,-126.74,1785098980806.3848
0.186,-0.23,-0.118,94.18,-294.32,-120.91,1785098980812.268
0.215,-0.153,-0.144,103.12,-291.21,-116.76,1785098980823.421
0.208,-0.123,-0.202,108.92,-288.71,-114.87,1785098980836.813
0.283,-0.086,-0.236,114.05,-284.43,-113.44,1785098980842.6208
0.274,-0.106,-0.295,120.64,-280.86,-112.4,1785098980856.3772
0.316,-0.152,-0.38,128.51,-277.05,-106.69,1785098980862.2441
0.375,-0.161,-0.498,137.3,-273.05,-100.5,1785098980873.47
0.425,-0.132,-0.63,139.59,-268.56,-96.74,1785098980886.7898
0.503,-0.115,-0.798,131.75,-262.43,-96.5,1785098980892.711
0.578,-0.115,-1.01,116.52,-251.87,-100.04,1785098980906.1492
0.633,-0.116,-1.288,98.51,-236.15,-104.34,1785098980912.031
0.684,-0.057,-1.706,78.37,-214.18,-104.34,1785098980923.541
0.714,0.15,-2.448,48.4,-186.65,-96.56,1785098980936.467
0.713,0.61,-3.272,-9.52,-143.71,-76.75,1785098980942.356
0.824,0.917,-3.247,-73.06,-76.17,-49.41,1785098980953.032
1.055,0.821,-2.669,-75.62,-1.07,-30.24,1785098980966.167
0.99,0.799,-2.16,-55.27,60.7,-15.81,1785098980972.12
0.809,0.532,-1.583,-63.42,107.46,-14.8,1785098980982.61
0.651,0.144,-1.106,-80.75,133.27,-17.24,1785098980993.3923
0.59,0.143,-0.782,-94.42,143.1,7.48,1785098981006.6948
0.67,0.263,-0.617,-91.1,138.8,40.22,1785098981012.5718
0.767,0.313,-0.545,-90.98,136.17,61.04,1785098981023.267
0.813,0.275,-0.486,-92.65,141.85,71.2,1785098981036.78
0.86,0.218,-0.481,-94.85,145.91,77.33,1785098981042.4968
0.839,0.164,-0.506,-99.55,148.01,82.43,1785098981053.3179
0.824,0.09,-0.497,-99.7,151.07,85.94,1785098981066.46
0.845,0.033,-0.501,-96.74,151.95,88.87,1785098981072.52
0.827,0.015,-0.484,-93.26,152.53,92.44,1785098981083.2332
0.828,-0.008,-0.428,-86.52,154.15,97.99,1785098981096.4492
0.835,-0.036,-0.427,-76.57,156.87,101.57,1785098981102.56
0.809,-0.036,-0.443,-73.03,160.89,103.34,1785098981113.355
0.794,-0.052,-0.395,-76.48,165.53,104.1,1785098981126.6292
0.756,-0.082,-0.348,-80.17,170.9,103.06,1785098981132.547
0.715,-0.105,-0.309,-83.04,176.55,102.82,1785098981146.083
0.673,-0.13,-0.265,-82.92,182.78,103.24,1785098981151.8918
0.629,-0.137,-0.217,-82.89,189.03,103.67,1785098981162.972
0.605,-0.156,-0.187,-85.27,193.73,104.65,1785098981176.157
0.573,-0.173,-0.153,-89.66,197.7,105.81,1785098981182.15
0.545,-0.201,-0.103,-93.3,201.33,108.19,1785098981193.364
0.52,-0.235,-0.027,-92.29,205.24,110.72,1785098981206.4167
0.484,-0.245,-0.014,-84.84,208.78,116.0,1785098981212.3462
0.489,-0.266,-0.017,-78.59,214.24,120.82,1785098981223.423
0.47,-0.256,0.003,-80.51,219.03,121.95,1785098981236.7627
0.47,-0.256,0.003,-87.16,222.57,123.17,1785098981242.713
0.432,-0.271,0.018,-96.32,226.08,122.32,1785098981256.2717
0.391,-0.295,0.035,-106.48,229.83,123.17,1785098981262.6418
0.328,-0.306,0.051,-114.32,233.95,129.58,1785098981273.325
0.275,-0.298,0.075,-115.76,237.53,139.16,1785098981286.509
0.248,-0.296,0.129,-115.76,237.53,139.16,1785098981292.491
0.212,-0.289,0.145,-109.53,240.85,146.89,1785098981306.077
0.178,-0.291,0.101,-98.82,245.28,155.13,1785098981311.9932
0.153,-0.308,0.087,-92.84,251.32,162.76,1785098981323.1309
0.107,-0.322,0.1,-94.12,258.25,169.65,1785098981336.3591
0.051,-0.342,0.179,-97.05,265.18,179.14,1785098981342.3848
-0.01,-0.419,0.282,-90.55,272.04,189.55,1785098981353.3372
-0.12,-0.523,0.408,-74.01,278.66,198.89,1785098981366.602
-0.257,-0.608,0.499,-55.85,281.62,204.47,1785098981372.565
-0.351,-0.606,0.491,-44.65,282.39,209.72,1785098981386.029
-0.375,-0.622,0.473,-43.37,281.93,220.83,1785098981392.0078
-0.421,-0.67,0.503,-50.84,282.54,229.1,1785098981402.9893
-0.529,-0.821,0.566,-58.32,284.49,231.36,1785098981416.2502
-0.73,-1.006,0.679,-58.38,284.13,226.6,1785098981422.375
-0.829,-1.22,0.819,-51.52,282.24,226.72,1785098981433.3032
-0.882,-1.263,0.927,-43.92,274.88,222.27,1785098981446.454
-0.974,-1.203,0.954,-47.94,265.02,218.97,1785098981452.4631
-0.898,-1.016,0.918,-64.97,253.24,218.51,1785098981463.411
-0.724,-0.987,0.929,-70.13,235.42,206.43,1785098981476.5251
-0.625,-1.081,0.957,-71.69,213.17,179.66,1785098981482.7258
-0.542,-1.187,0.958,-71.78,193.09,157.29,1785098981495.8
-0.485,-1.305,0.992,-55.42,174.29,140.81,1785098981502.076
-0.477,-1.481,1.061,-22.58,155.28,126.32,1785098981513.101
-0.498,-1.609,1.195,13.06,133.18,112.95,1785098981526.3848
-0.477,-1.576,1.3,46.78,108.4,96.13,1785098981532.4531
-0.389,-1.365,1.298,69.22,85.21,73.52,1785098981543.0022
-0.263,-1.194,1.243,66.56,61.92,46.97,1785098981556.4412
-0.183,-1.163,1.214,35.22,38.42,18.89,1785098981562.51
-0.203,-1.191,1.278,-13.09,16.08,-5.83,1785098981572.713
-0.188,-1.309,1.397,-54.2,-4.76,-19.59,1785098981583.261
-0.188,-1.354,1.46,-73.52,-24.45,-34.24,1785098981596.4182
-0.237,-1.324,1.41,-77.36,-40.35,-45.17,1785098981603.054
-0.313,-1.359,1.473,-78.37,-53.19,-46.33,1785098981612.8691
-0.296,-1.464,1.444,-64.64,-66.62,-44.07,1785098981626.1692
-0.26,-1.409,1.389,-36.84,-76.85,-51.18,1785098981632.0598
-0.277,-1.337,1.336,-7.69,-86.55,-63.36,1785098981642.5413
-0.301,-1.369,1.261,12.97,-96.74,-72.54,1785098981653.271
-0.229,-1.398,1.218,28.14,-107.36,-81.7,1785098981666.398
-0.323,-1.326,1.214,38.0,-121.28,-99.7,1785098981672.414
-0.296,-1.371,1.263,46.6,-133.61,-101.5,1785098981683.237
-0.343,-1.35,1.213,59.3,-149.24,-112.28,1785098981696.458
-0.344,-1.303,1.171,67.26,-162.79,-122.44,1785098981702.593
-0.362,-1.245,1.138,68.24,-179.78,-138.58,1785098981713.4788
-0.392,-1.252,1.118,67.23,-196.42,-154.36,1785098981726.7148
-0.384,-1.258,1.049,68.67,-211.65,-169.32,1785098981732.68
-0.457,-1.202,0.957,66.23,-224.98,-182.23,1785098981746.103
-0.499,-1.323,0.973,61.83,-231.82,-164.19,1785098981752.1401
-0.387,-1.365,1.017,75.38,-236.34,-146.73,1785098981763.146
-0.403,-1.162,0.954,100.1,-246.53,-158.94,1785098981776.4092
-0.366,-1.053,0.904,109.87,-256.75,-164.83,1785098981782.36
-0.349,-0.98,0.87,105.29,-269.97,-168.86,1785098981795.901
-0.311,-0.99,0.808,100.34,-279.64,-167.88,1785098981801.941
-0.253,-0.929,0.671,96.59,-285.26,-168.83,1785098981813.118
-0.135,-0.833,0.581,88.81,-287.64,-171.3,1785098981826.3372
-0.053,-0.766,0.542,75.69,-289.35,-172.98,1785098981832.237
0.019,-0.696,0.491,64.7,-289.77,-172.8,1785098981843.301
0.103,-0.638,0.496,60.49,-287.15,-169.84,1785098981856.621
0.13,-0.639,0.508,65.1,-286.14,-161.9,1785098981862.5059
0.134,-0.583,0.424,77.7,-285.1,-150.49,1785098981876.126
0.207,-0.465,0.335,93.02,-281.53,-139.71,1785098981881.976
0.245,-0.343,0.217,103.52,-282.14,-133.21,1785098981893.082
0.298,-0.253,0.148,104.86,-281.23,-126.29,1785098981906.341
0.328,-0.24,0.107,105.41,-279.0,-123.17,1785098981912.337
0.299,-0.263,0.072,108.22,-275.77,-123.84,1785098981925.881
0.275,-0.266,0.036,111.45,-270.88,-122.1,1785098981931.9119
0.284,-0.251,-0.002,114.32,-264.9,-116.82,1785098981943.1118
0.297,-0.232,-0.024,114.23,-258.58,-110.2,1785098981956.461
0.301,-0.211,-0.084,111.09,-253.21,-103.52,1785098981962.348
0.328,-0.162,-0.153,102.51,-247.75,-97.11,1785098981975.94
0.383,-0.11,-0.189,88.78,-241.49,-92.72,1785098981981.8562
0.432,-0.117,-0.211,76.69,-235.11,-92.04,1785098981992.7412
0.459,-0.146,-0.226,69.8,-228.34,-93.75,1785098982003.582
0.476,-0.156,-0.257,66.87,-220.92,-93.6,1785098982016.705
0.489,-0.144,-0.291,65.95,-213.32,-90.95,1785098982022.822
0.51,-0.126,-0.342,65.89,-206.15,-87.53,1785098982033.4348
0.548,-0.119,-0.387,62.81,-198.19,-85.63,1785098982046.6199
0.593,-0.134,-0.422,56.55,-189.95,-84.72,1785098982052.8691
0.63,-0.149,-0.459,51.12,-181.22,-84.78,1785098982063.3818
0.674,-0.148,-0.504,45.66,-171.7,-85.02,1785098982076.8098
0.695,-0.106,-0.557,38.3,-163.64,-84.6,1785098982082.2048
0.73,-0.067,-0.66,31.19,-155.77,-83.77,1785098982093.3508
0.755,-0.047,-0.751,22.52,-146.37,-84.29,1785098982106.619
0.766,-0.035,-0.843,16.08,-135.35,-84.17,1785098982112.5278
0.803,-0.008,-0.946,13.12,-121.65,-81.15,1785098982123.3162
0.84,0.055,-1.018,8.67,-106.33,-76.72,1785098982136.7458
0.89,0.128,-1.104,2.38,-89.91,-72.18,1785098982142.584
0.94,0.21,-1.187,-10.8,-72.33,-69.12,1785098982153.11
0.961,0.295,-1.231,-33.33,-55.06,-66.62,1785098982166.129
0.974,0.344,-1.267,-54.99,-35.46,-62.62,1785098982172.344
0.973,0.375,-1.259,-70.13,-13.61,-56.12,1785098982182.6838
0.941,0.411,-1.261,-74.4,10.07,-45.72,1785098982193.2769
0.924,0.471,-1.243,-74.34,34.27,-30.61,1785098982206.552
0.93,0.503,-1.185,-75.38,57.47,-15.05,1785098982212.451
0.925,0.49,-1.116,-76.85,79.9,-2.62,1785098982222.86
0.886,0.454,-1.037,-82.06,100.89,6.41,1785098982236.1929
0.839,0.403,-0.962,-91.46,119.63,14.56,1785098982242.392
0.79,0.365,-0.885,-102.63,136.97,22.71,1785098982252.883
0.742,0.326,-0.813,-112.13,152.13,31.71,1785098982266.0771
0.675,0.298,-0.726,-119.69,165.84,42.18,1785098982272.099
0.624,0.266,-0.629,-121.95,177.16,55.48,1785098982283.0999
0.597,0.22,-0.584,-118.05,187.23,69.83,1785098982296.305
0.569,0.213,-0.517,-113.28,196.48,83.35,1785098982302.277
0.546,0.19,-0.448,-106.91,205.39,95.28,1785098982313.323
0.524,0.175,-0.37,-102.36,213.81,103.79,1785098982326.551
0.501,0.154,-0.304,-97.87,221.59,110.23,1785098982332.515
0.472,0.119,-0.218,-93.69,228.46,115.97,1785098982346.08
0.432,0.063,-0.048,-88.29,232.09,121.13,1785098982352.031
0.355,-0.02,0.051,-74.62,233.83,125.1,1785098982363.127
0.311,-0.031,0.061,-59.88,236.88,130.62,1785098982376.2961
0.393,-0.017,0.083,-52.52,240.64,137.55,1785098982382.184
0.48,-0.037,0.117,-53.71,244.15,137.24,1785098982393.2722
0.501,-0.082,0.138,-61.34,246.22,133.0,1785098982406.525
0.474,-0.145,0.144,-71.35,247.08,131.69,1785098982412.447
0.455,-0.177,0.128,-82.49,246.86,136.3,1785098982425.986
0.454,-0.171,0.108,-95.25,244.64,145.48,1785098982431.9019
0.448,-0.166,0.125,-107.64,241.89,157.11,1785098982443.1182
0.394,-0.199,0.195,-112.83,241.43,168.65,1785098982456.2869
0.281,-0.246,0.256,-107.94,242.16,177.68,1785098982462.2231
0.156,-0.263,0.327,-97.93,242.62,184.82,1785098982473.353
0.043,-0.242,0.373,-89.42,241.86,191.26,1785098982486.6008
-0.009,-0.214,0.383,-84.87,241.71,198.1,1785098982492.6208
-0.082,-0.257,0.423,-83.65,244.79,207.4,1785098982506.139
-0.118,-0.311,0.487,-81.94,251.75,209.3,1785098982512.0269
-0.09,-0.443,0.588,-76.75,254.71,209.57,1785098982523.0432
-0.09,-0.443,0.588,-64.73,254.04,216.47,1785098982536.4192
-0.128,-0.633,0.738,-44.8,246.96,221.41,1785098982542.282
-0.181,-0.798,0.816,-29.51,239.14,228.34,1785098982553.401
-0.232,-0.908,0.83,-28.17,231.64,237.01,1785098982566.466
-0.299,-0.932,0.926,-28.17,231.64,237.01,1785098982572.5088
-0.365,-1.028,1.082,-31.68,223.73,237.31,1785098982586.1099
-0.478,-1.221,1.171,-28.35,213.97,224.22,1785098982591.9712
-0.588,-1.255,1.129,-24.54,201.91,200.66,1785098982603.136
-0.552,-1.164,0.999,-31.5,196.08,186.22,1785098982616.141
-0.411,-1.123,0.959,-47.06,193.12,178.66,1785098982622.179
-0.385,-1.134,1.001,-57.62,183.6,165.81,1785098982633.138
-0.417,-1.18,1.04,-51.7,170.45,152.9,1785098982646.3418
-0.445,-1.179,1.051,-34.82,160.56,136.57,1785098982652.4658
-0.476,-1.168,1.057,-21.52,153.6,126.71,1785098982663.32
-0.318,-1.225,1.149,-13.73,143.53,129.34,1785098982676.586
-0.169,-1.231,1.202,-1.34,126.59,113.86,1785098982682.82
-0.174,-1.195,1.197,11.14,110.69,89.97,1785098982693.4521
-0.179,-1.154,1.193,18.19,98.24,74.16,1785098982706.677
-0.166,-1.09,1.194,20.36,85.45,63.3,1785098982712.547
-0.093,-1.084,1.271,23.74,73.55,55.97,1785098982723.1072
-0.018,-1.185,1.441,32.53,58.44,45.53,1785098982736.435
-0.001,-1.308,1.713,49.26,38.58,26.58,1785098982742.3142
-0.037,-1.491,1.949,80.51,12.39,6.23,1785098982752.8708
-0.052,-1.742,1.934,135.01,-5.4,-12.18,1785098982763.319
-0.183,-1.775,1.653,206.55,-9.64,-38.03,1785098982776.568
-0.332,-1.491,1.269,270.52,-9.92,-60.61,1785098982782.495
-0.393,-1.051,0.908,296.46,-15.66,-75.56,1785098982793.142
-0.359,-0.561,0.715,266.15,-25.85,-76.33,1785098982806.4521
-0.297,-0.273,0.754,197.45,-39.61,-60.98,1785098982812.331
-0.298,-0.282,0.887,120.98,-53.04,-43.03,1785098982823.136
-0.277,-0.383,1.066,54.51,-67.72,-33.54,1785098982836.477
-0.186,-0.446,1.284,6.59,-86.83,-34.76,1785098982842.381
-0.083,-0.563,1.54,-20.54,-105.96,-35.43,1785098982852.958
-0.047,-0.726,1.778,-26.98,-123.6,-35.37,1785098982866.043
-0.082,-0.841,1.897,-17.73,-142.52,-41.29,1785098982872.2031
-0.116,-0.907,1.91,-2.32,-161.35,-49.93,1785098982882.678
-0.124,-0.89,1.821,11.54,-178.99,-59.79,1785098982893.326
-0.116,-0.796,1.655,18.68,-194.22,-69.55,1785098982906.71
-0.098,-0.734,1.497,20.2,-204.63,-72.51,1785098982912.689
-0.071,-0.74,1.402,23.9,-208.66,-67.23,1785098982923.402
-0.076,-0.734,1.309,32.29,-212.23,-66.07,1785098982936.755
-0.071,-0.665,1.24,35.04,-220.28,-70.41,1785098982942.7158
-0.049,-0.619,1.188,32.11,-229.83,-77.7,1785098982953.4358
-0.063,-0.617,1.128,27.77,-237.59,-84.81,1785098982966.5679
-0.073,-0.628,1.115,27.04,-242.29,-84.02,1785098982972.6392
-0.063,-0.688,1.114,38.61,-243.2,-76.54,1785098982983.331
-0.105,-0.688,1.048,56.37,-245.22,-73.55,1785098982996.68
-0.074,-0.609,0.969,64.97,-250.43,-68.97,1785098983002.7212
-0.007,-0.537,0.873,64.55,-255.56,-63.48,1785098983013.255
0.058,-0.491,0.817,58.96,-259.38,-58.99,1785098983026.5757
0.12,-0.492,0.76,54.05,-263.16,-56.58,1785098983032.4668
0.146,-0.469,0.715,48.71,-266.12,-55.76,1785098983043.2651
0.21,-0.441,0.753,44.47,-269.63,-53.47,1785098983056.56
0.228,-0.441,0.74,44.28,-275.19,-54.23,1785098983062.435
0.22,-0.409,0.683,44.37,-278.7,-54.78,1785098983073.249
0.248,-0.385,0.612,47.91,-280.89,-53.99,1785098983086.524
0.271,-0.351,0.433,52.43,-280.86,-56.09,1785098983092.46
0.321,-0.257,0.267,47.76,-277.14,-58.75,1785098983103.346
0.39,-0.18,0.173,36.04,-272.77,-59.94,1785098983116.5317
0.424,-0.187,0.149,25.33,-267.83,-61.53,1785098983122.489
0.406,-0.235,0.123,17.43,-262.28,-63.48,1785098983133.139
0.388,-0.249,0.127,11.69,-255.56,-64.18,1785098983146.434
0.432,-0.267,0.13,13.18,-246.68,-63.81,1785098983152.488
0.449,-0.258,0.083,16.6,-240.58,-66.93,1785098983163.12
0.451,-0.226,0.05,17.4,-235.57,-69.89,1785098983176.4832
0.469,-0.227,0.011,16.69,-230.29,-72.48,1785098983182.3208
0.488,-0.202,-0.01,13.34,-224.34,-76.94,1785098983193.087
0.519,-0.194,-0.014,10.62,-218.82,-79.41,1785098983206.511
0.532,-0.181,-0.031,9.89,-214.06,-82.31,1785098983212.249
0.548,-0.174,-0.041,11.05,-209.51,-84.99,1785098983222.999
0.545,-0.177,-0.041,11.35,-207.16,-88.53,1785098983236.4402
0.537,-0.158,-0.02,9.28,-206.64,-93.11,1785098983242.249
0.546,-0.165,0.016,9.06,-206.15,-98.3,1785098983252.796
0.528,-0.183,0.034,13.43,-206.43,-105.11,1785098983266.0151
0.511,-0.173,0.04,23.96,-203.22,-110.84,1785098983272.1
0.532,-0.16,0.008,39.06,-199.22,-114.57,1785098983283.0232
0.569,-0.163,-0.092,54.96,-195.47,-116.95,1785098983296.313
0.604,-0.138,-0.195,64.64,-192.24,-115.39,1785098983302.355
0.631,-0.114,-0.313,67.32,-190.4,-109.53,1785098983313.2449
0.628,-0.054,-0.441,63.66,-188.12,-103.73,1785098983326.4902
0.626,0.055,-0.565,55.94,-184.12,-97.11,1785098983332.374
0.648,0.13,-0.713,49.07,-176.34,-91.77,1785098983343.007
0.673,0.184,-0.859,40.68,-164.95,-89.94,1785098983356.628
0.698,0.245,-1.006,31.71,-152.04,-89.57,1785098983362.428
0.717,0.304,-1.176,22.1,-136.57,-88.9,1785098983373.254
0.741,0.369,-1.346,8.0,-118.2,-88.11,1785098983386.4949
0.763,0.452,-1.476,-13.0,-96.93,-87.07,1785098983392.3972
