ax,ay,az,gx,gy,gz,timestamp_ms
0.573,-0.507,0.084,70.01,-162.88,-113.99,1785099182443.584
0.599,-0.49,0.062,71.5,-161.69,-110.2,1785099182443.9812
0.601,-0.476,0.013,70.35,-160.8,-109.07,1785099182444.31
0.601,-0.43,-0.03,64.49,-159.49,-109.07,1785099182444.622
0.627,-0.388,-0.047,55.76,-157.6,-108.52,1785099182444.943
0.649,-0.369,-0.074,44.89,-155.71,-109.96,1785099182445.265
0.668,-0.374,-0.113,32.62,-153.02,-112.7,1785099182445.579
0.678,-0.374,-0.136,19.38,-149.94,-115.6,1785099182445.896
0.683,-0.362,-0.134,8.36,-146.4,-116.61,1785099182446.2012
0.674,-0.346,-0.136,2.84,-142.58,-115.57,1785099182446.502
0.673,-0.313,-0.142,2.04,-139.29,-113.44,1785099182446.808
0.668,-0.28,-0.143,4.61,-136.02,-110.9,1785099182447.1199
0.667,-0.246,-0.141,9.4,-133.06,-107.79,1785099182447.4138
0.659,-0.212,-0.151,14.89,-130.77,-104.89,1785099182447.714
0.656,-0.179,-0.157,19.53,-128.42,-101.96,1785099182448.0178
0.669,-0.164,-0.177,23.87,-125.58,-99.09,1785099182448.3188
0.688,-0.165,-0.201,28.26,-122.29,-96.5,1785099182448.607
0.716,-0.162,-0.229,32.32,-119.24,-94.27,1785099182448.905
0.74,-0.163,-0.266,35.4,-116.58,-91.22,1785099182449.227
0.752,-0.151,-0.296,36.53,-114.17,-87.92,1785099182449.5208
0.756,-0.145,-0.31,37.26,-111.91,-84.72,1785099182449.81
0.761,-0.144,-0.329,37.81,-109.99,-81.97,1785099182450.1062
0.765,-0.138,-0.347,38.58,-107.91,-79.29,1785099182450.4011
0.779,-0.136,-0.369,40.25,-105.69,-76.91,1785099182450.697
0.796,-0.133,-0.397,41.02,-103.15,-75.14,1785099182450.984
0.81,-0.132,-0.424,39.74,-100.65,-74.56,1785099182451.284
0.821,-0.141,-0.446,37.02,-97.96,-74.95,1785099182451.5789
0.828,-0.151,-0.467,33.94,-95.16,-75.2,1785099182451.8481
0.834,-0.15,-0.471,30.98,-92.75,-75.26,1785099182452.1038
0.837,-0.143,-0.475,29.48,-90.79,-75.87,1785099182452.3708
0.849,-0.128,-0.491,29.57,-87.74,-75.72,1785099182452.627
0.877,-0.115,-0.506,31.74,-84.29,-74.43,1785099182452.8809
0.884,-0.089,-0.545,34.76,-82.22,-74.56,1785099182453.148
0.911,-0.076,-0.593,37.54,-79.71,-74.5,1785099182453.513
0.93,-0.075,-0.634,38.76,-77.7,-75.01,1785099182453.815
0.908,-0.056,-0.678,37.35,-76.66,-75.35,1785099182454.071
0.885,-0.026,-0.71,33.78,-74.71,-73.4,1785099182454.3418
0.86,0.002,-0.734,28.78,-71.6,-71.35,1785099182454.607
0.842,0.056,-0.772,22.1,-67.02,-70.13,1785099182454.867
0.84,0.125,-0.797,16.57,-60.21,-68.61,1785099182455.127
0.816,0.185,-0.825,14.28,-52.58,-67.38,1785099182455.3972
0.804,0.246,-0.862,13.43,-42.94,-65.07,1785099182455.6748
0.815,0.299,-0.877,12.09,-32.29,-59.76,1785099182455.948
0.816,0.328,-0.899,10.8,-22.49,-52.83,1785099182456.259
0.825,0.34,-0.896,9.13,-12.76,-44.1,1785099182456.575
0.822,0.344,-0.879,7.63,-5.07,-33.57,1785099182456.832
0.826,0.355,-0.823,5.25,5.52,-24.11,1785099182457.0872
0.84,0.337,-0.754,0.89,14.83,-15.11,1785099182457.385
0.835,0.297,-0.668,-6.01,20.08,-6.1,1785099182457.667
0.832,0.273,-0.585,-16.24,24.29,2.53,1785099182457.917
0.83,0.25,-0.52,-25.57,27.86,10.74,1785099182458.1912
0.846,0.192,-0.458,-28.9,29.69,16.21,1785099182458.449
0.835,0.146,-0.422,-28.84,28.57,18.92,1785099182458.7048
0.829,0.123,-0.402,-27.8,27.8,23.16,1785099182458.962
0.839,0.099,-0.376,-25.42,27.77,28.23,1785099182459.221
0.843,0.067,-0.354,-21.12,26.12,31.65,1785099182459.49
0.839,0.046,-0.345,-16.39,23.29,32.96,1785099182459.731
0.849,0.029,-0.343,-13.0,21.24,32.93,1785099182459.97
0.86,0.003,-0.336,-11.32,19.96,31.28,1785099182460.211
0.867,-0.027,-0.336,-10.41,18.68,28.5,1785099182460.469
0.879,-0.048,-0.347,-9.61,17.37,25.73,1785099182460.6987
0.895,-0.061,-0.356,-9.98,15.66,23.44,1785099182460.9438
0.902,-0.077,-0.36,-12.05,13.31,21.64,1785099182461.188
0.899,-0.086,-0.366,-14.53,11.02,19.96,1785099182461.417
0.891,-0.082,-0.375,-15.99,9.8,18.52,1785099182461.6648
0.882,-0.067,-0.381,-16.02,9.46,17.58,1785099182461.923
0.871,-0.043,-0.379,-15.41,9.55,16.54,1785099182462.1638
0.853,-0.032,-0.366,-13.73,10.77,14.71,1785099182462.402
0.838,-0.031,-0.376,-9.4,13.21,12.09,1785099182462.6428
0.856,-0.013,-0.398,-4.46,16.21,10.22,1785099182462.9
0.889,-0.004,-0.398,-1.04,18.83,9.67,1785099182463.1309
0.898,-0.012,-0.389,0.73,19.96,8.73,1785099182463.368
0.887,-0.015,-0.389,1.22,20.51,7.57,1785099182463.625
0.866,-0.012,-0.378,0.12,21.06,7.63,1785099182463.867
0.845,0.0,-0.373,-1.28,21.82,8.94,1785099182464.092
0.831,0.022,-0.368,-2.35,23.07,11.14,1785099182464.34
0.816,0.04,-0.365,-2.11,25.7,13.12,1785099182464.5781
0.796,0.055,-0.374,-0.92,29.54,14.28,1785099182464.8052
0.794,0.063,-0.389,0.12,35.04,15.02,1785099182465.048
0.814,0.06,-0.371,0.24,41.11,15.63,1785099182465.302
0.82,0.055,-0.333,0.15,45.11,17.76,1785099182465.5308
0.801,0.051,-0.301,0.43,47.12,21.24,1785099182465.7449
0.779,0.051,-0.275,0.73,48.37,25.15,1785099182465.972
0.775,0.052,-0.251,0.61,49.9,29.51,1785099182466.1938
0.775,0.055,-0.226,-0.43,51.79,33.97,1785099182466.408
0.765,0.052,-0.21,-2.32,53.96,38.24,1785099182466.6309
0.757,0.039,-0.22,-4.36,57.22,41.78,1785099182466.8523
0.768,0.017,-0.23,-7.66,62.17,43.98,1785099182467.0698
0.795,-0.001,-0.203,-11.93,66.84,46.11,1785099182467.288
0.799,-0.012,-0.166,-15.44,68.94,49.65,1785099182467.511
0.799,-0.012,-0.166,-16.24,69.55,54.69,1785099182467.7373
0.797,-0.018,-0.141,-15.2,69.7,60.4,1785099182467.9739
0.807,-0.023,-0.115,-13.67,69.86,65.28,1785099182468.271
0.804,-0.029,-0.09,-11.63,70.89,69.83,1785099182468.521
0.789,-0.038,-0.073,-11.63,70.89,69.83,1785099182468.7449
0.782,-0.052,-0.068,-9.64,73.4,74.53,1785099182468.968
0.796,-0.09,-0.076,-8.06,77.03,79.07,1785099182469.2212
0.818,-0.147,-0.075,-6.96,80.81,82.16,1785099182469.471
0.839,-0.188,-0.051,-6.32,82.74,85.54,1785099182469.697
0.874,-0.224,-0.026,-4.27,81.76,91.07,1785099182469.919
0.896,-0.247,0.0,-1.46,78.98,96.35,1785099182470.1482
0.91,-0.254,0.038,3.51,75.99,101.11,1785099182470.378
0.918,-0.272,0.072,12.45,73.49,105.84,1785099182470.597
0.904,-0.28,0.092,24.23,71.17,110.57,1785099182470.825
0.876,-0.271,0.116,36.38,69.09,116.09,1785099182471.051
0.874,-0.287,0.131,49.56,68.09,121.4,1785099182471.278
0.894,-0.34,0.119,62.99,66.71,124.94,1785099182471.4858
0.91,-0.402,0.113,72.33,63.42,126.22,1785099182471.699
0.917,-0.433,0.102,77.79,58.72,126.68,1785099182471.9072
0.931,-0.45,0.113,80.87,53.68,129.03,1785099182472.118
0.943,-0.47,0.131,86.09,49.17,132.69,1785099182472.338
0.944,-0.493,0.127,93.6,45.44,136.17,1785099182472.5493
0.923,-0.506,0.154,101.14,42.63,138.89,1785099182472.763
0.896,-0.546,0.181,109.13,40.5,142.09,1785099182472.972
0.874,-0.587,0.191,115.6,37.51,144.87,1785099182473.185
0.86,-0.611,0.193,118.11,33.17,147.89,1785099182473.397
0.844,-0.633,0.198,117.25,27.89,151.77,1785099182473.611
0.842,-0.647,0.21,114.38,21.27,154.94,1785099182473.821
0.86,-0.69,0.221,110.51,13.49,156.93,1785099182474.034
0.863,-0.734,0.202,105.9,4.39,155.16,1785099182474.2441
0.845,-0.761,0.19,102.57,-5.1,152.53,1785099182474.455
0.833,-0.806,0.192,100.99,-14.74,150.36,1785099182474.6702
0.806,-0.834,0.173,99.83,-24.35,148.9,1785099182474.883
0.796,-0.897,0.12,95.13,-34.27,148.72,1785099182475.101
0.778,-0.952,0.07,85.85,-43.61,145.05,1785099182475.3123
0.758,-0.971,0.021,73.12,-52.34,140.05,1785099182475.5198
0.745,-0.971,-0.035,57.92,-59.39,136.33,1785099182475.731
0.726,-0.996,-0.065,41.51,-64.73,132.69,1785099182475.9429
0.698,-1.019,-0.085,25.12,-69.55,126.8,1785099182476.159
0.663,-0.998,-0.111,8.91,-73.18,120.15,1785099182476.362
0.652,-0.999,-0.111,-5.16,-74.89,115.33,1785099182476.5718
0.646,-1.021,-0.114,-14.22,-75.59,109.9,1785099182476.789
0.634,-1.052,-0.133,-17.7,-76.05,103.06,1785099182476.996
0.61,-1.052,-0.135,-16.05,-75.87,96.41,1785099182477.206
0.608,-1.067,-0.132,-8.61,-73.95,92.1,1785099182477.417
0.609,-1.092,-0.158,0.43,-70.93,86.37,1785099182477.6267
0.598,-1.085,-0.142,6.16,-67.38,79.26,1785099182477.8298
0.588,-1.064,-0.083,11.78,-64.39,72.39,1785099182478.0413
0.567,-1.041,-0.033,19.41,-61.95,67.72,1785099182478.2551
0.563,-1.038,-0.016,28.32,-59.48,65.37,1785099182478.462
0.559,-1.004,0.004,36.47,-57.5,62.81,1785099182478.673
0.557,-0.954,0.041,45.41,-56.4,61.13,1785099182478.882
0.565,-0.955,0.063,56.61,-55.39,59.63,1785099182479.095
0.549,-0.984,0.062,65.13,-54.63,58.14,1785099182479.298
0.566,-1.04,0.058,70.89,-53.1,57.86,1785099182479.494
0.549,-1.033,0.042,76.11,-51.67,49.62,1785099182479.698
0.503,-0.969,0.029,79.2,-48.92,42.51,1785099182479.923
0.496,-0.936,0.026,79.59,-45.78,44.59,1785099182480.1382
0.515,-0.916,0.014,78.16,-42.76,48.46,1785099182480.3672
0.528,-0.897,0.004,76.72,-38.24,49.44,1785099182480.5708
0.522,-0.896,-0.002,74.86,-32.93,48.25,1785099182480.788
0.504,-0.902,-0.012,69.86,-27.74,44.74,1785099182481.004
0.483,-0.891,-0.015,59.24,-23.32,40.31,1785099182481.206
0.471,-0.89,-0.015,44.71,-18.49,37.54,1785099182481.4092
0.464,-0.89,0.012,27.77,-14.34,36.44,1785099182481.603
0.473,-0.9,0.047,11.9,-10.9,36.1,1785099182481.8098
0.48,-0.919,0.085,-0.55,-8.03,33.85,1785099182482.004
0.481,-0.946,0.119,-7.54,-5.83,29.73,1785099182482.2002
0.466,-0.977,0.133,-9.61,-4.18,25.48,1785099182482.412
0.453,-0.987,0.155,-10.19,-3.39,23.1,1785099182482.614
0.46,-0.996,0.159,-7.66,-3.08,22.0,1785099182482.811
0.47,-1.016,0.149,-2.2,-2.41,21.06,1785099182483.003
0.465,-1.025,0.137,3.6,-2.14,20.17,1785099182483.199
0.463,-1.02,0.118,8.58,-2.35,19.2,1785099182483.392
0.458,-1.006,0.103,11.75,-2.38,18.37,1785099182483.5862
0.454,-0.982,0.101,12.36,-2.56,17.06,1785099182483.779
0.452,-0.966,0.104,11.14,-3.36,15.08,1785099182483.9712
0.449,-0.951,0.11,7.78,-4.43,13.06,1785099182484.164
0.451,-0.934,0.148,-0.79,-8.12,10.59,1785099182484.548
0.453,-0.944,0.15,-3.02,-10.44,8.88,1785099182484.738
-0.698,-0.526,-0.663,-22.03,-8.36,3.05,1785099182485.0718
-0.723,-0.532,-0.711,-25.15,-5.07,1.31,1785099182485.2632
-0.716,-0.543,-0.715,-23.5,0.06,-0.46,1785099182485.447
-0.705,-0.554,-0.642,-16.11,2.96,-1.19,1785099182495.8
-0.728,-0.543,-0.55,-3.6,1.68,-0.46,1785099182506.1482
-0.768,-0.533,-0.508,11.14,-0.15,2.17,1785099182519.438
-0.842,-0.529,-0.484,21.61,-2.17,3.36,1785099182525.013
-0.921,-0.546,-0.495,28.63,-3.05,2.99,1785099182535.369
-0.987,-0.596,-0.518,36.5,-0.15,1.4,1785099182545.8171
-1.054,-0.653,-0.516,45.5,3.6,-2.59,1785099182556.272
-1.114,-0.684,-0.473,56.06,6.62,-7.17,1785099182569.576
-1.141,-0.705,-0.417,71.44,9.95,-9.86,1785099182575.146
-1.14,-0.713,-0.362,92.87,13.43,-12.42,1785099182585.718
-1.128,-0.699,-0.332,120.06,15.38,-15.78,1785099182596.411
-1.118,-0.666,-0.352,150.27,16.39,-19.47,1785099182609.676
-1.129,-0.588,-0.427,177.56,16.33,-22.1,1785099182615.4749
-1.133,-0.485,-0.504,196.75,17.94,-20.72,1785099182626.393
-1.133,-0.41,-0.545,207.62,21.0,-16.6,1785099182639.7122
-1.129,-0.355,-0.528,211.4,22.43,-10.9,1785099182645.4312
-1.109,-0.327,-0.471,210.64,22.55,-2.84,1785099182656.328
-1.077,-0.334,-0.37,208.81,21.45,6.29,1785099182669.7449
-1.045,-0.418,-0.227,211.25,18.56,14.19,1785099182675.67
-1.016,-0.585,-0.097,219.79,14.83,18.71,1785099182686.4387
-1.046,-0.693,-0.016,231.7,8.67,19.56,1785099182699.6018
-1.098,-0.676,-0.02,246.62,0.76,24.29,1785099182705.5613
-1.113,-0.614,-0.098,262.34,-4.7,36.26,1785099182716.137
-1.088,-0.541,-0.199,270.85,-7.51,50.2,1785099182726.7158
-1.041,-0.465,-0.316,267.22,-7.72,62.01,1785099182740.0032
-0.997,-0.398,-0.403,249.67,-4.64,71.47,1785099182746.0952
-0.953,-0.34,-0.485,218.09,0.15,81.42,1785099182756.499
-0.874,-0.344,-0.485,176.24,8.48,92.87,1785099182772.0059
-0.783,-0.383,-0.424,131.75,18.13,101.93,1785099182776.247
-0.721,-0.393,-0.341,90.18,29.63,108.86,1785099182786.1829
-0.697,-0.457,-0.211,61.13,38.82,114.26,1785099182799.798
-0.658,-0.543,-0.112,45.35,43.64,114.9,1785099182805.857
-0.61,-0.637,-0.043,40.19,47.46,112.19,1785099182816.561
-0.574,-0.763,-0.012,45.23,49.99,108.4,1785099182829.307
-0.556,-0.868,-0.033,59.02,51.42,105.29,1785099182835.71
-0.553,-0.936,-0.066,82.55,54.78,105.17,1785099182846.432
-0.558,-0.975,-0.091,115.39,59.18,106.91,1785099182859.6191
-0.556,-0.969,-0.114,150.98,63.81,108.13,1785099182865.924
-0.55,-0.932,-0.132,185.09,70.22,107.55,1785099182876.251
-0.534,-0.858,-0.146,212.59,76.97,105.11,1785099182889.843
-0.492,-0.778,-0.177,228.64,81.67,102.05,1785099182895.885
-0.435,-0.734,-0.209,231.09,85.88,97.78,1785099182906.754
-0.406,-0.709,-0.219,222.14,89.51,91.22,1785099182919.958
-0.403,-0.682,-0.214,207.46,92.2,84.75,1785099182925.942
-0.417,-0.661,-0.201,190.92,93.6,80.48,1785099182936.915
-0.436,-0.643,-0.174,173.19,93.26,78.95,1785099182950.1318
-0.459,-0.644,-0.124,153.81,90.7,80.57,1785099182956.029
-0.493,-0.659,-0.107,131.38,84.38,85.48,1785099182966.738
-0.501,-0.699,-0.164,103.98,77.18,94.79,1785099182979.913
-0.523,-0.725,-0.173,70.65,73.73,104.28,1785099182985.934
-0.555,-0.866,-0.17,38.97,66.62,125.68,1785099182996.663
-0.537,-0.927,-0.117,20.48,74.77,132.63,1785099183009.914
-0.82,-0.863,-0.113,3.97,81.39,122.32,1785099183017.167
-0.944,-0.907,-0.052,-16.3,79.5,122.35,1785099183026.161
-0.932,-0.934,0.031,-34.18,79.13,113.71,1785099183040.148
-0.735,-0.922,0.136,-38.54,84.78,99.0,1785099183045.5671
-0.644,-0.868,0.194,-28.84,87.98,76.17,1785099183056.3772
-0.669,-0.867,0.258,-16.3,88.93,56.09,1785099183069.824
-0.788,-0.923,0.282,-4.09,87.53,36.77,1785099183075.4402
-0.834,-1.035,0.28,8.85,79.5,25.06,1785099183085.849
-0.78,-1.106,0.259,29.57,71.02,16.3,1785099183096.244
-0.757,-1.08,0.167,57.47,62.62,4.18,1785099183109.791
-0.744,-1.007,0.066,84.2,54.63,-8.64,1785099183115.8298
-0.762,-0.939,-0.007,105.56,47.43,-23.22,1785099183126.079
-0.775,-0.903,-0.056,121.13,41.38,-36.74,1785099183137.239
-0.783,-0.869,-0.075,132.33,35.68,-48.95,1785099183150.088
-0.767,-0.861,-0.103,143.86,32.99,-59.72,1785099183156.061
-0.744,-0.86,-0.149,153.23,30.82,-72.97,1785099183166.789
-0.777,-0.82,-0.197,154.39,26.58,-88.99,1785099183179.674
-0.793,-0.805,-0.231,147.19,22.4,-100.31,1785099183186.038
-0.796,-0.815,-0.254,133.37,19.53,-110.11,1785099183199.426
-0.815,-0.835,-0.258,114.6,16.63,-120.98,1785099183205.168
-0.84,-0.855,-0.249,93.69,14.59,-130.34,1785099183216.2769
-0.849,-0.887,-0.25,73.24,12.88,-137.18,1785099183229.4778
-0.85,-0.913,-0.263,53.83,11.63,-145.42,1785099183235.496
-0.855,-0.92,-0.256,35.98,12.48,-153.81,1785099183245.949
-0.856,-0.946,-0.242,21.91,12.91,-158.06,1785099183259.483
-0.848,-0.992,-0.23,11.44,11.87,-159.92,1785099183265.413
-0.829,-1.009,-0.2,4.52,11.17,-160.77,1785099183276.0872
-0.796,-1.003,-0.185,4.33,13.15,-160.59,1785099183286.792
-0.765,-1.013,-0.201,10.68,16.91,-160.59,1785099183299.9858
-0.75,-1.019,-0.22,18.13,20.72,-162.54,1785099183305.904
-0.741,-1.033,-0.234,24.32,24.51,-165.41,1785099183316.7732
-0.718,-1.077,-0.222,28.78,28.26,-168.03,1785099183329.634
-0.677,-1.15,-0.2,32.04,31.25,-170.81,1785099183335.998
-0.677,-1.15,-0.2,34.67,33.88,-174.69,1785099183346.6921
-0.642,-1.219,-0.187,36.74,35.34,-177.95,1785099183360.002
-0.62,-1.274,-0.169,39.09,35.77,-179.82,1785099183365.925
-0.621,-1.294,-0.141,42.3,35.49,-179.97,1785099183376.842
-0.624,-1.294,-0.117,42.3,35.49,-179.97,1785099183389.993
-0.601,-1.307,-0.106,47.98,34.42,-181.1,1785099183395.874
-0.57,-1.304,-0.096,52.34,32.01,-186.5,1785099183406.5708
-0.535,-1.296,-0.098,53.83,29.45,-192.51,1785099183419.908
-0.494,-1.291,-0.101,52.52,27.04,-197.15,1785099183425.314
-0.475,-1.273,-0.078,48.55,24.14,-201.79,1785099183436.5928
-0.455,-1.267,-0.056,43.86,19.99,-205.54,1785099183449.868
-0.434,-1.268,-0.026,37.97,16.11,-209.69,1785099183455.806
-0.409,-1.278,0.01,31.22,12.12,-214.09,1785099183466.576
-0.391,-1.304,0.04,23.56,7.2,-218.45,1785099183479.5872
-0.37,-1.33,0.069,15.93,2.78,-222.72,1785099183485.975
-0.354,-1.362,0.125,10.93,-2.01,-226.84,1785099183496.2612
-0.341,-1.391,0.154,9.43,-8.18,-230.9,1785099183506.457
-0.323,-1.369,0.126,9.43,-13.79,-233.71,1785099183520.143
-0.288,-1.3,0.12,10.65,-17.73,-233.22,1785099183525.962
-0.232,-1.265,0.123,13.09,-22.19,-232.28,1785099183536.853
-0.182,-1.253,0.118,14.16,-26.73,-234.38,1785099183550.085
-0.156,-1.258,0.127,13.89,-30.73,-236.79,1785099183555.9402
-0.15,-1.276,0.133,14.07,-34.7,-238.81,1785099183566.684
-0.156,-1.263,0.16,14.44,-38.73,-241.19,1785099183579.906
-0.149,-1.222,0.174,16.97,-43.09,-242.71,1785099183586.09
-0.123,-1.166,0.17,21.52,-47.55,-242.53,1785099183596.6357
-0.073,-1.115,0.159,24.51,-52.4,-241.22,1785099183609.9358
-0.027,-1.075,0.139,23.87,-57.04,-240.46,1785099183616.014
0.009,-1.036,0.143,20.39,-60.76,-239.33,1785099183626.5369
0.037,-1.022,0.167,18.98,-64.06,-237.53,1785099183639.97
0.049,-1.008,0.169,23.19,-67.29,-235.79,1785099183645.958
0.063,-0.972,0.177,31.1,-70.74,-232.58,1785099183656.633
0.08,-0.938,0.172,40.47,-75.84,-228.43,1785099183670.464
0.094,-0.861,0.151,46.14,-81.21,-224.07,1785099183676.226
0.126,-0.795,0.147,50.23,-85.73,-217.38,1785099183686.605
0.159,-0.742,0.146,52.34,-91.04,-211.55,1785099183699.831
0.186,-0.694,0.116,53.47,-96.01,-207.59,1785099183705.806
0.223,-0.656,0.089,53.13,-99.28,-203.56,1785099183716.51
0.253,-0.617,0.091,51.94,-102.45,-198.89,1785099183729.7869
0.28,-0.606,0.098,51.88,-106.33,-193.73,1785099183735.9731
0.291,-0.585,0.1,52.43,-110.05,-189.76,1785099183746.829
0.295,-0.562,0.114,54.66,-113.13,-184.27,1785099183759.9978
0.295,-0.54,0.099,58.29,-116.49,-177.65,1785099183766.037
0.31,-0.487,0.059,61.37,-119.14,-170.54,1785099183777.0847
0.356,-0.459,0.01,64.52,-120.55,-163.21,1785099183790.2551
0.394,-0.435,-0.015,63.84,-120.98,-157.69,1785099183796.175
0.412,-0.411,-0.043,60.27,-121.8,-153.54,1785099183809.6562
0.416,-0.376,-0.068,57.5,-121.92,-148.66,1785099183815.631
0.411,-0.345,-0.067,57.92,-121.4,-141.51,1785099183826.529
0.408,-0.314,-0.074,60.24,-121.71,-133.88,1785099183839.8481
0.419,-0.274,-0.104,62.35,-121.77,-127.45,1785099183845.7898
0.445,-0.253,-0.119,64.24,-120.4,-122.1,1785099183857.007
0.467,-0.244,-0.128,63.45,-119.88,-117.28,1785099183870.049
0.482,-0.237,-0.145,59.48,-120.03,-113.35,1785099183875.979
0.488,-0.254,-0.151,55.57,-119.11,-109.62,1785099183889.422
0.478,-0.272,-0.184,52.19,-118.29,-105.81,1785099183895.363
0.481,-0.262,-0.214,49.29,-116.79,-101.05,1785099183906.401
0.489,-0.246,-0.213,48.74,-115.36,-94.82,1785099183919.7131
0.494,-0.229,-0.202,50.33,-114.93,-88.38,1785099183925.645
0.49,-0.215,-0.208,53.41,-114.23,-83.59,1785099183936.425
0.485,-0.218,-0.253,58.63,-112.09,-79.2,1785099183949.823
0.477,-0.245,-0.317,63.94,-108.25,-75.47,1785099183955.7039
0.466,-0.258,-0.386,66.62,-102.85,-72.85,1785099183966.392
0.477,-0.254,-0.454,66.16,-96.41,-69.52,1785099183979.625
0.509,-0.24,-0.488,62.65,-90.18,-64.76,1785099183985.6511
0.533,-0.231,-0.507,58.78,-84.96,-60.27,1785099183995.9778
0.556,-0.195,-0.52,55.42,-79.71,-56.64,1785099184006.648
0.594,-0.18,-0.539,54.78,-73.85,-53.8,1785099184019.991
0.644,-0.204,-0.566,55.76,-66.71,-54.96,1785099184025.834
0.676,-0.253,-0.554,56.52,-58.78,-59.42,1785099184036.384
0.685,-0.299,-0.536,56.43,-52.55,-64.24,1785099184049.593
0.703,-0.285,-0.513,54.63,-47.4,-64.97,1785099184055.6118
0.733,-0.287,-0.451,54.63,-43.06,-60.27,1785099184066.0989
0.748,-0.292,-0.416,55.6,-40.47,-56.25,1785099184076.725
0.786,-0.249,-0.413,53.35,-39.06,-51.42,1785099184089.938
0.833,-0.229,-0.408,51.24,-38.54,-45.9,1785099184095.878
0.849,-0.222,-0.419,49.75,-37.97,-42.45,1785099184106.428
0.871,-0.211,-0.46,46.82,-37.9,-40.59,1785099184119.89
0.896,-0.201,-0.498,42.66,-38.54,-37.97,1785099184125.651
0.899,-0.205,-0.552,40.5,-38.67,-35.8,1785099184136.176
0.887,-0.184,-0.628,37.87,-38.06,-35.86,1785099184146.735
0.897,-0.167,-0.689,33.88,-35.98,-35.68,1785099184160.0051
0.906,-0.145,-0.731,27.34,-34.03,-35.77,1785099184165.942
0.9,-0.116,-0.76,20.97,-31.62,-35.25,1785099184176.625
0.913,-0.082,-0.795,17.98,-27.59,-33.54,1785099184189.677
0.931,-0.041,-0.834,16.69,-23.29,-32.32,1785099184195.625
0.946,-0.003,-0.839,16.57,-17.7,-30.03,1785099184206.155
0.971,-0.004,-0.826,18.46,-12.05,-26.64,1785099184216.919
0.981,-0.014,-0.83,18.46,-6.87,-23.87,1785099184230.0151
0.981,-0.018,-0.831,14.22,-1.62,-20.26,1785099184235.9622
0.978,-0.031,-0.801,8.24,3.69,-15.47,1785099184246.108
0.97,-0.039,-0.757,0.92,7.66,-10.19,1785099184256.619
0.959,-0.038,-0.71,-9.74,10.16,-5.52,1785099184269.8
0.939,-0.043,-0.68,-20.91,12.42,-1.71,1785099184275.8027
0.92,-0.045,-0.666,-30.34,15.05,1.8,1785099184286.023
0.912,-0.051,-0.675,-37.63,17.4,5.25,1785099184296.718
0.911,-0.072,-0.71,-42.27,20.17,9.13,1785099184309.7998
0.909,-0.094,-0.739,-47.18,23.29,12.45,1785099184315.735
0.904,-0.114,-0.775,-53.22,26.76,15.17,1785099184326.167
0.902,-0.108,-0.813,-61.43,30.92,17.79,1785099184336.8809
0.901,-0.088,-0.828,-72.3,35.16,21.03,1785099184350.0427
0.902,-0.081,-0.812,-82.98,39.89,24.02,1785099184355.952
0.888,-0.09,-0.784,-91.71,45.11,26.61,1785099184366.4902
0.871,-0.098,-0.753,-99.4,50.08,29.57,1785099184379.7358
0.853,-0.1,-0.727,-106.17,55.12,33.17,1785099184385.7532
0.843,-0.094,-0.709,-111.0,60.55,37.69,1785099184396.38
0.835,-0.086,-0.681,-113.07,66.59,42.48,1785099184409.646
0.818,-0.078,-0.666,-112.06,72.36,47.64,1785099184415.591
0.801,-0.065,-0.658,-108.71,78.13,53.68,1785099184426.327
0.779,-0.065,-0.627,-102.36,84.11,58.9,1785099184439.5862
0.764,-0.073,-0.603,-93.54,89.94,63.66,1785099184445.52
0.753,-0.085,-0.582,-84.11,95.8,68.51,1785099184456.177
0.735,-0.102,-0.546,-75.26,101.38,73.03,1785099184466.888
0.732,-0.132,-0.531,-67.9,107.36,76.78,1785099184480.084
0.733,-0.158,-0.508,-64.42,112.77,79.65,1785099184485.922
0.694,-0.168,-0.463,-65.52,116.95,82.25,1785099184496.886
0.686,-0.174,-0.393,-67.14,125.03,84.02,1785099184510.174
0.728,-0.217,-0.365,-68.76,126.13,87.65,1785099184516.179
0.687,-0.229,-0.336,-69.61,121.16,92.23,1785099184526.7998
0.623,-0.201,-0.338,-69.89,120.58,95.86,1785099184540.129
0.603,-0.183,-0.276,-70.86,126.13,98.54,1785099184546.0469
0.624,-0.219,-0.205,-68.61,129.09,103.55,1785099184556.9531
0.647,-0.255,-0.182,-61.71,131.75,106.54,1785099184570.204
0.633,-0.265,-0.148,-54.29,131.17,107.91,1785099184576.113
0.606,-0.272,-0.12,-45.59,130.1,109.74,1785099184589.682
0.592,-0.262,-0.097,-37.26,132.6,110.81,1785099184595.479
0.597,-0.26,-0.082,-30.73,135.38,112.34,1785099184606.4917
0.605,-0.284,-0.061,-25.7,135.29,115.05,1785099184619.862
0.607,-0.288,-0.049,-22.28,133.15,115.51,1785099184625.74
0.607,-0.288,-0.049,-21.03,131.6,118.66,1785099184636.789
0.584,-0.312,-0.056,-20.87,131.9,124.09,1785099184649.954
0.62,-0.376,-0.075,-22.4,132.51,125.19,1785099184656.003
0.65,-0.414,-0.097,-25.73,134.22,127.84,1785099184669.74
0.622,-0.448,-0.093,-25.73,134.22,127.84,1785099184675.3599
0.621,-0.478,-0.047,-28.57,136.94,130.83,1785099184686.437
0.592,-0.512,0.007,-28.84,136.11,133.82,1785099184699.5862
0.533,-0.52,0.07,-26.86,135.75,136.33,1785099184705.61
0.489,-0.506,0.132,-23.35,137.42,137.46,1785099184716.565
0.493,-0.532,0.129,-20.42,136.23,138.55,1785099184729.8381
0.515,-0.55,0.092,-24.72,133.34,137.18,1785099184736.021
0.534,-0.589,0.086,-36.65,131.38,136.51,1785099184746.84
0.539,-0.669,0.138,-47.94,130.07,137.33,1785099184760.107
0.508,-0.758,0.191,-49.1,129.92,136.6,1785099184766.114
0.455,-0.784,0.197,-39.89,130.71,136.36,1785099184779.318
0.431,-0.715,0.179,-28.23,131.5,140.14,1785099184785.6309
0.454,-0.66,0.124,-21.36,133.12,145.42,1785099184796.506
0.483,-0.65,0.079,-25.24,135.47,147.07,1785099184809.7588
0.475,-0.663,0.076,-36.77,137.88,145.7,1785099184815.694
0.438,-0.725,0.111,-47.76,140.2,143.31,1785099184826.726
0.367,-0.775,0.174,-55.79,141.51,141.21,1785099184839.989
0.31,-0.818,0.243,-55.64,142.12,142.49,1785099184846.051
0.256,-0.84,0.285,-47.49,142.06,145.7,1785099184859.411
0.22,-0.832,0.296,-39.92,141.67,149.94,1785099184865.3262
0.216,-0.843,0.282,-37.51,141.97,153.57,1785099184876.3982
0.222,-0.876,0.251,-39.98,142.52,155.0,1785099184889.57
0.219,-0.921,0.239,-43.95,142.92,154.7,1785099184895.5461
0.19,-0.963,0.234,-46.42,143.38,154.12,1785099184906.577
0.139,-0.988,0.234,-47.27,144.17,153.72,1785099184919.932
0.085,-0.994,0.258,-47.49,145.63,153.36,1785099184925.7861
0.028,-1.008,0.293,-46.36,147.19,154.12,1785099184936.824
-0.021,-1.043,0.31,-42.91,148.44,154.82,1785099184950.1409
-0.063,-1.06,0.328,-39.31,148.99,154.36,1785099184956.042
-0.093,-1.075,0.335,-35.4,149.24,153.63,1785099184969.6099
-0.123,-1.101,0.342,-29.63,148.81,151.4,1785099184975.374
-0.163,-1.109,0.351,-24.81,147.1,148.17,1785099184986.469
-0.189,-1.129,0.359,-21.82,145.45,145.18,1785099184999.667
-0.211,-1.168,0.364,-20.39,143.16,140.75,1785099185005.675
-0.24,-1.166,0.361,-21.49,140.08,135.87,1785099185016.685
-0.25,-1.161,0.388,-22.4,136.97,133.37,1785099185029.887
-0.246,-1.168,0.405,-18.95,132.94,130.38,1785099185035.9668
-0.253,-1.158,0.415,-14.71,127.69,125.95,1785099185046.856
-0.257,-1.134,0.41,-13.15,121.49,122.62,1785099185060.137
-0.257,-1.128,0.403,-11.72,114.47,119.97,1785099185066.113
-0.254,-1.131,0.402,-11.69,106.05,116.03,1785099185079.519
-0.246,-1.139,0.39,-14.13,98.06,109.32,1785099185085.6729
-0.253,-1.136,0.38,-22.89,89.75,99.98,1785099185096.2188
-0.27,-1.124,0.374,-39.09,78.8,93.36,1785099185106.867
-0.26,-1.162,0.384,-57.13,68.97,91.28,1785099185120.252
-0.263,-1.246,0.442,-72.63,59.88,90.4,1785099185126.029
-0.25,-1.378,0.542,-81.21,48.31,92.01,1785099185136.8079
-0.197,-1.487,0.614,-80.42,35.62,87.92,1785099185149.8801
-0.189,-1.47,0.595,-70.89,23.65,74.59,1785099185155.93
-0.221,-1.363,0.511,-55.97,12.97,63.08,1785099185166.2522
-0.24,-1.3,0.386,-42.33,3.72,52.86,1785099185176.9019
-0.253,-1.259,0.265,-37.63,-3.51,36.19,1785099185190.056
-0.242,-1.219,0.185,-43.21,-7.81,19.26,1785099185195.997
-0.216,-1.224,0.152,-52.86,-10.22,9.0,1785099185206.01
-0.189,-1.278,0.172,-59.76,-11.6,2.99,1785099185216.5579
-0.185,-1.332,0.216,-57.44,-12.63,-2.81,1785099185230.04
-0.193,-1.389,0.265,-44.74,-13.86,-7.39,1785099185235.594
-0.207,-1.449,0.295,-27.53,-16.05,-9.95,1785099185246.332
-0.212,-1.464,0.294,-12.02,-19.84,-10.56,1785099185259.562
-0.191,-1.457,0.265,1.13,-23.56,-10.07,1785099185265.422
-0.167,-1.421,0.244,9.06,-26.61,-12.88,1785099185275.871
-0.142,-1.379,0.231,10.9,-28.99,-20.81,1785099185291.898
-0.134,-1.357,0.223,8.39,-31.83,-31.31,1785099185299.3447
-0.132,-1.357,0.23,4.79,-34.91,-41.2,1785099185305.1309
-0.145,-1.37,0.23,2.81,-37.75,-50.48,1785099185315.758
-0.156,-1.389,0.219,4.24,-40.16,-58.17,1785099185326.419
-0.167,-1.401,0.2,8.64,-41.66,-64.76,1785099185339.738
-0.174,-1.381,0.185,13.79,-42.73,-69.22,1785099185345.6262
-0.175,-1.36,0.193,19.5,-44.19,-71.99,1785099185356.125
-0.176,-1.338,0.206,25.45,-46.21,-75.99,1785099185366.708
-0.178,-1.311,0.229,30.52,-48.83,-81.51,1785099185379.9338
-0.18,-1.293,0.238,34.3,-52.61,-87.5,1785099185385.958
-0.189,-1.27,0.241,36.19,-57.13,-94.27,1785099185396.4211
-0.199,-1.226,0.247,36.07,-62.35,-99.98,1785099185409.634
-0.187,-1.2,0.23,36.32,-67.78,-104.46,1785099185415.586
-0.167,-1.193,0.212,35.89,-71.6,-110.14,1785099185426.3867
-0.157,-1.179,0.219,34.24,-74.92,-116.15,1785099185439.642
-0.145,-1.175,0.215,34.39,-77.85,-120.24,1785099185445.513
-0.143,-1.155,0.231,35.65,-80.39,-123.48,1785099185456.3032
-0.139,-1.123,0.261,38.3,-83.59,-125.25,1785099185469.554
-0.125,-1.11,0.275,42.39,-87.13,-126.01,1785099185475.035
-0.122,-1.095,0.285,44.37,-91.04,-126.93,1785099185486.103
-0.108,-1.075,0.285,45.56,-94.49,-127.63,1785099185499.582
-0.08,-1.069,0.279,46.94,-97.02,-127.78,1785099185505.4873
-0.046,-1.067,0.283,47.58,-99.31,-128.27,1785099185516.2517
-0.017,-1.064,0.293,48.83,-101.23,-129.18,1785099185529.5461
-0.001,-1.051,0.299,51.39,-102.69,-129.46,1785099185535.698
0.019,-1.031,0.309,53.87,-104.19,-128.73,1785099185546.426
0.04,-1.012,0.323,55.85,-106.14,-127.81,1785099185559.664
0.065,-1.002,0.328,56.37,-109.16,-127.96,1785099185565.6362
0.091,-0.991,0.327,53.59,-112.64,-128.42,1785099185576.8572
0.118,-0.985,0.336,49.81,-115.85,-128.61,1785099185589.9148
0.133,-0.986,0.344,46.72,-119.24,-129.46,1785099185595.8662
0.156,-0.965,0.346,44.74,-122.17,-130.01,1785099185606.9
0.182,-0.957,0.348,46.05,-123.54,-129.83,1785099185620.2458
0.207,-0.94,0.364,48.74,-125.55,-129.7,1785099185626.074
0.226,-0.922,0.365,51.03,-128.61,-129.7,1785099185639.5269
0.243,-0.885,0.341,52.31,-131.41,-129.64,1785099185645.484
0.28,-0.852,0.306,54.11,-133.64,-129.09,1785099185656.62
0.32,-0.829,0.288,53.56,-135.47,-128.51,1785099185669.898
0.342,-0.806,0.287,50.48,-137.36,-128.36,1785099185675.7651
0.362,-0.795,0.303,47.4,-139.44,-127.69,1785099185686.79
0.371,-0.812,0.319,47.49,-141.73,-126.99,1785099185699.9768
0.366,-0.798,0.302,49.01,-144.26,-126.22,1785099185705.997
0.381,-0.75,0.277,50.72,-146.18,-123.2,1785099185719.5188
0.418,-0.725,0.272,53.07,-148.2,-119.36,1785099185725.413
0.433,-0.719,0.247,54.29,-150.91,-117.83,1785099185736.6772
0.436,-0.669,0.208,52.46,-153.6,-116.73,1785099185749.7449
0.471,-0.634,0.176,52.46,-154.88,-113.28,1785099185755.7068
0.49,-0.641,0.132,55.12,-154.94,-111.27,1785099185766.598
0.488,-0.619,0.089,56.55,-154.33,-110.14,1785099185779.879
0.499,-0.593,0.063,58.32,-152.56,-107.64,1785099185785.9631
0.509,-0.574,0.056,58.5,-150.76,-106.02,1785099185796.829
0.52,-0.566,0.063,56.61,-150.24,-105.47,1785099185810.1
0.512,-0.557,0.034,52.92,-150.06,-106.3,1785099185816.136
0.508,-0.506,-0.006,45.78,-149.63,-106.63,1785099185829.619
0.535,-0.46,-0.027,37.93,-148.5,-105.41,1785099185835.5579
0.565,-0.446,-0.027,31.25,-147.01,-104.95,1785099185846.4692
0.573,-0.465,-0.022,28.47,-145.42,-105.96,1785099185859.716
0.564,-0.48,-0.034,29.88,-143.31,-107.12,1785099185865.6409
0.567,-0.472,-0.067,34.27,-140.84,-106.39,1785099185876.7048
0.587,-0.428,-0.087,37.69,-138.62,-103.09,1785099185889.919
0.615,-0.395,-0.104,39.52,-137.18,-99.03,1785099185895.906
0.627,-0.397,-0.105,40.25,-136.3,-96.65,1785099185906.764
0.627,-0.397,-0.105,40.38,-135.81,-96.19,1785099185920.1282
0.61,-0.402,-0.114,39.52,-135.38,-95.07,1785099185925.918
0.592,-0.376,-0.134,39.89,-134.22,-92.41,1785099185936.904
0.601,-0.359,-0.165,39.89,-132.6,-89.85,1785099185949.928
0.628,-0.35,-0.192,39.8,-130.8,-88.6,1785099185955.914
0.652,-0.355,-0.224,39.8,-130.8,-88.6,1785099185966.678
0.667,-0.358,-0.255,38.73,-129.25,-87.68,1785099185979.917
0.668,-0.354,-0.265,37.14,-128.27,-86.06,1785099185986.025
0.663,-0.33,-0.283,36.5,-127.66,-83.35,1785099185996.69
0.676,-0.329,-0.31,38.82,-125.92,-79.93,1785099186009.9001
0.683,-0.336,-0.339,40.19,-124.15,-78.8,1785099186015.8533
0.683,-0.325,-0.359,39.12,-122.26,-79.1,1785099186026.601
0.694,-0.313,-0.357,37.26,-120.24,-79.23,1785099186039.895
0.714,-0.313,-0.379,36.71,-118.41,-78.8,1785099186045.8071
0.731,-0.329,-0.428,37.97,-115.91,-77.85,1785099186056.77
0.752,-0.326,-0.473,39.06,-112.77,-76.36,1785099186069.8828
0.769,-0.303,-0.505,40.83,-109.78,-73.92,1785099186075.775
0.771,-0.276,-0.53,44.56,-106.63,-70.96,1785099186086.624
0.765,-0.252,-0.558,49.75,-103.37,-67.78,1785099186099.779
0.758,-0.221,-0.581,53.53,-99.89,-65.25,1785099186105.819
0.765,-0.194,-0.619,55.21,-96.13,-63.66,1785099186116.3489
0.785,-0.198,-0.68,55.64,-91.43,-62.78,1785099186129.548
0.799,-0.184,-0.759,52.61,-85.45,-64.0,1785099186135.691
0.827,-0.146,-0.843,46.97,-77.3,-63.97,1785099186146.001
0.855,-0.129,-0.912,40.38,-68.82,-62.38,1785099186156.71
0.857,-0.102,-0.957,30.85,-61.56,-60.03,1785099186169.988
0.85,-0.066,-0.978,20.97,-54.02,-56.0,1785099186175.872
0.834,-0.02,-1.009,12.36,-46.08,-50.54,1785099186186.351
0.846,0.046,-1.048,3.72,-35.37,-44.25,1785099186199.5908
0.867,0.1,-1.088,-4.0,-21.94,-37.26,1785099186205.524
0.887,0.141,-1.097,-11.69,-7.57,-29.88,1785099186215.783
0.903,0.15,-1.046,-18.74,5.28,-22.68,1785099186226.356
0.916,0.128,-0.964,-23.32,16.51,-14.31,1785099186239.616
0.925,0.09,-0.881,-26.28,26.18,-5.62,1785099186245.504
0.926,0.051,-0.798,-30.79,34.46,2.5,1785099186255.9949
0.913,0.017,-0.725,-35.34,41.2,10.25,1785099186266.577
0.9,-0.02,-0.685,-37.9,46.3,18.19,1785099186279.786
0.888,-0.049,-0.668,-40.28,49.9,24.99,1785099186285.716
0.873,-0.069,-0.668,-43.15,51.82,30.34,1785099186296.297
0.868,-0.086,-0.671,-46.21,55.15,33.48,1785099186306.8372
0.853,-0.104,-0.688,-51.33,55.79,37.6,1785099186320.21
0.838,-0.09,-0.684,-57.8,59.24,39.8,1785099186326.08
0.815,-0.064,-0.674,-65.89,64.91,40.47,1785099186336.742
0.807,-0.054,-0.633,-74.5,69.0,42.66,1785099186349.812
0.793,-0.062,-0.585,-79.07,74.31,45.72,1785099186355.762
0.804,-0.088,-0.548,-79.87,79.53,50.02,1785099186366.329
0.799,-0.095,-0.521,-79.71,81.39,54.11,1785099186379.498
0.786,-0.086,-0.498,-80.08,83.22,58.5,1785099186385.4458
0.784,-0.073,-0.483,-81.09,85.91,62.69,1785099186395.991
0.776,-0.071,-0.477,-81.55,88.56,66.04,1785099186406.619
0.761,-0.079,-0.459,-80.36,91.74,69.92,1785099186419.927
0.759,-0.094,-0.425,-76.66,95.25,74.22,1785099186425.892
0.766,-0.106,-0.392,-71.66,97.57,78.98,1785099186436.337
0.765,-0.122,-0.361,-65.61,98.85,84.78,1785099186449.571
0.752,-0.137,-0.331,-58.08,99.8,91.1,1785099186455.5059
0.745,-0.148,-0.325,-50.2,102.18,96.32,1785099186466.1272
0.746,-0.148,-0.307,-43.82,104.19,100.1,1785099186479.517
0.75,-0.163,-0.278,-38.73,105.04,102.91,1785099186485.418
0.737,-0.188,-0.255,-35.58,106.27,104.37,1785099186496.4521
0.73,-0.212,-0.247,-33.6,107.91,105.81,1785099186509.8738
0.737,-0.251,-0.25,-31.46,110.02,106.75,1785099186515.347
0.746,-0.279,-0.245,-31.13,111.67,107.18,1785099186526.609
0.747,-0.289,-0.234,-32.96,112.64,108.49,1785099186539.663
0.742,-0.291,-0.222,-35.16,113.77,111.21,1785099186545.792
0.74,-0.297,-0.194,-35.86,114.99,115.05,1785099186556.8772
0.725,-0.32,-0.156,-34.24,116.34,118.84,1785099186570.1902
0.709,-0.344,-0.123,-29.94,117.1,122.2,1785099186576.0378
0.702,-0.37,-0.098,-23.01,117.95,124.82,1785099186589.631
0.697,-0.393,-0.08,-15.2,118.75,126.59,1785099186595.4531
0.688,-0.414,-0.075,-8.55,120.09,127.29,1785099186606.534
0.675,-0.424,-0.072,-5.1,122.1,126.87,1785099186619.7
0.673,-0.431,-0.069,-6.29,123.63,126.56,1785099186625.6157
0.679,-0.457,-0.06,-10.86,124.73,126.44,1785099186636.606
0.665,-0.501,-0.043,-17.09,125.95,125.86,1785099186649.699
0.633,-0.549,-0.029,-23.68,127.69,125.83,1785099186655.762
0.596,-0.58,-0.004,-28.32,129.37,127.72,1785099186666.6848
0.57,-0.609,0.034,-27.28,130.92,131.11,1785099186679.9092
0.539,-0.634,0.058,-21.82,132.27,134.37,1785099186686.07
0.507,-0.625,0.079,-18.68,132.88,136.17,1785099186696.9011
0.501,-0.624,0.113,-19.07,133.64,137.27,1785099186710.15
0.496,-0.672,0.136,-20.05,134.28,135.99,1785099186716.1501
0.48,-0.735,0.156,-20.57,134.22,132.79,1785099186729.52
0.457,-0.798,0.178,-19.32,133.03,130.89,1785099186735.6301
0.428,-0.824,0.201,-16.11,131.75,131.2,1785099186746.51
0.404,-0.836,0.205,-10.56,131.5,132.63,1785099186759.783
0.393,-0.828,0.179,-7.2,132.18,134.53,1785099186765.8071
0.403,-0.803,0.171,-8.39,133.95,136.85,1785099186776.757
0.416,-0.817,0.211,-10.83,135.72,137.21,1785099186789.8218
0.385,-0.874,0.276,-11.96,136.27,133.64,1785099186795.771
0.311,-0.935,0.332,-10.44,134.62,128.18,1785099186806.844
0.244,-0.962,0.402,-7.29,130.92,124.91,1785099186820.212
0.217,-0.992,0.442,-1.25,126.8,123.87,1785099186825.9949
0.203,-1.011,0.442,5.46,123.66,122.1,1785099186836.775
0.201,-1.011,0.415,8.97,121.59,119.69,1785099186849.964
0.208,-1.001,0.388,6.41,120.4,116.86,1785099186856.034
0.21,-0.998,0.383,0.67,119.08,112.92,1785099186866.7441
0.201,-1.013,0.384,-5.07,116.0,107.18,1785099186879.9949
0.18,-1.04,0.365,-10.47,112.7,101.05,1785099186886.053
0.158,-1.035,0.337,-17.33,110.51,96.87,1785099186896.904
0.158,-1.007,0.325,-25.06,109.1,96.1,1785099186910.0217
0.172,-0.993,0.33,-31.1,108.77,96.19,1785099186915.998
0.157,-0.988,0.335,-33.51,109.56,94.0,1785099186926.739
0.122,-0.969,0.349,-34.49,109.93,91.62,1785099186940.0178
0.085,-0.951,0.376,-33.36,109.87,91.22,1785099186945.904
0.059,-0.967,0.4,-29.05,109.35,91.59,1785099186956.786
0.044,-1.024,0.418,-22.37,109.35,91.34,1785099186970.071
0.016,-1.083,0.433,-13.7,108.77,90.12,1785099186975.9678
-0.011,-1.114,0.423,-3.6,106.45,88.78,1785099186986.629
-0.024,-1.097,0.4,3.81,104.07,87.65,1785099186999.836
-0.021,-1.053,0.382,6.26,101.84,87.22,1785099187005.806
-0.005,-1.041,0.355,3.63,99.7,85.85,1785099187016.213
-0.002,-1.035,0.348,-5.31,97.57,82.52,1785099187026.7861
-0.014,-1.049,0.352,-15.69,94.67,79.62,1785099187040.045
-0.037,-1.07,0.35,-24.35,91.49,76.85,1785099187045.9321
-0.065,-1.054,0.354,-31.89,88.93,76.05,1785099187056.749
-0.061,-1.036,0.359,-36.65,86.0,78.31,1785099187069.8308
-0.055,-1.025,0.347,-40.07,83.16,79.9,1785099187075.673
-0.068,-1.024,0.333,-44.74,80.87,80.42,1785099187086.2231
-0.09,-1.061,0.313,-50.42,78.89,80.39,1785099187096.859
-0.135,-1.091,0.3,-56.55,77.06,78.62,1785099187110.037
-0.182,-1.092,0.303,-62.47,74.95,76.91,1785099187115.9941
-0.211,-1.091,0.308,-64.64,72.48,76.63,1785099187126.5227
-0.217,-1.107,0.313,-62.78,70.25,76.24,1785099187139.774
-0.22,-1.125,0.323,-59.14,66.87,73.43,1785099187145.715
-0.223,-1.122,0.315,-55.36,62.84,70.31,1785099187156.279
-0.222,-1.129,0.299,-50.45,59.39,68.73,1785099187166.8347
-0.226,-1.135,0.282,-46.54,55.48,66.23,1785099187180.1199
-0.221,-1.149,0.271,-44.71,51.55,62.56,1785099187186.101
-0.219,-1.172,0.266,-44.86,48.1,58.5,1785099187196.537
-0.219,-1.172,0.266,-46.17,44.01,54.32,1785099187209.931
-0.231,-1.176,0.282,-44.95,39.25,50.72,1785099187215.736
-0.239,-1.17,0.295,-40.41,34.82,47.21,1785099187226.377
-0.232,-1.165,0.306,-34.46,29.76,42.33,1785099187236.918
-0.224,-1.164,0.315,-29.24,24.23,36.56,1785099187250.14
-0.227,-1.139,0.324,-29.24,24.23,36.56,1785099187256.142
-0.233,-1.126,0.333,-21.49,18.59,31.28,1785099187266.64
-0.24,-1.137,0.32,-12.3,12.88,25.03,1785099187279.927
-0.23,-1.16,0.292,-5.34,8.03,17.67,1785099187285.871
-0.218,-1.173,0.28,-0.61,3.81,11.11,1785099187295.954
-0.221,-1.177,0.264,5.04,-0.31,6.44,1785099187306.3062
-0.217,-1.181,0.245,10.32,-3.63,2.93,1785099187316.808
-0.205,-1.192,0.237,13.34,-6.35,-1.46,1785099187330.028
-0.207,-1.194,0.25,14.28,-9.03,-6.35,1785099187335.936
-0.208,-1.205,0.273,14.62,-12.63,-11.23,1785099187346.1592
-0.205,-1.213,0.287,14.53,-17.0,-16.97,1785099187356.838
-0.203,-1.22,0.29,13.61,-21.39,-22.86,1785099187370.1638
-0.199,-1.237,0.293,11.84,-26.06,-28.26,1785099187376.0269
-0.192,-1.265,0.297,10.01,-30.52,-34.03,1785099187386.5
-0.188,-1.291,0.295,9.09,-34.39,-40.44,1785099187399.7651
-0.185,-1.288,0.296,10.01,-37.87,-45.72,1785099187405.713
-0.181,-1.279,0.298,13.43,-41.08,-49.53,1785099187416.1658
