ax,ay,az,gx,gy,gz,timestamp_ms
0.243,-0.898,0.357,0.34,-139.13,-154.15,1785099168090.6602
0.269,-0.888,0.343,-7.57,-139.5,-156.9,1785099168122.3428
0.306,-0.861,0.326,-9.43,-140.32,-157.78,1785099168122.7178
0.346,-0.793,0.303,-7.63,-140.78,-156.59,1785099168123.018
0.418,-0.727,0.276,-3.05,-140.23,-152.17,1785099168123.322
0.484,-0.74,0.26,4.46,-138.4,-149.05,1785099168123.625
0.474,-0.732,0.25,11.78,-136.88,-150.03,1785099168123.931
0.447,-0.684,0.259,21.79,-136.54,-148.41,1785099168124.227
0.437,-0.639,0.243,32.62,-138.28,-144.69,1785099168124.548
0.438,-0.569,0.208,36.71,-141.06,-142.19,1785099168124.875
0.459,-0.494,0.142,33.57,-143.62,-139.84,1785099168125.2107
0.51,-0.444,0.08,26.95,-143.86,-137.7,1785099168125.511
0.561,-0.422,0.049,19.93,-142.74,-137.09,1785099168125.812
0.594,-0.415,0.042,16.21,-140.51,-137.03,1785099168126.112
0.602,-0.459,0.063,20.63,-137.46,-136.33,1785099168126.407
0.568,-0.501,0.063,31.22,-135.14,-136.02,1785099168126.699
0.524,-0.493,0.032,44.71,-132.3,-134.31,1785099168126.994
0.503,-0.431,-0.019,57.62,-129.06,-129.4,1785099168127.312
0.514,-0.346,-0.058,66.41,-125.77,-123.11,1785099168127.6091
0.539,-0.271,-0.096,68.45,-122.96,-118.02,1785099168127.883
0.57,-0.23,-0.127,64.7,-119.66,-114.99,1785099168128.157
0.59,-0.245,-0.125,58.96,-116.03,-114.78,1785099168128.4312
0.581,-0.274,-0.11,54.84,-111.94,-116.03,1785099168128.693
0.564,-0.322,-0.083,57.5,-107.46,-116.43,1785099168128.983
0.537,-0.355,-0.105,65.8,-104.4,-116.31,1785099168129.255
0.537,-0.305,-0.135,73.4,-101.99,-113.22,1785099168129.544
0.571,-0.246,-0.132,80.17,-100.86,-106.81,1785099168129.8052
0.593,-0.204,-0.152,83.65,-101.32,-101.93,1785099168130.073
0.612,-0.162,-0.192,82.67,-100.68,-99.55,1785099168130.343
0.644,-0.153,-0.222,81.42,-98.39,-97.11,1785099168130.615
0.676,-0.176,-0.25,81.03,-95.8,-95.58,1785099168130.8647
0.696,-0.218,-0.258,79.38,-93.51,-95.25,1785099168131.155
0.691,-0.261,-0.252,76.33,-91.53,-95.4,1785099168131.417
0.677,-0.277,-0.251,73.37,-89.42,-94.45,1785099168131.7551
0.674,-0.255,-0.28,71.29,-87.56,-92.53,1785099168132.0232
0.7,-0.221,-0.294,68.48,-85.36,-90.12,1785099168132.294
0.73,-0.212,-0.302,65.95,-83.07,-88.32,1785099168132.586
0.747,-0.217,-0.333,64.61,-79.96,-88.69,1785099168132.8408
0.777,-0.208,-0.343,65.19,-75.78,-89.69,1785099168133.1
0.829,-0.204,-0.314,67.75,-74.13,-88.72,1785099168133.36
0.841,-0.198,-0.31,69.95,-75.75,-87.74,1785099168133.62
0.837,-0.175,-0.332,70.89,-76.88,-86.28,1785099168133.873
0.842,-0.169,-0.325,71.35,-77.67,-84.75,1785099168134.1309
0.836,-0.175,-0.324,70.65,-80.32,-85.79,1785099168134.3857
0.837,-0.181,-0.347,67.66,-81.97,-89.24,1785099168134.651
0.86,-0.176,-0.349,63.3,-81.7,-93.08,1785099168134.933
0.884,-0.169,-0.36,58.93,-82.19,-95.4,1785099168135.202
0.904,-0.145,-0.387,53.71,-84.11,-95.46,1785099168135.526
0.92,-0.112,-0.422,47.46,-86.73,-94.24,1785099168135.766
0.913,-0.069,-0.469,40.59,-89.45,-93.57,1785099168136.01
0.894,-0.02,-0.524,34.27,-90.33,-92.99,1785099168136.25
0.874,0.046,-0.594,30.88,-89.45,-92.35,1785099168136.483
0.88,0.121,-0.694,30.67,-85.51,-91.22,1785099168136.753
0.912,0.209,-0.801,29.97,-79.41,-89.97,1785099168137.027
0.913,0.305,-0.931,26.73,-73.98,-88.29,1785099168137.27
0.896,0.408,-1.1,20.81,-65.43,-85.15,1785099168137.5042
0.892,0.519,-1.252,11.08,-53.71,-77.27,1785099168137.791
0.878,0.641,-1.392,0.43,-37.51,-65.25,1785099168138.049
0.855,0.754,-1.426,-7.97,-16.57,-49.2,1785099168138.2852
0.868,0.77,-1.319,-6.32,7.72,-32.84,1785099168138.514
0.9,0.712,-1.153,-1.59,31.19,-19.14,1785099168138.7498
0.892,0.649,-0.948,-5.01,50.97,-6.56,1785099168138.987
0.883,0.568,-0.755,-16.69,64.03,8.18,1785099168139.2178
0.902,0.491,-0.575,-33.54,71.93,22.86,1785099168139.456
0.9,0.42,-0.424,-49.01,71.87,36.1,1785099168139.701
0.889,0.344,-0.298,-56.03,66.87,47.64,1785099168139.957
0.882,0.274,-0.223,-54.6,62.04,55.6,1785099168140.1912
0.879,0.193,-0.186,-49.13,55.6,60.64,1785099168140.4312
0.861,0.115,-0.181,-42.09,48.83,64.73,1785099168140.671
0.863,0.039,-0.188,-35.22,43.46,69.58,1785099168140.903
0.889,-0.029,-0.208,-28.26,38.09,74.07,1785099168141.148
0.901,-0.058,-0.232,-23.29,33.05,75.11,1785099168141.4011
0.902,-0.061,-0.241,-22.61,28.17,73.21,1785099168141.645
0.881,-0.064,-0.237,-24.51,24.32,68.61,1785099168141.865
0.861,-0.067,-0.219,-28.05,22.55,62.93,1785099168142.088
0.842,-0.076,-0.194,-30.79,21.39,57.8,1785099168142.3308
0.832,-0.084,-0.187,-31.53,20.51,53.07,1785099168142.548
0.833,-0.068,-0.177,-31.22,19.47,49.99,1785099168142.7742
0.828,-0.053,-0.161,-28.9,17.4,49.29,1785099168143.0002
0.797,-0.045,-0.149,-24.29,15.05,49.62,1785099168143.247
0.762,-0.041,-0.139,-18.49,13.89,50.9,1785099168143.4683
0.738,-0.039,-0.135,-12.67,14.95,52.64,1785099168143.7068
0.735,-0.046,-0.144,-6.96,17.82,53.41,1785099168143.9302
0.742,-0.042,-0.148,-3.27,20.45,53.38,1785099168144.158
0.737,-0.033,-0.141,-1.74,22.37,53.07,1785099168144.381
0.73,-0.028,-0.134,0.46,24.69,53.35,1785099168144.6028
0.727,-0.027,-0.131,4.03,27.22,54.66,1785099168144.824
0.727,-0.025,-0.128,7.14,29.24,56.79,1785099168145.041
0.72,-0.022,-0.112,8.58,30.52,59.18,1785099168145.261
0.708,-0.032,-0.108,9.46,31.77,61.49,1785099168145.48
0.702,-0.05,-0.111,10.1,34.46,63.45,1785099168145.699
0.682,-0.069,-0.102,10.19,37.9,64.91,1785099168145.928
0.676,-0.083,-0.11,10.32,42.15,67.02,1785099168146.152
0.715,-0.093,-0.106,9.98,47.43,70.65,1785099168146.377
0.76,-0.12,-0.087,9.13,50.36,76.08,1785099168146.5918
0.766,-0.151,-0.07,6.81,49.99,81.21,1785099168146.814
0.747,-0.173,-0.039,4.3,49.04,84.84,1785099168147.041
0.737,-0.182,-0.006,3.11,48.52,89.33,1785099168147.254
0.737,-0.193,0.017,3.36,48.1,95.55,1785099168147.4812
0.735,-0.214,0.027,4.73,47.88,101.63,1785099168147.711
0.729,-0.241,0.005,6.07,48.55,106.02,1785099168147.9458
0.729,-0.241,0.005,5.07,50.94,109.01,1785099168148.164
0.752,-0.276,-0.041,0.24,54.75,109.56,1785099168148.3882
0.786,-0.312,-0.04,-5.07,58.14,109.93,1785099168148.6343
0.79,-0.347,-0.028,-10.07,61.56,113.25,1785099168148.884
0.796,-0.369,-0.019,-12.24,64.73,118.63,1785099168149.124
0.804,-0.38,0.042,-12.24,64.73,118.63,1785099168149.3572
0.799,-0.406,0.103,-7.75,67.42,126.44,1785099168149.568
0.817,-0.468,0.126,3.33,70.5,135.5,1785099168149.7952
0.831,-0.513,0.159,16.79,73.12,141.39,1785099168150.023
0.833,-0.558,0.165,29.42,74.19,146.37,1785099168150.2349
0.86,-0.62,0.131,39.7,74.83,150.88,1785099168150.444
0.888,-0.693,0.116,42.7,73.85,151.98,1785099168150.6528
0.902,-0.747,0.114,39.03,70.35,149.6,1785099168150.8638
0.909,-0.785,0.117,34.64,66.38,145.97,1785099168151.074
0.903,-0.773,0.132,32.35,62.53,145.54,1785099168151.304
0.934,-0.827,0.164,31.28,56.49,148.35,1785099168151.5146
0.923,-0.826,0.174,31.95,49.29,147.8,1785099168151.7388
0.961,-0.888,0.143,33.02,39.4,147.95,1785099168151.9492
0.975,-0.927,0.09,32.44,26.89,142.34,1785099168152.155
0.979,-0.962,0.05,28.11,12.67,137.24,1785099168152.364
0.972,-0.983,-0.011,22.86,-3.72,133.09,1785099168152.574
0.991,-1.003,-0.038,16.72,-22.06,128.73,1785099168152.7861
0.998,-1.025,-0.039,10.71,-42.7,121.65,1785099168152.9941
0.953,-0.983,-0.011,8.21,-63.94,112.16,1785099168153.2039
0.898,-0.946,0.004,11.93,-86.18,108.77,1785099168153.415
0.856,-0.989,-0.053,15.14,-108.71,103.82,1785099168153.628
0.786,-1.01,-0.137,11.72,-128.88,94.33,1785099168153.902
0.724,-1.035,-0.243,3.6,-145.3,86.0,1785099168154.114
0.667,-1.037,-0.334,-5.92,-156.07,78.68,1785099168154.324
0.621,-1.036,-0.384,-11.78,-161.47,72.97,1785099168154.5322
0.591,-1.04,-0.423,-11.26,-163.27,67.32,1785099168154.741
0.579,-1.035,-0.448,-4.06,-161.11,60.91,1785099168154.9521
0.564,-1.008,-0.44,7.26,-156.62,53.83,1785099168155.1611
0.556,-0.986,-0.41,23.13,-151.19,48.59,1785099168155.364
0.56,-1.002,-0.389,42.27,-145.88,43.92,1785099168155.568
0.554,-1.013,-0.4,59.11,-140.84,38.73,1785099168155.789
0.538,-1.002,-0.429,70.86,-134.28,35.25,1785099168155.989
0.532,-0.975,-0.451,76.51,-125.92,32.99,1785099168156.1868
0.539,-0.953,-0.451,75.47,-116.92,30.79,1785099168156.393
0.558,-0.943,-0.426,68.18,-107.94,27.86,1785099168156.596
0.583,-0.945,-0.38,57.5,-99.22,23.65,1785099168156.79
0.596,-0.95,-0.316,47.24,-91.1,19.01,1785099168156.996
0.598,-0.958,-0.249,40.31,-84.84,14.59,1785099168157.1982
0.589,-0.962,-0.211,36.84,-80.29,11.17,1785099168157.4011
0.58,-0.949,-0.234,34.52,-76.54,9.03,1785099168157.592
0.575,-0.903,-0.273,31.19,-71.78,8.33,1785099168157.789
0.577,-0.875,-0.303,27.99,-65.52,8.27,1785099168157.992
0.585,-0.855,-0.331,22.89,-58.2,6.81,1785099168158.185
0.585,-0.832,-0.341,15.11,-49.78,4.24,1785099168158.382
0.578,-0.82,-0.329,7.2,-41.66,2.59,1785099168158.591
0.574,-0.821,-0.305,0.82,-34.85,1.74,1785099168158.7808
0.568,-0.828,-0.273,-3.72,-29.51,0.49,1785099168158.9812
0.557,-0.843,-0.251,-7.29,-25.51,-1.62,1785099168159.1943
0.548,-0.865,-0.256,-10.16,-22.0,-3.42,1785099168159.3962
0.541,-0.872,-0.27,-12.79,-17.82,-4.76,1785099168159.589
0.536,-0.872,-0.279,-14.4,-13.86,-5.19,1785099168159.7922
0.533,-0.865,-0.288,-15.96,-10.44,-4.7,1785099168159.992
0.529,-0.855,-0.296,-17.12,-7.08,-3.66,1785099168160.186
0.524,-0.85,-0.29,-18.13,-3.97,-2.87,1785099168160.414
0.516,-0.856,-0.276,-19.78,-1.53,-3.02,1785099168160.651
0.512,-0.873,-0.268,-20.91,0.34,-3.94,1785099168160.863
0.507,-0.882,-0.257,-22.19,1.71,-4.85,1785099168161.074
0.495,-0.874,-0.242,-22.16,1.98,-4.85,1785099168161.3062
0.492,-0.874,-0.233,-19.93,1.43,-3.85,1785099168161.5142
0.49,-0.875,-0.237,-16.33,0.64,-3.3,1785099168161.696
0.486,-0.87,-0.239,-12.97,-0.15,-2.87,1785099168161.8801
0.483,-0.858,-0.236,-8.55,-1.25,-2.08,1785099168162.06
0.477,-0.855,-0.265,3.36,-5.49,-0.43,1785099168162.623
0.467,-0.856,-0.27,3.54,-6.99,-0.46,1785099168162.8052
-0.703,-0.654,-0.513,-2.72,6.87,14.1,1785099168163.006
-0.748,-0.68,-0.492,11.08,7.17,12.27,1785099168163.189
-0.771,-0.683,-0.503,28.05,7.29,9.34,1785099168163.371
-0.789,-0.7,-0.533,44.5,8.76,5.28,1785099168164.981
-0.825,-0.694,-0.57,55.27,10.8,-0.7,1785099168175.4338
-0.86,-0.684,-0.607,61.34,13.89,-5.74,1785099168186.039
-0.912,-0.673,-0.598,64.36,17.58,-10.41,1785099168199.267
-0.949,-0.657,-0.572,68.12,20.02,-13.61,1785099168204.979
-0.947,-0.667,-0.572,76.48,24.45,-15.44,1785099168215.7178
-0.96,-0.655,-0.572,86.76,31.19,-20.45,1785099168228.916
-0.981,-0.639,-0.574,98.03,38.03,-26.06,1785099168234.664
-0.988,-0.644,-0.593,109.29,44.65,-30.95,1785099168245.543
-0.991,-0.648,-0.609,118.75,50.75,-35.0,1785099168256.253
-0.988,-0.659,-0.612,127.6,56.15,-36.84,1785099168269.522
-0.982,-0.675,-0.6,135.9,60.46,-35.92,1785099168275.367
-0.964,-0.681,-0.584,144.2,64.15,-31.65,1785099168286.282
-0.934,-0.694,-0.559,154.42,68.15,-24.38,1785099168299.5022
-0.907,-0.705,-0.523,164.71,70.83,-16.24,1785099168305.3162
-0.873,-0.71,-0.482,172.89,72.21,-7.35,1785099168316.226
-0.83,-0.7,-0.441,177.28,72.82,2.14,1785099168329.4148
-0.789,-0.67,-0.407,175.7,72.33,12.21,1785099168335.193
-0.747,-0.632,-0.373,168.16,70.83,23.01,1785099168346.0059
-0.699,-0.627,-0.362,157.57,69.83,33.39,1785099168359.499
-0.661,-0.637,-0.349,146.73,69.55,42.09,1785099168365.4321
-0.63,-0.66,-0.308,138.43,69.06,50.81,1785099168376.1868
-0.601,-0.671,-0.277,133.34,68.12,59.85,1785099168389.498
-0.576,-0.645,-0.282,129.73,67.69,70.35,1785099168395.4548
-0.543,-0.601,-0.278,125.77,68.7,82.49,1785099168406.16
-0.518,-0.586,-0.241,119.63,69.37,93.81,1785099168419.4272
-0.498,-0.617,-0.204,111.09,69.15,101.99,1785099168425.3582
-0.488,-0.645,-0.157,99.22,68.3,108.43,1785099168436.197
-0.482,-0.668,-0.101,88.02,66.87,115.97,1785099168449.4421
-0.47,-0.7,-0.053,81.45,65.16,124.55,1785099168455.389
-0.46,-0.743,-0.025,80.29,62.44,131.69,1785099168466.1792
-0.45,-0.765,-0.028,81.61,59.42,137.52,1785099168479.473
-0.427,-0.797,-0.101,82.92,58.11,142.7,1785099168485.3972
-0.403,-0.838,-0.202,80.23,60.3,144.41,1785099168496.182
-0.401,-0.863,-0.235,71.5,64.09,142.28,1785099168509.635
-0.406,-0.905,-0.188,61.65,66.87,137.12,1785099168515.35
-0.416,-0.95,-0.085,56.28,68.36,129.58,1785099168526.119
-0.407,-1.008,-0.012,63.2,69.8,122.32,1785099168539.382
-0.376,-1.082,-0.016,82.64,72.54,114.51,1785099168545.2852
-0.353,-1.114,-0.06,106.51,76.82,104.68,1785099168556.2083
-0.34,-1.114,-0.081,129.18,81.91,93.54,1785099168569.6
-0.339,-1.157,-0.119,147.71,86.52,79.5,1785099168575.359
-0.345,-1.166,-0.151,156.22,91.16,62.29,1785099168586.231
-0.337,-1.151,-0.158,160.28,95.86,47.76,1785099168599.4548
-0.308,-1.116,-0.172,164.31,99.77,38.3,1785099168605.3628
-0.263,-1.08,-0.195,167.09,102.05,32.35,1785099168616.211
-0.2,-1.044,-0.22,164.68,102.88,28.5,1785099168629.525
-0.129,-1.029,-0.222,156.29,102.51,25.82,1785099168635.5269
-0.082,-1.039,-0.227,142.55,100.19,23.26,1785099168646.482
-0.063,-1.033,-0.236,124.06,97.05,21.7,1785099168659.662
-0.071,-1.03,-0.248,105.2,94.12,22.06,1785099168665.604
-0.101,-1.035,-0.261,87.89,91.59,22.68,1785099168676.276
-0.148,-1.017,-0.249,72.48,89.94,23.19,1785099168689.538
-0.184,-1.018,-0.212,62.62,90.12,23.83,1785099168695.4392
-0.232,-1.061,-0.16,58.26,91.28,21.0,1785099168706.004
-0.306,-1.088,-0.092,55.51,91.62,15.17,1785099168719.329
-0.368,-1.064,-0.027,53.8,90.67,10.96,1785099168725.177
-0.398,-1.028,0.009,55.42,89.08,9.31,1785099168735.713
-0.406,-1.019,0.018,59.57,87.25,7.51,1785099168746.1519
-0.439,-1.016,0.011,62.87,85.18,2.72,1785099168759.436
-0.489,-1.025,-0.024,64.3,83.13,-3.51,1785099168765.2778
-0.539,-1.043,-0.056,62.65,81.06,-9.58,1785099168775.756
-0.592,-1.045,-0.039,58.14,78.83,-16.08,1785099168786.334
-0.641,-1.054,-0.007,54.02,75.26,-22.06,1785099168799.521
-0.666,-1.057,0.01,51.03,71.99,-27.56,1785099168805.5369
-0.679,-1.032,0.009,50.02,69.0,-33.48,1785099168815.9712
-0.669,-1.004,-0.021,50.6,65.52,-38.7,1785099168829.1973
-0.64,-0.994,-0.059,50.33,62.14,-44.13,1785099168835.811
-0.623,-1.017,-0.082,46.94,58.72,-51.36,1785099168845.711
-0.617,-1.067,-0.086,40.13,54.9,-60.06,1785099168856.316
-0.625,-1.13,-0.064,32.53,51.27,-68.88,1785099168869.616
-0.644,-1.174,-0.02,27.41,47.18,-76.72,1785099168875.645
-0.637,-1.219,0.011,27.41,41.75,-83.74,1785099168886.059
-0.618,-1.272,0.019,30.61,36.13,-91.95,1785099168899.282
-0.61,-1.315,0.009,34.58,31.37,-101.26,1785099168905.234
-0.612,-1.345,-0.013,39.0,26.98,-110.72,1785099168915.946
-0.609,-1.367,-0.043,42.42,24.14,-121.19,1785099168929.165
-0.59,-1.355,-0.067,42.6,23.62,-133.67,1785099168935.303
-0.555,-1.322,-0.096,40.38,22.95,-146.92,1785099168945.845
-0.518,-1.31,-0.12,34.97,21.09,-158.76,1785099168956.591
-0.495,-1.31,-0.142,24.54,18.01,-168.71,1785099168969.9001
-0.487,-1.322,-0.14,11.41,14.68,-176.55,1785099168975.8499
-0.476,-1.338,-0.126,-0.21,11.75,-182.81,1785099168986.514
-0.445,-1.383,-0.115,-7.69,8.94,-188.67,1785099168999.684
-0.417,-1.427,-0.104,-12.21,5.65,-195.87,1785099169005.6992
-0.387,-1.459,-0.109,-14.62,2.26,-202.95,1785099169016.129
-0.357,-1.473,-0.115,-15.47,0.0,-209.14,1785099169029.3901
-0.344,-1.465,-0.102,-14.77,-1.86,-215.19,1785099169035.757
-0.335,-1.441,-0.084,-12.57,-5.19,-220.8,1785099169045.778
-0.318,-1.399,-0.061,-10.9,-9.06,-225.84,1785099169056.4758
-0.284,-1.37,-0.039,-9.67,-12.79,-230.96,1785099169069.762
-0.246,-1.354,-0.022,-10.47,-17.33,-236.43,1785099169075.356
-0.212,-1.35,-0.016,-14.28,-23.26,-242.01,1785099169086.4902
-0.201,-1.343,-0.028,-19.68,-28.35,-247.75,1785099169099.589
-0.2,-1.323,-0.033,-24.87,-32.07,-251.5,1785099169105.535
-0.182,-1.292,-0.034,-29.02,-35.71,-253.52,1785099169116.315
-0.151,-1.237,-0.043,-32.78,-38.3,-256.14,1785099169129.5427
-0.092,-1.181,-0.044,-35.65,-39.19,-257.79,1785099169135.623
-0.028,-1.165,-0.031,-36.65,-38.91,-259.44,1785099169146.2642
-0.004,-1.226,0.003,-35.68,-40.1,-261.79,1785099169159.515
-0.032,-1.3,0.035,-34.12,-43.49,-265.51,1785099169165.234
-0.097,-1.306,0.044,-32.07,-47.46,-268.07,1785099169176.275
-0.097,-1.306,0.044,-30.82,-50.87,-264.56,1785099169189.502
-0.132,-1.224,0.058,-27.34,-52.25,-258.37,1785099169195.395
-0.102,-1.091,0.065,-19.93,-52.49,-254.22,1785099169206.15
-0.016,-0.974,0.028,-13.46,-52.77,-254.83,1785099169219.469
0.075,-0.892,0.006,-8.97,-54.23,-258.64,1785099169225.3508
0.122,-0.837,-0.006,-8.97,-54.23,-258.64,1785099169235.936
0.131,-0.803,-0.002,-3.48,-55.91,-260.54,1785099169246.639
0.13,-0.787,0.03,8.09,-58.35,-258.74,1785099169259.846
0.13,-0.768,0.054,28.08,-61.62,-254.59,1785099169265.858
0.135,-0.693,0.065,53.9,-66.19,-248.33,1785099169276.4941
0.172,-0.635,0.043,82.46,-72.91,-239.72,1785099169289.7083
0.193,-0.581,-0.026,103.0,-81.51,-233.71,1785099169295.657
0.192,-0.465,-0.076,107.24,-88.93,-227.82,1785099169309.243
0.223,-0.363,-0.105,104.43,-94.0,-218.15,1785099169315.057
0.271,-0.329,-0.152,101.6,-96.8,-209.54,1785099169326.08
0.307,-0.32,-0.16,97.38,-98.03,-204.14,1785099169339.2908
0.326,-0.348,-0.158,95.98,-99.31,-199.8,1785099169345.2083
0.324,-0.365,-0.152,97.32,-101.08,-195.75,1785099169356.18
0.318,-0.347,-0.148,102.18,-103.18,-189.06,1785099169369.3782
0.316,-0.304,-0.176,109.07,-105.17,-180.88,1785099169375.3381
0.329,-0.259,-0.201,114.75,-105.84,-172.46,1785099169386.583
0.338,-0.232,-0.216,115.94,-105.93,-165.07,1785099169399.879
0.34,-0.232,-0.211,110.2,-106.81,-159.67,1785099169405.924
0.333,-0.26,-0.187,98.85,-108.71,-156.93,1785099169419.461
0.324,-0.264,-0.206,84.81,-110.05,-155.74,1785099169425.384
0.342,-0.255,-0.246,73.79,-108.8,-151.07,1785099169436.4429
0.372,-0.23,-0.283,68.45,-106.81,-143.28,1785099169449.634
0.385,-0.175,-0.31,68.21,-105.47,-135.87,1785099169455.62
0.39,-0.116,-0.293,72.3,-104.86,-129.89,1785099169469.908
0.407,-0.095,-0.268,81.51,-103.73,-126.16,1785099169474.7961
0.415,-0.087,-0.282,89.82,-101.2,-124.79,1785099169485.919
0.426,-0.057,-0.328,92.53,-97.78,-123.33,1785099169499.341
0.443,-0.068,-0.361,90.88,-95.92,-121.4,1785099169505.352
0.448,-0.086,-0.36,83.56,-96.47,-122.2,1785099169516.0168
0.473,-0.107,-0.361,74.86,-97.2,-121.92,1785099169529.244
0.497,-0.151,-0.374,71.54,-95.65,-119.36,1785099169535.414
0.503,-0.176,-0.393,74.19,-92.78,-114.14,1785099169545.941
0.511,-0.175,-0.413,80.81,-89.42,-106.72,1785099169559.217
0.556,-0.148,-0.482,89.24,-85.39,-98.06,1785099169565.1729
0.627,-0.1,-0.548,95.28,-81.39,-88.66,1785099169575.745
0.652,-0.072,-0.589,97.23,-80.36,-80.84,1785099169586.421
0.663,-0.056,-0.676,96.87,-79.84,-76.45,1785099169599.659
0.696,-0.058,-0.764,95.22,-75.9,-73.95,1785099169605.644
0.711,-0.058,-0.828,92.23,-70.59,-73.34,1785099169616.141
0.73,-0.043,-0.922,89.51,-63.78,-71.57,1785099169629.451
0.768,-0.014,-1.006,85.6,-54.48,-67.9,1785099169635.451
0.815,0.041,-1.064,79.59,-45.35,-63.75,1785099169645.776
0.846,0.081,-1.11,74.22,-37.11,-59.79,1785099169656.508
0.869,0.102,-1.152,69.73,-27.92,-53.74,1785099169669.7559
0.886,0.105,-1.186,65.37,-17.24,-44.43,1785099169675.5981
0.893,0.129,-1.208,59.48,-7.14,-34.94,1785099169686.136
0.898,0.139,-1.209,51.36,4.12,-25.42,1785099169696.6138
0.932,0.131,-1.169,40.62,17.06,-17.24,1785099169709.87
0.944,0.101,-1.1,27.22,27.19,-11.08,1785099169715.826
0.928,0.069,-1.026,11.6,35.52,-5.22,1785099169726.207
0.905,0.043,-0.976,-6.04,42.57,1.59,1785099169739.4868
0.867,0.04,-0.991,-24.87,47.73,9.28,1785099169745.3708
0.83,0.073,-1.087,-41.54,53.65,18.4,1785099169755.6619
0.822,0.136,-1.227,-54.51,63.97,29.05,1785099169766.2917
0.828,0.225,-1.339,-65.25,77.58,41.08,1785099169779.594
0.844,0.287,-1.356,-71.81,92.72,53.83,1785099169785.566
0.848,0.281,-1.274,-73.76,107.06,64.73,1785099169796.101
0.829,0.231,-1.157,-76.24,119.02,72.48,1785099169809.345
0.801,0.17,-1.041,-83.68,129.52,78.83,1785099169815.2617
0.761,0.097,-0.921,-95.03,139.13,84.72,1785099169826.092
0.725,0.039,-0.817,-108.01,146.64,91.95,1785099169839.394
0.694,-0.015,-0.725,-119.3,152.71,100.41,1785099169845.2979
0.667,-0.07,-0.623,-127.38,156.35,108.83,1785099169856.5603
0.652,-0.141,-0.532,-129.15,158.12,116.31,1785099169869.87
0.645,-0.211,-0.463,-124.3,158.79,122.1,1785099169875.773
0.641,-0.268,-0.41,-115.79,158.97,126.53,1785099169889.3518
0.65,-0.32,-0.375,-105.96,158.36,129.86,1785099169895.346
0.66,-0.365,-0.35,-96.22,158.12,131.87,1785099169906.4883
0.661,-0.395,-0.325,-87.92,158.18,132.33,1785099169919.926
0.66,-0.415,-0.301,-81.15,158.02,131.72,1785099169925.7358
0.656,-0.421,-0.265,-77.43,157.75,130.53,1785099169939.2449
0.658,-0.445,-0.224,-76.02,156.65,129.34,1785099169945.2002
0.633,-0.464,-0.193,-74.89,155.52,126.41,1785099169956.1658
0.636,-0.475,-0.152,-73.43,156.16,123.63,1785099169969.428
0.629,-0.502,-0.094,-72.15,154.88,120.58,1785099169975.3179
0.592,-0.519,-0.051,-71.02,152.87,116.82,1785099169986.4321
0.569,-0.519,-0.038,-68.39,153.6,113.07,1785099169999.5671
0.577,-0.499,-0.035,-67.54,154.33,110.54,1785099170005.594
0.585,-0.482,-0.031,-69.25,154.18,108.49,1785099170016.58
0.589,-0.501,0.0,-71.69,155.0,106.72,1785099170029.6772
0.572,-0.53,0.033,-70.41,156.32,105.59,1785099170035.5598
0.544,-0.566,0.062,-61.25,156.9,105.35,1785099170049.28
0.539,-0.595,0.097,-49.56,156.83,103.82,1785099170055.3223
0.513,-0.58,0.104,-39.8,157.17,102.85,1785099170066.3208
0.48,-0.529,0.109,-33.6,156.96,104.22,1785099170079.4968
0.47,-0.494,0.115,-32.65,155.37,106.02,1785099170086.054
0.469,-0.487,0.171,-38.15,153.78,107.0,1785099170096.479
0.454,-0.548,0.252,-41.08,151.86,107.79,1785099170109.6792
0.413,-0.62,0.295,-36.9,149.42,107.58,1785099170115.8918
0.375,-0.64,0.309,-30.24,145.76,108.83,1785099170129.079
0.362,-0.609,0.295,-26.89,142.12,112.55,1785099170135.214
0.368,-0.577,0.273,-26.64,139.35,115.45,1785099170146.055
0.386,-0.567,0.24,-29.6,136.42,116.21,1785099170159.383
0.402,-0.58,0.204,-35.74,134.31,115.12,1785099170165.293
0.408,-0.603,0.175,-42.51,132.79,113.04,1785099170176.2878
0.399,-0.623,0.174,-48.16,131.35,112.86,1785099170189.573
0.371,-0.664,0.193,-50.05,130.28,115.05,1785099170195.6633
0.319,-0.686,0.21,-48.07,130.74,117.34,1785099170206.529
0.274,-0.679,0.251,-44.5,131.93,121.22,1785099170219.752
0.252,-0.679,0.275,-39.49,133.18,126.29,1785099170225.718
0.235,-0.678,0.262,-36.04,134.19,130.01,1785099170239.151
0.247,-0.669,0.249,-37.48,134.43,132.82,1785099170245.114
0.265,-0.682,0.247,-40.96,134.56,133.92,1785099170256.194
0.245,-0.721,0.261,-45.08,134.43,131.9,1785099170269.4343
0.201,-0.778,0.285,-48.65,133.76,129.73,1785099170275.337
0.15,-0.834,0.297,-48.65,132.54,129.58,1785099170286.4312
0.115,-0.861,0.316,-45.66,131.9,132.27,1785099170299.614
0.096,-0.868,0.323,-42.09,132.3,136.2,1785099170305.612
0.073,-0.862,0.313,-41.05,133.37,139.35,1785099170316.7031
0.045,-0.866,0.315,-40.68,134.62,141.94,1785099170329.855
0.014,-0.897,0.313,-39.8,135.04,141.85,1785099170336.0178
-0.01,-0.928,0.315,-41.75,135.11,139.5,1785099170349.267
-0.04,-0.965,0.326,-42.09,135.78,138.22,1785099170355.825
-0.084,-0.975,0.349,-39.09,136.27,138.52,1785099170366.2039
-0.133,-0.938,0.393,-32.78,137.33,141.82,1785099170379.534
-0.195,-0.888,0.431,-23.59,137.39,146.7,1785099170385.524
-0.238,-0.857,0.427,-18.1,135.07,151.16,1785099170396.4421
-0.247,-0.865,0.409,-23.01,129.73,153.39,1785099170409.671
-0.262,-0.922,0.408,-36.99,119.75,154.0,1785099170415.6602
-0.245,-1.031,0.338,-51.18,106.72,155.06,1785099170429.214
-0.235,-1.121,0.255,-65.49,100.28,155.28,1785099170435.091
-0.277,-1.124,0.309,-84.6,98.57,157.87,1785099170446.012
-0.322,-1.048,0.399,-97.96,96.47,166.17,1785099170459.2231
-0.355,-0.968,0.425,-91.86,94.42,179.45,1785099170465.176
-0.355,-0.968,0.425,-66.29,91.37,188.48,1785099170475.736
-0.369,-0.977,0.398,-42.15,86.76,183.05,1785099170489.063
-0.401,-1.067,0.307,-36.32,83.25,168.55,1785099170495.25
-0.448,-1.159,0.202,-44.28,83.5,153.17,1785099170505.95
-0.473,-1.263,0.211,-44.28,83.5,153.17,1785099170519.0378
-0.483,-1.368,0.385,-55.24,82.43,135.9,1785099170524.731
-0.46,-1.469,0.656,-59.6,73.58,116.21,1785099170536.0378
-0.409,-1.539,0.777,-53.71,53.19,96.59,1785099170546.502
-0.349,-1.499,0.62,-44.98,30.79,79.17,1785099170559.757
-0.313,-1.287,0.411,-37.93,16.75,67.51,1785099170565.4841
-0.279,-1.141,0.254,-25.82,11.32,59.48,1785099170576.189
-0.26,-1.116,0.174,-18.77,10.04,44.77,1785099170589.485
-0.258,-1.133,0.174,-22.71,10.04,29.11,1785099170595.4238
-0.278,-1.238,0.209,-27.04,9.74,21.45,1785099170605.8262
-0.34,-1.365,0.257,-31.01,7.57,21.52,1785099170616.3872
-0.376,-1.452,0.278,-31.77,3.81,26.37,1785099170629.632
-0.364,-1.474,0.27,-26.12,0.31,32.29,1785099170635.6108
-0.332,-1.444,0.255,-15.5,-0.67,36.07,1785099170645.8672
-0.307,-1.391,0.233,-5.74,-0.12,36.47,1785099170656.343
-0.298,-1.342,0.217,-1.46,0.92,34.3,1785099170669.596
-0.298,-1.332,0.213,-1.59,1.04,31.53,1785099170675.344
-0.297,-1.342,0.218,-3.14,-0.18,27.13,1785099170685.494
-0.299,-1.35,0.22,-4.24,-1.46,20.72,1785099170695.9429
-0.307,-1.351,0.212,-5.31,-2.62,13.67,1785099170706.4043
-0.315,-1.347,0.207,-7.26,-4.03,7.2,1785099170719.6802
-0.324,-1.342,0.211,-8.64,-5.52,1.37,1785099170725.12
-0.338,-1.325,0.212,-7.63,-7.51,-2.93,1785099170735.4163
-0.346,-1.305,0.208,-5.01,-9.37,-5.19,1785099170747.2021
-0.338,-1.285,0.197,-1.28,-11.11,-6.87,1785099170756.002
-0.326,-1.27,0.195,2.11,-12.45,-9.89,1785099170769.481
-0.32,-1.242,0.189,2.96,-14.13,-15.69,1785099170775.1492
-0.317,-1.207,0.175,0.79,-15.99,-21.7,1785099170785.3599
-0.315,-1.188,0.16,-3.3,-17.27,-25.76,1785099170796.181
-0.318,-1.173,0.16,-7.32,-18.04,-28.53,1785099170809.428
-0.32,-1.16,0.17,-8.06,-18.86,-32.26,1785099170815.2617
-0.322,-1.15,0.169,-6.87,-20.6,-38.09,1785099170825.5679
-0.319,-1.146,0.167,-6.47,-22.0,-44.16,1785099170836.208
-0.316,-1.163,0.186,-5.98,-22.58,-48.65,1785099170849.4138
-0.323,-1.191,0.233,-4.3,-24.66,-51.88,1785099170855.34
-0.33,-1.212,0.264,-1.5,-29.24,-54.9,1785099170865.554
-0.332,-1.222,0.267,0.98,-34.15,-58.53,1785099170876.132
-0.336,-1.208,0.258,0.58,-39.19,-64.0,1785099170889.447
-0.343,-1.166,0.237,-5.43,-44.68,-71.23,1785099170895.342
-0.34,-1.099,0.22,-21.76,-51.97,-78.65,1785099170905.689
-0.299,-1.041,0.194,-47.55,-60.0,-86.83,1785099170916.3157
-0.255,-1.047,0.141,-77.49,-65.74,-96.9,1785099170929.2988
-0.245,-1.084,0.097,-109.81,-69.61,-109.01,1785099170935.641
-0.254,-1.126,0.081,-137.64,-72.15,-120.21,1785099170946.2039
-0.252,-1.2,0.084,-152.35,-72.39,-128.73,1785099170959.6428
-0.256,-1.256,0.105,-151.55,-71.17,-137.67,1785099170965.626
-0.259,-1.268,0.129,-135.35,-69.95,-146.86,1785099170976.6897
-0.261,-1.278,0.093,-107.61,-68.24,-154.88,1785099170989.976
-0.257,-1.29,0.048,-77.88,-65.43,-160.74,1785099170995.954
-0.255,-1.286,0.012,-52.86,-63.51,-165.17,1785099171006.689
-0.245,-1.28,-0.016,-35.46,-62.56,-168.83,1785099171019.9758
-0.238,-1.266,-0.009,-25.27,-62.2,-173.1,1785099171025.856
-0.23,-1.252,-0.025,-19.01,-62.26,-176.85,1785099171036.69
-0.21,-1.22,-0.026,-13.98,-61.77,-180.06,1785099171049.8691
-0.178,-1.199,-0.033,-6.68,-61.71,-182.23,1785099171055.926
-0.128,-1.184,-0.038,2.17,-60.88,-184.15,1785099171066.434
-0.079,-1.189,-0.03,11.44,-61.04,-187.38,1785099171079.712
-0.058,-1.186,-0.025,18.16,-62.5,-191.66,1785099171085.6772
-0.047,-1.16,-0.027,20.36,-64.61,-194.68,1785099171096.4329
-0.021,-1.135,-0.031,19.81,-66.1,-196.11,1785099171109.658
0.023,-1.138,-0.029,20.11,-67.2,-197.82,1785099171115.573
0.064,-1.143,-0.029,21.88,-67.93,-201.48,1785099171126.4
0.088,-1.144,-0.03,24.96,-68.06,-204.96,1785099171139.612
0.103,-1.139,-0.019,28.99,-68.51,-205.76,1785099171145.545
0.124,-1.123,-0.023,33.75,-69.73,-205.66,1785099171156.31
0.15,-1.103,-0.032,37.72,-70.99,-205.48,1785099171169.67
0.179,-1.056,-0.043,40.04,-72.39,-205.33,1785099171175.7021
0.224,-0.998,-0.053,42.27,-72.88,-204.08,1785099171186.296
0.275,-0.946,-0.04,47.12,-72.48,-201.76,1785099171199.539
0.319,-0.922,-0.016,56.12,-72.15,-200.14,1785099171205.513
0.331,-0.922,0.009,67.38,-72.97,-200.29,1785099171216.212
0.317,-0.895,0.017,77.46,-75.11,-200.69,1785099171229.4788
0.319,-0.836,0.009,85.7,-77.58,-198.98,1785099171235.8652
0.358,-0.776,0.015,92.65,-79.96,-195.26,1785099171246.252
0.405,-0.741,0.028,99.12,-82.64,-192.66,1785099171259.439
0.424,-0.723,0.015,105.23,-86.09,-192.14,1785099171265.681
0.426,-0.68,-0.006,108.83,-90.12,-191.08,1785099171276.416
0.437,-0.635,-0.016,111.64,-94.36,-187.08,1785099171289.6519
0.454,-0.594,-0.043,115.36,-97.42,-182.62,1785099171295.604
0.484,-0.547,-0.073,120.3,-98.45,-177.86,1785099171306.5732
0.512,-0.515,-0.08,126.26,-98.88,-172.34,1785099171319.789
0.521,-0.494,-0.056,131.5,-100.25,-167.09,1785099171325.835
0.508,-0.473,-0.051,135.53,-103.09,-162.63,1785099171339.35
0.501,-0.436,-0.049,138.16,-105.72,-158.09,1785099171345.3179
0.509,-0.413,-0.049,139.5,-108.37,-153.02,1785099171356.5598
0.524,-0.386,-0.051,136.45,-111.45,-149.51,1785099171369.8308
0.534,-0.362,-0.061,129.8,-114.35,-147.04,1785099171375.825
0.549,-0.339,-0.081,121.1,-117.62,-144.6,1785099171389.517
0.574,-0.337,-0.118,114.14,-119.48,-141.48,1785099171395.363
0.582,-0.341,-0.13,107.27,-120.27,-138.19,1785099171406.6318
0.579,-0.335,-0.128,101.41,-120.85,-135.04,1785099171419.8599
0.582,-0.319,-0.12,97.11,-120.4,-131.84,1785099171425.8198
0.575,-0.306,-0.137,93.26,-120.27,-130.01,1785099171439.366
0.566,-0.277,-0.148,88.29,-120.49,-128.39,1785099171445.3289
0.571,-0.238,-0.149,84.08,-120.85,-125.58,1785099171456.319
0.594,-0.206,-0.165,82.22,-121.43,-121.86,1785099171469.677
0.616,-0.191,-0.176,81.45,-122.17,-118.84,1785099171475.331
0.622,-0.178,-0.182,79.9,-123.97,-116.73,1785099171486.624
0.618,-0.181,-0.196,78.13,-125.25,-113.99,1785099171499.7812
0.601,-0.188,-0.201,76.05,-125.74,-111.42,1785099171505.697
0.582,-0.179,-0.217,75.14,-125.49,-109.26,1785099171519.3447
0.571,-0.165,-0.229,77.0,-124.24,-106.63,1785099171525.066
0.571,-0.139,-0.24,82.28,-123.08,-102.82,1785099171536.0378
0.573,-0.12,-0.242,90.98,-122.01,-97.9,1785099171549.7432
0.596,-0.09,-0.25,100.01,-122.04,-93.48,1785099171555.553
0.631,-0.087,-0.253,109.35,-121.56,-89.08,1785099171566.459
0.637,-0.095,-0.254,117.83,-123.6,-85.33,1785099171579.99
0.652,-0.103,-0.304,126.22,-125.31,-81.06,1785099171585.8938
0.665,-0.117,-0.334,133.98,-126.19,-74.31,1785099171596.58
0.672,-0.118,-0.396,140.96,-129.12,-67.38,1785099171609.8828
0.694,-0.111,-0.489,144.75,-131.75,-61.8,1785099171615.888
0.722,-0.101,-0.588,141.82,-133.58,-57.53,1785099171629.264
0.727,-0.107,-0.716,132.63,-134.16,-56.43,1785099171635.6921
0.711,-0.126,-0.85,120.43,-131.72,-55.27,1785099171646.207
0.707,-0.14,-1.011,108.62,-125.06,-52.61,1785099171659.4958
0.732,-0.121,-1.159,96.93,-113.9,-51.3,1785099171665.113
0.767,-0.048,-1.308,83.13,-100.83,-51.61,1785099171676.2668
0.789,0.032,-1.452,68.85,-84.57,-51.27,1785099171689.516
0.79,0.105,-1.54,54.45,-66.29,-50.48,1785099171695.4128
0.781,0.223,-1.573,35.98,-48.07,-48.07,1785099171705.999
0.85,0.286,-1.559,14.44,-27.25,-41.66,1785099171716.634
0.907,0.241,-1.455,-5.43,-4.73,-36.1,1785099171729.831
0.915,0.159,-1.241,-20.2,16.6,-29.66,1785099171735.8909
0.945,0.077,-0.963,-28.41,32.26,-19.71,1785099171746.112
0.945,0.077,-0.963,-32.11,38.24,-8.55,1785099171759.402
0.947,0.012,-0.706,-33.69,40.38,1.31,1785099171765.2842
0.955,-0.061,-0.519,-37.02,38.91,7.02,1785099171775.585
0.964,-0.133,-0.393,-38.91,32.69,8.39,1785099171786.282
0.949,-0.174,-0.307,-34.15,22.71,7.29,1785099171799.427
0.929,-0.202,-0.284,-34.15,22.71,7.29,1785099171805.334
0.908,-0.231,-0.31,-25.51,12.21,4.64,1785099171815.552
0.884,-0.238,-0.361,-16.75,4.0,2.23,1785099171826.036
0.869,-0.238,-0.395,-8.06,-1.77,1.01,1785099171836.473
0.866,-0.248,-0.421,2.26,-6.29,-0.21,1785099171849.608
0.855,-0.241,-0.45,12.63,-9.43,-2.44,1785099171855.5168
0.843,-0.209,-0.475,20.81,-12.24,-4.39,1785099171865.7322
0.831,-0.16,-0.503,26.22,-13.43,-5.89,1785099171876.1543
0.834,-0.12,-0.528,28.17,-13.18,-6.62,1785099171889.497
0.857,-0.094,-0.588,27.65,-14.5,-7.2,1785099171895.331
0.858,-0.076,-0.647,24.72,-16.05,-7.17,1785099171905.6057
0.836,-0.051,-0.706,20.14,-13.92,-6.56,1785099171916.18
0.836,-0.031,-0.78,14.77,-7.9,-4.64,1785099171926.6492
0.847,-0.027,-0.845,6.35,-1.89,-2.2,1785099171939.908
0.848,-0.024,-0.878,-4.12,5.55,-0.09,1785099171945.497
0.85,-0.017,-0.901,-15.05,14.22,2.32,1785099171955.721
0.844,-0.01,-0.917,-27.44,23.47,4.61,1785099171966.2678
0.836,0.004,-0.925,-42.45,31.65,6.74,1785099171979.599
0.826,0.015,-0.907,-57.07,38.48,9.98,1785099171985.533
0.816,0.017,-0.868,-68.97,45.93,13.12,1785099171995.8037
0.811,0.023,-0.826,-79.29,52.95,16.63,1785099172006.3528
0.804,0.023,-0.775,-87.56,59.05,20.97,1785099172019.815
0.804,0.012,-0.738,-92.53,64.49,25.85,1785099172025.627
0.805,0.009,-0.722,-95.22,69.55,31.62,1785099172036.243
0.805,0.022,-0.692,-96.74,74.4,37.48,1785099172049.437
0.813,0.033,-0.667,-96.41,78.95,42.82,1785099172055.3843
0.824,0.042,-0.641,-94.76,83.16,47.15,1785099172065.912
0.828,0.03,-0.596,-91.31,87.28,50.87,1785099172076.548
0.831,0.016,-0.54,-86.15,90.37,54.26,1785099172089.7659
0.842,0.007,-0.497,-79.13,92.29,58.02,1785099172095.7283
0.855,-0.0,-0.469,-70.99,93.63,61.71,1785099172106.2678
0.873,-0.01,-0.463,-63.14,94.45,64.76,1785099172119.595
0.888,-0.023,-0.472,-57.5,94.82,67.05,1785099172125.413
0.9,-0.022,-0.475,-55.21,94.85,68.76,1785099172136.0012
0.908,-0.031,-0.458,-53.65,96.01,70.35,1785099172146.582
0.908,-0.05,-0.448,-52.16,97.87,71.11,1785099172159.8489
0.911,-0.07,-0.42,-51.36,99.55,71.2,1785099172166.135
0.898,-0.084,-0.391,-50.36,100.92,71.05,1785099172176.394
0.884,-0.101,-0.36,-49.01,102.36,71.23,1785099172189.6682
0.875,-0.115,-0.315,-49.17,102.82,71.2,1785099172195.57
0.862,-0.137,-0.274,-49.93,102.88,70.96,1785099172206.371
0.847,-0.162,-0.245,-50.48,103.31,70.53,1785099172219.5898
0.848,-0.181,-0.223,-51.18,103.58,70.56,1785099172225.5107
0.848,-0.193,-0.213,-51.97,103.34,71.05,1785099172236.2827
0.848,-0.205,-0.202,-52.52,102.82,72.21,1785099172249.4998
0.853,-0.223,-0.192,-52.74,102.39,73.89,1785099172255.438
0.844,-0.23,-0.182,-52.19,102.39,75.01,1785099172266.288
0.83,-0.247,-0.167,-49.87,103.43,76.17,1785099172279.526
0.803,-0.249,-0.161,-46.54,104.28,77.12,1785099172285.49
0.791,-0.247,-0.163,-43.37,104.92,78.65,1785099172296.2097
0.794,-0.254,-0.168,-41.44,106.3,79.71,1785099172309.48
0.789,-0.252,-0.162,-41.99,107.61,80.2,1785099172315.423
0.783,-0.253,-0.151,-43.28,108.95,81.79,1785099172326.168
0.772,-0.26,-0.139,-45.17,110.11,83.56,1785099172339.456
0.761,-0.261,-0.116,-47.3,111.15,85.54,1785099172345.3923
0.738,-0.268,-0.084,-48.59,111.97,88.14,1785099172356.162
0.714,-0.279,-0.061,-47.82,112.58,90.91,1785099172369.412
0.696,-0.291,-0.061,-45.26,113.83,93.78,1785099172375.322
0.681,-0.291,-0.07,-43.24,115.6,97.17,1785099172386.163
0.685,-0.307,-0.082,-42.97,118.17,101.08,1785099172399.4219
0.683,-0.318,-0.087,-46.11,120.82,102.73,1785099172405.344
0.655,-0.302,-0.08,-51.36,123.11,104.71,1785099172416.43
0.635,-0.304,-0.07,-57.01,125.25,109.38,1785099172429.636
0.617,-0.315,-0.035,-62.69,127.51,114.23,1785099172435.625
0.579,-0.347,0.015,-64.42,129.52,118.96,1785099172446.5781
0.536,-0.361,0.069,-61.43,130.86,123.87,1785099172459.861
0.504,-0.372,0.113,-53.41,131.69,129.67,1785099172465.852
0.481,-0.375,0.137,-44.71,131.75,135.56,1785099172479.316
0.478,-0.373,0.129,-40.77,131.93,140.29,1785099172485.2202
0.489,-0.392,0.108,-43.0,132.54,142.77,1785099172496.286
0.484,-0.433,0.109,-50.9,133.55,143.53,1785099172509.513
0.449,-0.49,0.125,-59.27,134.56,145.12,1785099172515.451
0.4,-0.533,0.149,-63.26,135.35,148.78,1785099172526.2349
0.361,-0.572,0.191,-59.85,136.6,153.97,1785099172539.7273
0.336,-0.631,0.225,-48.83,139.1,158.67,1785099172545.6472
0.292,-0.685,0.247,-35.13,142.46,161.41,1785099172556.698
0.249,-0.725,0.252,-22.22,145.97,164.31,1785099172569.984
0.229,-0.742,0.217,-13.86,150.18,166.54,1785099172575.931
0.227,-0.733,0.198,-14.95,154.91,168.16,1785099172589.4348
0.223,-0.745,0.211,-22.4,159.03,168.77,1785099172595.318
0.188,-0.815,0.262,-29.79,162.82,166.69,1785099172606.2998
0.1,-0.907,0.329,-33.72,165.56,162.72,1785099172619.61
0.005,-0.972,0.399,-31.89,166.51,160.1,1785099172625.492
-0.05,-1.011,0.457,-23.8,166.05,159.25,1785099172636.597
-0.076,-1.014,0.49,-13.28,164.65,158.21,1785099172649.7769
-0.069,-1.022,0.483,-3.72,163.58,156.16,1785099172655.854
-0.048,-1.032,0.466,0.76,161.29,151.83,1785099172666.5652
-0.02,-1.04,0.444,-0.79,157.11,146.49,1785099172679.8342
-0.015,-1.072,0.427,-5.43,153.42,141.27,1785099172685.952
-0.052,-1.1,0.427,-11.78,150.76,135.5,1785099172696.686
-0.099,-1.096,0.446,-17.37,147.86,131.9,1785099172710.1362
-0.106,-1.129,0.483,-18.16,144.38,129.55,1785099172715.882
-0.135,-1.112,0.517,-15.87,139.5,125.22,1785099172729.2979
-0.146,-1.083,0.544,-11.05,133.7,123.91,1785099172735.453
-0.127,-1.102,0.551,-6.65,127.96,122.47,1785099172746.188
-0.124,-1.133,0.542,-7.02,121.71,117.25,1785099172759.4768
-0.131,-1.156,0.54,-11.81,115.09,111.36,1785099172765.394
-0.136,-1.17,0.546,-18.19,108.83,107.18,1785099172776.4539
-0.142,-1.177,0.567,-24.32,102.51,103.85,1785099172789.618
-0.145,-1.194,0.588,-30.58,94.73,99.34,1785099172795.5452
-0.141,-1.219,0.61,-37.63,86.34,93.42,1785099172806.171
-0.13,-1.273,0.631,-43.03,77.88,85.94,1785099172819.4812
-0.131,-1.315,0.643,-46.08,69.52,77.06,1785099172825.3499
-0.135,-1.324,0.649,-46.45,61.62,69.19,1785099172836.0542
-0.135,-1.333,0.655,-44.07,54.02,62.62,1785099172846.508
-0.133,-1.363,0.662,-41.99,46.02,54.81,1785099172859.78
-0.131,-1.4,0.668,-42.24,37.93,45.08,1785099172865.731
-0.124,-1.419,0.677,-42.39,29.79,35.46,1785099172876.262
-0.111,-1.422,0.688,-39.61,21.7,26.25,1785099172889.506
-0.107,-1.407,0.689,-34.64,14.16,16.88,1785099172895.427
-0.107,-1.381,0.684,-29.05,6.87,8.18,1785099172905.7678
-0.101,-1.376,0.669,-23.38,-0.21,0.27,1785099172916.259
-0.102,-1.377,0.658,-18.65,-6.35,-7.2,1785099172929.5293
-0.104,-1.372,0.644,-14.25,-12.33,-13.67,1785099172935.615
-0.104,-1.346,0.62,-9.77,-17.79,-19.59,1785099172945.717
-0.098,-1.316,0.592,-4.91,-22.31,-25.09,1785099172956.2769
-0.091,-1.285,0.572,-1.43,-26.4,-30.49,1785099172969.597
-0.083,-1.272,0.559,1.16,-30.21,-35.52,1785099172975.3862
-0.084,-1.275,0.558,4.49,-33.63,-40.44,1785099172985.7512
-0.096,-1.28,0.573,10.96,-37.17,-44.8,1785099172996.4102
-0.116,-1.285,0.587,21.61,-41.35,-48.86,1785099173009.595
-0.139,-1.288,0.583,34.7,-45.87,-52.92,1785099173015.4878
-0.154,-1.27,0.56,45.01,-51.27,-57.41,1785099173026.031
-0.155,-1.204,0.529,48.98,-57.68,-61.71,1785099173039.3828
-0.155,-1.204,0.529,47.52,-63.66,-65.03,1785099173045.213
-0.133,-1.127,0.486,41.38,-68.76,-69.43,1785099173055.744
-0.097,-1.079,0.449,31.83,-73.76,-76.05,1785099173066.386
-0.065,-1.07,0.432,21.58,-78.37,-83.32,1785099173079.717
-0.056,-1.102,0.427,12.39,-82.71,-89.66,1785099173085.732
-0.074,-1.115,0.465,12.39,-82.71,-89.66,1785099173096.094
