ax,ay,az,gx,gy,gz,timestamp_ms
0.377,-0.602,0.156,52.83,-169.68,-138.49,1785099216491.083
0.42,-0.531,0.114,56.12,-168.58,-134.01,1785099216491.4182
0.463,-0.471,0.055,57.77,-167.0,-130.47,1785099216491.7349
0.499,-0.422,0.011,55.48,-164.28,-127.9,1785099216492.0508
0.533,-0.407,-0.008,51.48,-161.02,-127.32,1785099216492.358
0.542,-0.415,-0.005,47.94,-157.57,-128.85,1785099216492.661
0.52,-0.413,-0.007,45.93,-154.33,-130.16,1785099216492.97
0.497,-0.394,-0.021,45.69,-150.91,-129.61,1785099216493.2769
0.487,-0.368,-0.03,45.2,-147.77,-127.6,1785099216493.571
0.493,-0.327,-0.025,41.84,-145.66,-125.25,1785099216493.8782
0.513,-0.296,-0.037,36.29,-144.35,-123.6,1785099216494.189
0.536,-0.266,-0.066,27.68,-143.07,-123.26,1785099216494.499
0.559,-0.246,-0.096,17.58,-141.33,-122.9,1785099216494.8853
0.583,-0.238,-0.115,9.55,-139.29,-121.52,1785099216495.229
0.6,-0.264,-0.141,7.72,-136.33,-119.75,1785099216495.511
0.603,-0.271,-0.167,10.04,-133.0,-117.92,1785099216495.8147
0.605,-0.253,-0.18,16.21,-129.22,-114.29,1785099216496.153
0.604,-0.232,-0.195,25.27,-126.04,-108.74,1785099216496.471
0.606,-0.192,-0.198,33.39,-123.72,-102.85,1785099216496.7449
0.609,-0.163,-0.189,40.35,-122.59,-97.9,1785099216497.017
0.609,-0.143,-0.183,44.95,-122.23,-94.39,1785099216497.2852
0.61,-0.136,-0.189,47.58,-121.83,-92.14,1785099216497.556
0.625,-0.154,-0.221,49.56,-120.91,-90.76,1785099216497.824
0.651,-0.181,-0.271,50.81,-119.39,-90.03,1785099216498.091
0.675,-0.203,-0.325,51.58,-117.25,-88.56,1785099216498.368
0.703,-0.211,-0.365,52.1,-114.57,-85.63,1785099216498.651
0.722,-0.217,-0.391,52.71,-112.25,-82.71,1785099216498.941
0.728,-0.221,-0.42,53.35,-110.42,-80.63,1785099216499.2002
0.74,-0.231,-0.435,53.04,-108.22,-78.74,1785099216499.464
0.751,-0.238,-0.449,52.25,-106.78,-78.28,1785099216499.727
0.77,-0.237,-0.474,52.34,-105.01,-78.49,1785099216499.9868
0.799,-0.234,-0.487,53.38,-103.31,-78.28,1785099216500.244
0.823,-0.252,-0.489,55.3,-102.42,-79.17,1785099216500.5078
0.827,-0.259,-0.483,56.61,-102.73,-81.45,1785099216500.7832
0.834,-0.249,-0.505,57.28,-103.21,-82.74,1785099216501.036
0.861,-0.23,-0.539,57.41,-103.46,-82.19,1785099216501.291
0.884,-0.213,-0.578,56.37,-104.28,-81.73,1785099216501.548
0.886,-0.172,-0.621,53.87,-105.2,-83.59,1785099216501.8052
0.866,-0.116,-0.639,51.67,-105.75,-85.27,1785099216502.0808
0.844,-0.063,-0.67,52.49,-105.29,-86.18,1785099216502.344
0.82,-0.004,-0.762,55.85,-102.15,-86.49,1785099216502.626
0.816,0.073,-0.902,55.76,-97.42,-85.73,1785099216502.8801
0.814,0.158,-1.05,51.06,-90.33,-84.48,1785099216503.1099
0.805,0.261,-1.264,45.53,-79.53,-81.12,1785099216503.367
0.786,0.418,-1.505,35.58,-64.06,-72.82,1785099216503.6108
0.774,0.614,-1.605,20.51,-43.64,-59.97,1785099216503.846
0.784,0.667,-1.547,15.32,-19.44,-44.37,1785099216504.081
0.805,0.56,-1.39,24.96,7.72,-31.8,1785099216504.3252
0.813,0.431,-1.178,35.19,32.65,-22.03,1785099216504.565
0.796,0.34,-0.964,34.67,49.26,-8.39,1785099216504.7932
0.83,0.265,-0.755,18.37,58.9,8.76,1785099216505.028
0.849,0.18,-0.554,-9.31,62.32,23.8,1785099216505.2668
0.863,0.095,-0.392,-34.49,60.43,35.07,1785099216505.5083
0.884,0.012,-0.288,-46.82,53.93,41.54,1785099216505.76
0.891,-0.053,-0.243,-48.34,44.71,43.18,1785099216506.006
0.889,-0.099,-0.267,-45.99,35.65,41.78,1785099216506.25
0.879,-0.11,-0.31,-44.56,28.26,39.22,1785099216506.483
0.871,-0.114,-0.332,-42.39,22.22,36.5,1785099216506.7808
0.862,-0.131,-0.351,-36.35,18.28,33.17,1785099216507.0432
0.853,-0.135,-0.369,-27.95,15.32,29.63,1785099216507.2861
0.861,-0.13,-0.377,-18.49,12.94,26.28,1785099216507.518
0.878,-0.134,-0.379,-8.42,10.83,22.68,1785099216507.7769
0.878,-0.134,-0.379,1.34,8.51,18.16,1785099216508.047
0.882,-0.149,-0.368,10.19,5.95,13.52,1785099216508.301
0.879,-0.159,-0.371,17.12,4.61,10.04,1785099216508.539
0.881,-0.152,-0.387,20.63,3.81,7.45,1785099216508.7769
0.908,-0.157,-0.399,20.63,3.81,7.45,1785099216508.9978
0.927,-0.166,-0.402,22.13,1.68,4.27,1785099216509.2102
0.905,-0.174,-0.426,22.86,-1.13,1.59,1785099216509.4312
0.916,-0.165,-0.442,21.7,-1.31,0.31,1785099216509.6519
0.914,-0.15,-0.48,17.94,-2.08,-1.74,1785099216509.866
0.901,-0.135,-0.507,11.35,-3.27,-3.81,1785099216510.087
0.903,-0.114,-0.515,5.1,-1.4,-6.26,1785099216510.3098
0.898,-0.098,-0.539,0.21,1.65,-8.58,1785099216510.529
0.888,-0.073,-0.549,-4.88,3.75,-9.86,1785099216510.7432
0.879,-0.049,-0.547,-9.74,5.04,-10.38,1785099216510.9639
0.866,-0.038,-0.542,-12.6,6.56,-9.89,1785099216511.189
0.854,-0.026,-0.538,-13.49,8.73,-8.64,1785099216511.403
0.852,-0.015,-0.52,-13.52,11.08,-6.44,1785099216511.627
0.857,-0.006,-0.505,-11.69,13.15,-3.75,1785099216511.848
0.871,0.001,-0.494,-8.06,14.68,-0.82,1785099216512.064
0.881,0.003,-0.487,-4.49,15.26,1.74,1785099216512.286
0.887,0.002,-0.47,-1.98,15.29,3.91,1785099216512.5088
0.886,-0.008,-0.458,0.64,15.11,5.58,1785099216512.726
0.886,-0.013,-0.461,3.48,14.83,6.84,1785099216512.938
0.898,-0.028,-0.472,5.25,14.71,8.36,1785099216513.1619
0.903,-0.047,-0.466,4.12,14.47,9.64,1785099216513.407
0.897,-0.063,-0.462,1.92,14.04,10.41,1785099216513.6199
0.897,-0.067,-0.469,-0.61,13.73,11.02,1785099216513.845
0.908,-0.072,-0.466,-4.18,13.34,11.41,1785099216514.0679
0.911,-0.083,-0.459,-8.51,12.45,11.08,1785099216514.2952
0.909,-0.09,-0.455,-12.02,11.14,10.56,1785099216514.514
0.903,-0.089,-0.448,-14.8,10.68,9.77,1785099216514.7368
0.909,-0.078,-0.437,-17.15,10.77,9.37,1785099216514.952
0.918,-0.073,-0.421,-18.28,9.95,9.0,1785099216515.1592
0.91,-0.075,-0.414,-18.65,8.79,8.06,1785099216515.3652
0.907,-0.077,-0.412,-17.58,8.24,7.14,1785099216515.5862
0.903,-0.072,-0.412,-15.05,8.09,7.26,1785099216515.793
0.903,-0.07,-0.411,-12.24,7.81,7.97,1785099216515.9932
0.904,-0.079,-0.411,-9.61,7.26,8.15,1785099216516.199
0.903,-0.089,-0.412,-7.69,6.99,7.57,1785099216516.403
0.91,-0.091,-0.422,-6.93,6.71,6.87,1785099216516.602
0.924,-0.091,-0.43,-7.2,6.59,6.01,1785099216516.81
0.924,-0.092,-0.435,-8.45,6.32,4.43,1785099216517.012
0.918,-0.084,-0.431,-10.25,6.32,2.78,1785099216517.213
0.916,-0.076,-0.425,-11.2,6.62,1.71,1785099216517.4219
0.911,-0.067,-0.419,-11.17,6.93,1.04,1785099216517.662
0.907,-0.057,-0.415,-11.11,7.32,0.43,1785099216517.87
0.902,-0.048,-0.408,-11.26,7.75,0.0,1785099216518.09
0.891,-0.04,-0.394,-10.86,7.93,-0.15,1785099216518.302
0.88,-0.034,-0.388,-9.03,8.12,0.24,1785099216518.508
0.873,-0.025,-0.388,-6.1,8.61,1.25,1785099216518.743
0.867,-0.02,-0.387,-3.08,9.46,2.69,1785099216518.967
0.859,-0.016,-0.393,-1.01,10.56,3.57,1785099216519.1948
0.853,-0.014,-0.401,0.49,12.45,4.3,1785099216519.438
0.85,-0.011,-0.403,0.92,14.92,4.97,1785099216519.664
0.85,-0.007,-0.396,0.21,17.15,5.95,1785099216519.875
0.842,0.0,-0.374,-1.56,18.59,7.51,1785099216520.084
0.825,0.007,-0.356,-3.72,19.23,9.37,1785099216520.283
0.807,0.014,-0.34,-5.68,20.26,11.17,1785099216520.4922
0.794,0.028,-0.32,-6.96,21.82,13.34,1785099216520.704
0.782,0.039,-0.297,-6.01,23.99,16.14,1785099216520.9082
0.761,0.046,-0.282,-4.39,26.58,19.17,1785099216521.12
0.745,0.064,-0.261,-4.7,29.73,21.52,1785099216521.333
0.757,0.079,-0.233,-5.22,33.66,23.8,1785099216521.5417
0.774,0.075,-0.211,-4.33,37.54,26.46,1785099216521.751
0.766,0.048,-0.2,-2.29,39.77,29.15,1785099216521.9673
0.753,0.013,-0.202,-0.64,41.47,31.62,1785099216522.1812
0.742,-0.022,-0.201,0.09,44.25,34.15,1785099216522.387
0.737,-0.046,-0.206,0.82,47.82,37.08,1785099216522.603
0.745,-0.063,-0.225,0.82,52.52,39.92,1785099216522.806
0.748,-0.064,-0.242,-1.95,59.36,41.84,1785099216523.0
0.751,-0.055,-0.243,-7.6,67.75,43.89,1785099216523.212
0.761,-0.051,-0.217,-12.85,76.33,46.54,1785099216523.4182
0.768,-0.054,-0.172,-16.14,83.5,50.02,1785099216523.6218
0.773,-0.065,-0.118,-16.54,89.36,55.18,1785099216523.815
0.77,-0.084,-0.049,-14.13,93.36,61.1,1785099216524.016
0.758,-0.114,0.008,-8.64,95.77,67.05,1785099216524.216
0.749,-0.149,0.03,-1.19,98.03,72.12,1785099216524.41
0.758,-0.159,0.055,5.37,100.62,77.09,1785099216524.6123
0.767,-0.163,0.076,11.38,102.88,82.92,1785099216524.817
0.768,-0.192,0.075,17.03,104.89,89.11,1785099216525.0198
0.776,-0.24,0.083,20.72,106.14,94.33,1785099216525.2148
0.783,-0.287,0.095,22.52,106.23,99.25,1785099216525.42
0.811,-0.343,0.089,24.87,105.56,105.5,1785099216525.6362
0.848,-0.391,0.1,27.89,103.52,111.7,1785099216525.842
0.874,-0.435,0.124,32.2,99.89,117.47,1785099216526.044
0.875,-0.457,0.147,37.57,96.1,122.65,1785099216526.252
0.879,-0.472,0.186,42.97,91.59,128.06,1785099216526.476
0.884,-0.502,0.205,49.68,85.91,133.06,1785099216526.67
0.894,-0.542,0.205,55.33,79.17,137.39,1785099216526.872
0.905,-0.56,0.185,58.5,70.35,139.19,1785099216527.081
0.932,-0.573,0.148,58.11,59.79,141.76,1785099216527.282
0.96,-0.614,0.115,53.93,48.34,143.65,1785099216527.479
0.963,-0.647,0.115,47.24,36.84,144.14,1785099216527.683
0.941,-0.655,0.116,41.2,24.51,146.15,1785099216527.889
0.921,-0.664,0.132,37.54,11.54,150.4,1785099216528.085
0.903,-0.7,0.141,38.15,-2.32,154.03,1785099216528.289
0.877,-0.739,0.111,41.84,-15.96,155.98,1785099216528.495
0.844,-0.789,0.041,44.71,-28.84,158.42,1785099216528.6938
0.821,-0.86,-0.039,44.4,-40.41,159.86,1785099216528.882
0.795,-0.893,-0.086,41.63,-50.39,158.91,1785099216529.0771
0.786,-0.918,-0.111,39.55,-59.39,157.23,1785099216529.273
0.78,-0.941,-0.116,38.82,-67.14,153.48,1785099216529.466
0.757,-0.932,-0.111,38.15,-73.09,149.17,1785099216529.666
0.753,-0.948,-0.107,35.95,-78.01,146.18,1785099216529.865
0.758,-0.978,-0.125,30.98,-83.25,140.2,1785099216530.057
0.73,-0.963,-0.168,25.06,-86.98,131.93,1785099216530.2551
0.715,-1.033,-0.298,6.47,-86.95,121.01,1785099216530.6309
0.711,-1.057,-0.317,-7.32,-83.83,112.06,1785099216530.815
-1.087,-0.683,-0.388,-4.85,-10.01,-8.0,1785099216531.168
-1.122,-0.682,-0.375,10.44,-9.13,-8.64,1785099216531.3499
-1.141,-0.676,-0.389,26.49,-9.16,-9.49,1785099216531.538
-1.187,-0.613,-0.377,39.37,-10.68,-11.93,1785099216540.0059
-1.202,-0.55,-0.397,53.8,-11.54,-10.16,1785099216545.651
-1.189,-0.511,-0.432,69.25,-9.03,-8.64,1785099216556.2761
-1.2,-0.47,-0.457,82.74,-6.53,-11.81,1785099216566.787
-1.214,-0.424,-0.484,93.57,-4.73,-14.5,1785099216580.076
-1.213,-0.396,-0.517,102.69,-1.68,-13.7,1785099216585.772
-1.201,-0.411,-0.545,109.71,2.81,-11.38,1785099216596.4812
-1.186,-0.435,-0.555,114.9,8.48,-8.67,1785099216607.008
-1.168,-0.438,-0.545,121.16,13.21,-3.08,1785099216620.414
-1.135,-0.431,-0.536,129.46,16.97,7.14,1785099216626.012
-1.096,-0.413,-0.51,136.48,20.14,20.17,1785099216636.8909
-1.044,-0.401,-0.452,140.45,21.88,34.55,1785099216650.075
-1.001,-0.404,-0.395,144.2,22.06,48.37,1785099216655.8809
-0.959,-0.409,-0.356,147.65,21.64,62.84,1785099216666.954
-0.916,-0.41,-0.311,150.0,20.87,77.64,1785099216680.1028
-0.87,-0.429,-0.272,151.19,19.29,92.41,1785099216685.845
-0.821,-0.457,-0.255,149.45,17.0,106.3,1785099216696.8289
-0.777,-0.499,-0.256,144.14,15.14,118.72,1785099216710.197
-0.755,-0.546,-0.292,137.12,14.01,129.7,1785099216716.132
-0.746,-0.61,-0.272,132.15,15.14,141.0,1785099216727.349
-0.705,-0.684,-0.28,132.73,15.14,151.07,1785099216740.627
-0.665,-0.709,-0.315,132.63,17.49,159.37,1785099216746.5168
-0.656,-0.735,-0.279,135.04,21.85,169.99,1785099216760.263
-0.64,-0.799,-0.233,146.09,25.27,178.69,1785099216766.4158
-0.64,-0.874,-0.195,161.9,28.84,183.02,1785099216776.734
-0.674,-0.899,-0.185,174.14,31.74,187.41,1785099216790.325
-0.692,-0.853,-0.224,178.99,36.13,194.28,1785099216796.191
-0.698,-0.818,-0.257,177.62,43.43,199.71,1785099216807.2268
-0.698,-0.818,-0.257,170.32,50.81,200.08,1785099216820.558
-0.706,-0.819,-0.218,163.3,56.31,195.1,1785099216826.415
-0.697,-0.866,-0.168,162.08,62.84,187.35,1785099216837.468
-0.66,-0.927,-0.138,168.58,70.83,179.97,1785099216850.6829
-0.599,-0.96,-0.102,168.58,70.83,179.97,1785099216856.864
-0.528,-0.949,-0.082,180.12,77.49,172.37,1785099216870.1702
-0.47,-0.914,-0.062,190.8,82.92,163.76,1785099216876.037
-0.439,-0.865,-0.017,194.77,85.91,153.2,1785099216887.0752
-0.4,-0.807,-0.006,191.05,85.39,141.85,1785099216900.289
-0.36,-0.764,-0.017,179.54,83.59,130.86,1785099216906.313
-0.367,-0.732,-0.01,160.92,80.45,120.58,1785099216917.264
-0.396,-0.729,-0.041,139.74,74.65,110.87,1785099216930.493
-0.416,-0.748,-0.085,119.6,69.67,99.52,1785099216936.706
-0.452,-0.776,-0.111,103.82,66.56,86.25,1785099216947.338
-0.492,-0.782,-0.096,92.78,64.67,73.21,1785099216960.602
-0.608,-0.779,-0.065,84.32,57.99,65.22,1785099216966.498
-0.532,-0.833,0.004,84.66,56.76,61.98,1785099216977.041
-0.626,-0.824,0.023,89.45,60.91,43.31,1785099216990.2861
-0.705,-0.841,0.028,87.59,56.55,29.24,1785099216996.223
-0.752,-0.887,0.06,80.94,49.29,18.8,1785099217006.6362
-0.764,-0.907,0.073,78.01,43.37,9.19,1785099217017.296
-0.769,-0.89,0.063,81.09,38.54,-0.18,1785099217030.5369
-0.755,-0.837,0.051,87.47,36.81,-11.26,1785099217036.5132
-0.813,-0.784,0.017,92.65,33.94,-21.03,1785099217046.887
-0.863,-0.756,-0.019,92.87,28.29,-25.51,1785099217060.0151
-0.904,-0.718,-0.035,88.44,21.45,-27.68,1785099217065.763
-0.893,-0.673,-0.052,83.53,17.67,-29.66,1785099217076.6467
-0.887,-0.612,-0.078,76.27,15.35,-34.55,1785099217087.261
-0.882,-0.582,-0.088,66.26,14.4,-38.61,1785099217100.5771
-0.855,-0.598,-0.094,54.26,12.45,-40.83,1785099217106.4302
-0.828,-0.607,-0.078,41.32,9.7,-45.11,1785099217116.547
-0.798,-0.637,-0.07,32.59,8.48,-49.75,1785099217130.116
-0.783,-0.67,-0.077,27.77,8.45,-53.32,1785099217135.858
-0.787,-0.689,-0.114,26.49,7.63,-55.54,1785099217146.271
-0.772,-0.699,-0.162,26.34,7.11,-55.88,1785099217156.843
-0.755,-0.678,-0.195,24.6,7.84,-57.01,1785099217170.1948
-0.766,-0.648,-0.245,21.15,8.91,-57.92,1785099217176.021
-0.772,-0.654,-0.281,15.26,9.7,-56.31,1785099217186.311
-0.783,-0.666,-0.294,6.59,9.37,-55.76,1785099217196.795
-0.777,-0.695,-0.281,0.34,11.29,-57.01,1785099217207.3213
-0.769,-0.775,-0.289,0.18,14.47,-60.18,1785099217220.68
-0.76,-0.826,-0.31,0.98,16.69,-64.49,1785099217226.5798
-0.74,-0.856,-0.322,3.42,18.43,-67.6,1785099217236.747
-0.729,-0.884,-0.334,6.71,19.99,-69.7,1785099217247.358
-0.719,-0.895,-0.339,8.18,20.54,-71.17,1785099217260.716
-0.715,-0.882,-0.361,8.42,20.57,-73.21,1785099217266.598
-0.716,-0.879,-0.4,7.35,21.49,-76.69,1785099217276.759
-0.727,-0.894,-0.447,3.45,22.37,-81.97,1785099217287.32
-0.75,-0.914,-0.469,-3.39,23.68,-88.63,1785099217300.5938
-0.782,-0.938,-0.462,-10.59,24.51,-95.34,1785099217306.471
-0.806,-0.978,-0.451,-14.31,25.42,-102.24,1785099217317.0613
-0.809,-1.018,-0.422,-14.13,27.77,-109.96,1785099217330.2651
-0.792,-1.066,-0.403,-8.73,30.79,-118.56,1785099217336.384
-0.771,-1.09,-0.381,-0.61,33.88,-127.23,1785099217346.897
-0.754,-1.092,-0.368,9.64,36.1,-134.07,1785099217360.2
-0.738,-1.086,-0.379,20.17,37.45,-138.74,1785099217366.019
-0.725,-1.075,-0.407,26.83,38.88,-143.5,1785099217376.721
-0.717,-1.072,-0.383,27.31,41.02,-149.94,1785099217389.942
-0.718,-1.097,-0.371,23.19,41.32,-157.93,1785099217395.8882
-0.717,-1.116,-0.373,15.93,41.63,-165.99,1785099217406.6729
-0.724,-1.119,-0.36,6.99,42.12,-172.09,1785099217417.3538
-0.717,-1.119,-0.343,-0.46,43.15,-174.93,1785099217430.5269
-0.687,-1.143,-0.324,-3.08,44.1,-177.62,1785099217436.4841
-0.655,-1.195,-0.308,-1.31,44.19,-182.07,1785099217447.0122
-0.632,-1.222,-0.274,1.31,43.67,-186.59,1785099217460.244
-0.605,-1.235,-0.254,3.97,43.09,-189.52,1785099217466.1702
-0.597,-1.247,-0.23,4.43,42.6,-192.08,1785099217476.58
-0.588,-1.26,-0.206,1.07,40.38,-192.69,1785099217487.221
-0.57,-1.246,-0.177,-3.11,39.58,-196.72,1785099217500.6257
-0.574,-1.215,-0.141,-6.04,39.49,-203.31,1785099217506.4167
-0.559,-1.206,-0.121,-7.69,38.18,-205.79,1785099217517.0989
-0.515,-1.217,-0.106,-7.42,35.52,-205.05,1785099217530.345
-0.445,-1.227,-0.103,-3.57,33.78,-204.93,1785099217536.543
-0.377,-1.231,-0.115,3.75,34.0,-206.82,1785099217546.7852
-0.324,-1.224,-0.108,11.44,34.03,-209.63,1785099217560.071
-0.294,-1.21,-0.078,17.06,32.07,-212.32,1785099217565.8848
-0.281,-1.186,-0.045,19.9,28.23,-212.9,1785099217576.812
-0.264,-1.174,-0.026,21.52,23.5,-211.22,1785099217590.0117
-0.232,-1.176,-0.019,22.22,18.8,-209.97,1785099217595.925
-0.191,-1.154,-0.026,23.04,14.77,-210.21,1785099217606.7322
-0.14,-1.117,-0.02,24.72,11.75,-210.7,1785099217620.0518
-0.094,-1.098,-0.018,27.38,8.33,-210.73,1785099217625.954
-0.06,-1.076,0.005,27.99,4.15,-209.94,1785099217636.54
-0.033,-1.064,0.035,28.53,-1.16,-208.62,1785099217647.223
-0.02,-1.072,0.049,30.67,-6.81,-207.31,1785099217660.4932
-0.011,-1.077,0.038,33.81,-12.76,-206.06,1785099217666.316
0.008,-1.038,0.023,33.33,-19.14,-204.87,1785099217677.042
0.054,-0.975,-0.009,27.47,-25.54,-203.47,1785099217690.284
0.116,-0.915,-0.02,18.71,-30.3,-201.88,1785099217696.356
0.176,-0.893,-0.004,12.02,-34.46,-200.02,1785099217707.0361
0.213,-0.914,0.039,9.19,-39.28,-198.46,1785099217720.2803
0.207,-0.932,0.085,10.01,-45.23,-198.28,1785099217726.2048
0.176,-0.915,0.107,16.39,-52.19,-196.3,1785099217736.8782
0.174,-0.902,0.115,26.76,-60.12,-191.5,1785099217750.155
0.183,-0.884,0.105,35.62,-68.3,-188.12,1785099217756.127
0.2,-0.852,0.083,40.28,-75.62,-185.13,1785099217766.86
0.231,-0.831,0.055,41.87,-82.0,-181.13,1785099217780.107
0.254,-0.815,0.03,42.73,-87.47,-177.68,1785099217786.414
0.259,-0.788,0.024,43.7,-92.47,-174.23,1785099217796.704
0.265,-0.771,0.016,45.05,-97.35,-170.26,1785099217810.121
0.27,-0.741,-0.012,45.38,-101.9,-167.15,1785099217816.418
0.287,-0.688,-0.042,45.08,-105.14,-163.52,1785099217826.998
0.321,-0.657,-0.074,45.75,-107.49,-159.58,1785099217840.693
0.352,-0.62,-0.089,46.14,-109.44,-157.48,1785099217845.924
0.368,-0.577,-0.068,47.3,-111.82,-155.19,1785099217857.2822
0.366,-0.571,-0.054,51.52,-115.09,-152.5,1785099217870.4883
0.342,-0.567,-0.052,56.43,-118.26,-150.3,1785099217876.384
0.323,-0.524,-0.076,60.15,-121.86,-146.82,1785099217887.451
0.333,-0.472,-0.119,62.96,-124.61,-141.7,1785099217900.663
0.361,-0.436,-0.164,64.64,-126.26,-137.09,1785099217906.7058
0.384,-0.414,-0.222,63.42,-126.87,-133.82,1785099217920.1309
0.39,-0.4,-0.254,58.78,-126.19,-131.14,1785099217926.053
0.39,-0.399,-0.269,52.89,-125.77,-128.42,1785099217937.084
0.383,-0.383,-0.27,47.4,-125.46,-125.55,1785099217950.324
0.383,-0.381,-0.266,45.53,-124.67,-122.68,1785099217956.306
0.378,-0.375,-0.28,44.65,-123.97,-120.76,1785099217967.259
0.378,-0.359,-0.292,43.98,-123.26,-119.14,1785099217980.511
0.382,-0.339,-0.333,43.86,-122.62,-117.13,1785099217986.566
0.401,-0.307,-0.384,42.73,-121.65,-114.44,1785099217999.9822
0.429,-0.282,-0.418,39.61,-120.49,-111.06,1785099218005.716
0.45,-0.282,-0.451,34.79,-118.93,-108.43,1785099218016.939
0.45,-0.284,-0.466,28.32,-117.01,-106.91,1785099218030.177
0.447,-0.278,-0.478,22.55,-114.69,-104.25,1785099218036.209
0.446,-0.267,-0.472,18.28,-112.16,-101.26,1785099218047.1309
0.447,-0.262,-0.452,16.08,-109.9,-98.57,1785099218060.4082
0.443,-0.265,-0.443,16.27,-108.04,-96.53,1785099218066.377
0.44,-0.248,-0.452,17.58,-105.93,-95.19,1785099218077.0627
0.454,-0.237,-0.462,21.24,-102.79,-93.08,1785099218090.361
0.454,-0.237,-0.462,26.58,-99.49,-90.95,1785099218096.38
0.464,-0.237,-0.467,33.14,-96.56,-88.99,1785099218107.708
0.477,-0.244,-0.483,40.86,-93.63,-86.7,1785099218120.191
0.483,-0.251,-0.508,48.92,-90.64,-84.11,1785099218125.931
0.484,-0.25,-0.55,55.12,-87.83,-80.72,1785099218136.605
0.497,-0.238,-0.588,55.12,-87.83,-80.72,1785099218147.1958
0.518,-0.234,-0.627,58.47,-84.84,-77.21,1785099218160.4768
0.532,-0.239,-0.66,59.11,-82.13,-74.16,1785099218166.357
0.536,-0.25,-0.672,58.35,-79.53,-71.69,1785099218176.9368
0.534,-0.265,-0.684,57.99,-75.99,-69.46,1785099218190.2231
0.533,-0.27,-0.698,58.32,-71.96,-67.23,1785099218196.1018
0.546,-0.258,-0.703,58.11,-67.87,-64.33,1785099218206.6099
0.579,-0.25,-0.725,58.38,-63.84,-60.73,1785099218217.283
0.626,-0.261,-0.746,58.08,-60.24,-58.32,1785099218230.5068
0.657,-0.266,-0.761,55.51,-57.99,-57.53,1785099218236.4778
0.667,-0.263,-0.783,52.03,-56.7,-57.16,1785099218246.956
0.683,-0.259,-0.813,49.62,-55.39,-55.85,1785099218260.225
0.686,-0.265,-0.828,48.49,-54.75,-53.9,1785099218266.203
0.683,-0.264,-0.845,47.79,-54.6,-50.48,1785099218276.6787
0.679,-0.266,-0.858,47.24,-53.62,-46.3,1785099218287.33
0.677,-0.261,-0.865,47.3,-51.45,-43.37,1785099218300.8
0.693,-0.249,-0.907,48.34,-47.85,-41.57,1785099218306.508
0.719,-0.235,-0.929,47.94,-43.06,-41.63,1785099218317.034
0.731,-0.24,-0.929,46.66,-38.61,-42.76,1785099218330.2798
0.728,-0.258,-0.955,45.9,-34.94,-43.67,1785099218336.184
0.722,-0.256,-0.954,43.95,-31.65,-41.41,1785099218346.7588
0.706,-0.251,-0.936,43.52,-28.6,-36.5,1785099218357.352
0.709,-0.237,-0.928,44.53,-24.9,-30.73,1785099218370.647
0.71,-0.207,-0.899,44.8,-20.91,-25.85,1785099218376.596
0.707,-0.19,-0.866,45.66,-17.76,-23.1,1785099218387.0981
0.706,-0.215,-0.876,48.37,-14.56,-22.22,1785099218400.3047
0.7,-0.237,-0.892,48.68,-10.41,-21.91,1785099218406.2778
0.707,-0.25,-0.884,47.0,-6.32,-20.08,1785099218416.669
0.704,-0.267,-0.87,44.5,-3.66,-17.37,1785099218427.252
0.7,-0.268,-0.855,40.86,-0.27,-15.96,1785099218440.4568
0.735,-0.292,-0.811,36.56,4.33,-15.56,1785099218446.364
0.725,-0.329,-0.824,31.37,0.09,-14.8,1785099218456.682
0.692,-0.292,-0.767,25.51,2.72,-15.44,1785099218467.229
0.698,-0.318,-0.731,20.54,9.37,-17.12,1785099218480.5078
0.701,-0.355,-0.713,14.53,8.91,-16.57,1785099218486.207
0.698,-0.34,-0.672,10.19,7.2,-13.67,1785099218496.6882
0.695,-0.308,-0.677,10.5,4.73,-10.9,1785099218507.432
0.69,-0.271,-0.69,11.54,3.33,-10.56,1785099218520.6023
0.684,-0.272,-0.711,12.12,3.97,-11.35,1785099218526.425
0.668,-0.277,-0.74,11.11,4.49,-11.35,1785099218536.792
0.673,-0.282,-0.763,10.5,5.49,-8.73,1785099218547.283
0.694,-0.285,-0.774,10.5,7.97,-4.64,1785099218560.373
0.708,-0.279,-0.792,8.64,8.51,-0.7,1785099218566.1921
0.722,-0.246,-0.779,3.36,12.45,-0.82,1785099218576.3801
0.713,-0.24,-0.787,-4.21,16.17,-0.98,1785099218586.767
0.719,-0.27,-0.784,-14.22,16.45,0.67,1785099218597.2559
0.72,-0.286,-0.777,-23.35,17.18,3.33,1785099218610.536
0.734,-0.303,-0.808,-28.53,20.54,8.21,1785099218616.702
0.77,-0.276,-0.862,-34.91,19.53,12.48,1785099218626.9
0.761,-0.22,-0.937,-44.89,15.14,13.18,1785099218640.065
0.75,-0.177,-0.982,-56.67,18.62,11.6,1785099218645.99
0.732,-0.175,-1.011,-68.0,25.94,12.18,1785099218656.547
0.752,-0.173,-0.99,-77.33,35.19,13.31,1785099218667.5142
0.74,-0.172,-0.962,-83.96,41.44,13.34,1785099218680.429
0.722,-0.17,-0.938,-87.34,45.72,15.99,1785099218686.468
0.729,-0.166,-0.93,-86.61,51.03,21.91,1785099218696.856
0.716,-0.149,-0.94,-83.53,54.75,28.32,1785099218710.1492
0.705,-0.136,-0.936,-79.01,56.37,37.66,1785099218716.2083
0.702,-0.14,-0.908,-71.6,60.34,47.49,1785099218726.615
0.712,-0.143,-0.877,-62.93,69.22,52.89,1785099218737.268
0.716,-0.159,-0.843,-55.39,80.02,55.06,1785099218750.5122
0.722,-0.195,-0.816,-50.11,87.5,56.58,1785099218756.4238
0.74,-0.228,-0.815,-48.65,90.0,57.83,1785099218766.9429
0.746,-0.25,-0.836,-49.5,90.03,59.76,1785099218780.2197
0.742,-0.242,-0.867,-52.4,92.44,62.29,1785099218786.171
0.725,-0.231,-0.866,-55.79,98.54,63.78,1785099218796.612
0.702,-0.234,-0.832,-60.21,104.19,64.42,1785099218807.368
0.699,-0.257,-0.785,-64.85,107.43,66.01,1785099218820.697
0.691,-0.292,-0.717,-67.81,109.53,67.38,1785099218826.6868
0.676,-0.316,-0.641,-66.9,111.33,69.22,1785099218837.367
0.666,-0.335,-0.571,-61.49,112.19,71.57,1785099218850.587
0.663,-0.333,-0.535,-54.93,112.37,72.54,1785099218856.6511
0.675,-0.316,-0.549,-50.39,113.16,72.7,1785099218867.501
0.685,-0.307,-0.575,-48.71,115.24,73.52,1785099218880.534
0.69,-0.307,-0.587,-49.26,119.6,73.43,1785099218886.534
0.69,-0.32,-0.597,-51.91,123.81,73.15,1785099218897.286
0.679,-0.338,-0.563,-55.54,126.99,73.98,1785099218910.525
0.656,-0.348,-0.502,-57.68,129.95,73.4,1785099218916.474
0.63,-0.351,-0.454,-57.68,131.32,73.52,1785099218927.254
0.611,-0.356,-0.442,-55.57,131.57,74.77,1785099218940.4932
0.598,-0.333,-0.435,-53.56,131.99,76.24,1785099218946.4263
0.584,-0.321,-0.426,-51.58,133.61,77.94,1785099218957.2249
0.573,-0.314,-0.419,-50.97,137.27,79.26,1785099218970.571
0.578,-0.305,-0.384,-52.06,142.83,78.28,1785099218976.5989
0.575,-0.337,-0.335,-52.95,146.03,77.52,1785099218987.393
0.552,-0.368,-0.282,-53.41,148.63,77.0,1785099219000.4658
0.526,-0.387,-0.25,-51.58,151.19,77.55,1785099219006.408
0.518,-0.398,-0.23,-49.04,152.5,79.56,1785099219017.3289
0.522,-0.395,-0.215,-49.32,152.53,81.45,1785099219030.462
0.524,-0.391,-0.189,-53.38,151.68,82.37,1785099219036.562
0.504,-0.394,-0.142,-60.18,149.94,82.31,1785099219047.08
0.482,-0.402,-0.111,-67.05,147.25,81.85,1785099219060.3599
0.487,-0.413,-0.115,-70.01,145.73,82.77,1785099219066.323
0.513,-0.413,-0.103,-68.12,146.0,85.91,1785099219077.0737
0.545,-0.436,-0.08,-59.66,147.16,90.24,1785099219090.3108
0.567,-0.451,-0.059,-46.94,148.44,93.6,1785099219096.385
0.575,-0.452,-0.053,-32.59,149.88,95.55,1785099219107.1018
0.583,-0.45,-0.076,-20.45,151.65,97.57,1785099219120.317
0.594,-0.436,-0.107,-15.75,153.17,100.16,1785099219126.215
0.596,-0.421,-0.112,-19.99,154.45,102.57,1785099219137.216
0.573,-0.418,-0.091,-30.58,155.22,104.74,1785099219150.442
0.53,-0.443,-0.025,-42.24,155.64,106.94,1785099219156.414
0.46,-0.485,0.064,-50.26,155.19,108.62,1785099219167.4612
0.393,-0.502,0.127,-51.36,153.75,111.24,1785099219180.705
0.372,-0.481,0.147,-44.31,152.99,116.73,1785099219186.595
0.4,-0.449,0.147,-33.27,154.06,123.69,1785099219200.1028
0.443,-0.457,0.143,-20.39,155.61,128.06,1785099219206.031
0.458,-0.482,0.134,-9.55,157.63,129.49,1785099219216.96
0.45,-0.524,0.121,-2.35,160.22,131.41,1785099219230.2092
0.412,-0.588,0.128,-0.58,161.78,134.22,1785099219236.156
0.345,-0.672,0.153,-5.01,161.69,137.3,1785099219246.902
0.267,-0.749,0.189,-14.1,160.99,140.9,1785099219261.686
0.21,-0.789,0.224,-25.06,160.71,146.09,1785099219265.9897
0.197,-0.804,0.277,-34.0,160.99,151.31,1785099219276.8882
0.215,-0.832,0.308,-37.63,160.41,153.14,1785099219290.372
0.218,-0.867,0.317,-36.84,159.43,150.94,1785099219296.494
0.207,-0.897,0.331,-34.79,158.09,146.64,1785099219307.6648
0.178,-0.97,0.354,-30.88,156.1,142.49,1785099219320.472
0.126,-1.059,0.395,-26.15,153.97,137.76,1785099219326.802
0.091,-1.159,0.489,-19.9,152.01,132.82,1785099219340.04
0.07,-1.246,0.601,-11.02,148.11,124.61,1785099219345.8472
0.075,-1.278,0.666,-1.74,142.19,113.44,1785099219356.899
0.093,-1.254,0.698,4.61,135.14,103.31,1785099219370.2358
0.095,-1.169,0.721,10.25,126.35,94.61,1785099219376.216
0.095,-1.169,0.721,21.76,116.12,86.58,1785099219386.862
0.12,-1.118,0.695,33.27,106.05,76.66,1785099219400.1082
0.172,-1.083,0.646,42.57,98.79,68.54,1785099219406.038
0.244,-1.072,0.601,55.06,95.8,63.48,1785099219416.6619
0.289,-1.108,0.58,70.47,93.51,60.85,1785099219427.271
0.277,-1.113,0.587,70.47,93.51,60.85,1785099219440.5251
0.251,-1.11,0.578,85.39,90.55,59.14,1785099219446.504
0.206,-1.066,0.576,92.07,88.02,57.1,1785099219457.017
0.172,-0.996,0.596,88.69,84.14,57.16,1785099219470.318
0.155,-0.933,0.618,78.19,79.62,58.44,1785099219475.785
0.148,-0.876,0.614,62.93,74.59,59.02,1785099219486.5679
0.156,-0.853,0.582,46.78,69.15,59.02,1785099219497.406
0.184,-0.826,0.528,29.33,64.76,58.75,1785099219510.635
0.202,-0.826,0.48,13.61,62.96,58.75,1785099219516.5989
0.173,-0.815,0.442,-0.76,62.81,59.76,1785099219526.992
0.125,-0.819,0.423,-16.24,64.36,63.26,1785099219540.28
0.08,-0.831,0.424,-32.72,64.76,68.24,1785099219546.197
0.057,-0.823,0.43,-45.84,66.35,69.55,1785099219556.729
-0.01,-0.845,0.424,-57.19,68.45,73.06,1785099219567.42
-0.05,-0.954,0.437,-66.41,70.93,84.72,1785099219580.5813
-0.071,-0.999,0.445,-71.14,71.41,90.06,1785099219586.569
-0.115,-0.985,0.441,-73.21,70.83,90.37,1785099219596.844
-0.122,-0.995,0.441,-75.23,70.47,92.75,1785099219610.4153
-0.141,-1.003,0.441,-77.85,69.37,92.17,1785099219616.579
-0.153,-1.03,0.429,-79.81,66.9,91.46,1785099219626.7952
-0.142,-1.079,0.401,-80.32,64.15,89.91,1785099219637.4631
-0.146,-1.103,0.388,-80.6,62.96,83.44,1785099219650.692
-0.168,-1.111,0.412,-80.66,61.59,76.94,1785099219656.8452
-0.175,-1.16,0.446,-77.3,58.75,74.19,1785099219667.067
-0.166,-1.216,0.475,-69.92,54.81,69.55,1785099219680.5278
-0.166,-1.221,0.498,-61.37,49.23,62.78,1785099219688.055
-0.149,-1.203,0.504,-52.22,42.85,56.37,1785099219696.657
-0.124,-1.176,0.499,-43.61,36.74,48.62,1785099219707.581
-0.105,-1.186,0.483,-33.94,31.43,40.25,1785099219720.777
-0.102,-1.231,0.462,-22.92,27.5,31.71,1785099219726.6792
-0.118,-1.259,0.468,-11.99,23.44,24.6,1785099219737.302
-0.131,-1.258,0.454,-1.1,19.14,19.17,1785099219750.3901
-0.136,-1.233,0.428,6.71,15.66,14.37,1785099219756.426
-0.139,-1.192,0.399,7.81,12.39,9.31,1785099219766.567
-0.142,-1.162,0.373,2.66,9.13,4.97,1785099219776.939
-0.147,-1.151,0.365,-5.71,5.86,1.53,1785099219787.5369
-0.159,-1.159,0.359,-13.52,3.14,-0.21,1785099219800.1921
-0.176,-1.169,0.36,-19.71,0.89,-0.49,1785099219806.376
-0.184,-1.174,0.37,-22.61,-1.1,-0.06,1785099219816.6023
-0.186,-1.182,0.373,-21.3,-2.35,0.09,1785099219827.008
-0.179,-1.181,0.378,-18.56,-3.45,-0.46,1785099219837.545
-0.16,-1.18,0.387,-15.78,-5.04,-2.23,1785099219850.775
-0.145,-1.176,0.393,-12.51,-6.53,-4.79,1785099219856.704
-0.145,-1.168,0.396,-8.85,-7.75,-7.6,1785099219866.567
-0.148,-1.169,0.396,-5.28,-9.46,-11.29,1785099219876.966
-0.152,-1.175,0.387,-3.02,-12.18,-16.36,1785099219890.434
-0.156,-1.173,0.386,-4.3,-15.35,-21.49,1785099219896.3608
-0.159,-1.17,0.401,-7.66,-18.49,-26.03,1785099219906.504
-0.161,-1.174,0.427,-10.01,-22.1,-30.73,1785099219917.507
-0.155,-1.185,0.448,-10.35,-26.49,-36.07,1785099219930.4067
-0.152,-1.185,0.453,-10.86,-31.65,-42.33,1785099219936.599
-0.154,-1.179,0.462,-11.08,-37.26,-48.62,1785099219946.777
-0.159,-1.187,0.464,-10.65,-43.18,-54.48,1785099219957.335
-0.166,-1.19,0.466,-10.96,-49.62,-60.37,1785099219970.741
-0.161,-1.181,0.475,-11.75,-56.76,-65.4,1785099219976.758
-0.136,-1.184,0.475,-10.99,-63.3,-70.38,1785099219987.2761
-0.112,-1.19,0.475,-7.51,-68.36,-76.94,1785099220000.3252
-0.116,-1.204,0.474,-0.03,-72.88,-84.66,1785099220006.378
-0.135,-1.213,0.47,8.24,-77.82,-91.65,1785099220016.9348
-0.142,-1.22,0.463,13.12,-83.62,-97.48,1785099220027.193
-0.147,-1.214,0.47,14.65,-89.91,-102.97,1785099220040.502
-0.15,-1.197,0.479,15.08,-96.35,-107.73,1785099220046.437
-0.152,-1.168,0.48,15.17,-104.07,-112.67,1785099220057.3142
-0.146,-1.168,0.451,13.82,-111.67,-117.83,1785099220070.592
-0.137,-1.178,0.414,8.0,-118.93,-124.49,1785099220076.494
-0.122,-1.174,0.363,-2.72,-125.71,-131.9,1785099220087.377
-0.091,-1.157,0.321,-15.35,-130.07,-138.25,1785099220100.545
-0.038,-1.145,0.289,-24.23,-131.26,-143.77,1785099220106.538
0.007,-1.159,0.293,-25.24,-129.64,-148.32,1785099220120.034
0.024,-1.162,0.329,-17.88,-127.96,-150.82,1785099220125.958
0.031,-1.145,0.366,-1.8,-126.5,-149.88,1785099220136.889
0.051,-1.133,0.407,19.78,-126.8,-147.86,1785099220150.0808
0.085,-1.114,0.396,42.09,-128.73,-146.49,1785099220156.133
0.117,-1.085,0.35,59.42,-129.89,-145.18,1785099220167.104
0.145,-1.061,0.294,68.21,-131.47,-144.44,1785099220180.342
0.175,-1.013,0.245,67.51,-132.63,-144.6,1785099220186.303
0.216,-0.959,0.22,60.15,-132.21,-144.72,1785099220197.2852
0.263,-0.937,0.225,50.17,-131.63,-145.79,1785099220210.521
0.292,-0.941,0.246,42.66,-131.5,-147.98,1785099220216.7107
0.302,-0.924,0.254,39.49,-130.95,-149.24,1785099220229.933
0.325,-0.89,0.265,41.35,-129.95,-148.2,1785099220235.906
0.348,-0.86,0.281,46.14,-129.37,-146.06,1785099220246.91
0.355,-0.819,0.296,52.0,-130.01,-144.75,1785099220260.255
0.363,-0.788,0.304,59.91,-131.32,-142.58,1785099220266.2148
0.376,-0.774,0.281,68.67,-133.09,-140.14,1785099220277.21
0.393,-0.728,0.239,73.95,-134.86,-137.91,1785099220290.397
0.431,-0.701,0.209,76.54,-135.75,-134.59,1785099220296.5332
0.456,-0.68,0.201,75.87,-136.81,-132.11,1785099220307.4739
0.465,-0.654,0.194,73.43,-138.71,-130.38,1785099220320.647
0.467,-0.621,0.165,69.61,-140.48,-128.09,1785099220327.005
0.49,-0.59,0.134,64.73,-141.64,-124.64,1785099220340.037
0.517,-0.562,0.105,58.72,-142.09,-121.19,1785099220346.0789
0.542,-0.542,0.083,52.95,-142.03,-118.29,1785099220357.138
0.559,-0.54,0.064,49.29,-140.93,-116.43,1785099220370.259
0.565,-0.506,0.042,47.03,-139.96,-114.47,1785099220376.343
0.586,-0.475,0.052,46.6,-139.16,-110.81,1785099220387.51
0.589,-0.47,0.076,47.94,-139.1,-108.65,1785099220400.4722
0.578,-0.455,0.059,49.62,-139.71,-107.67,1785099220406.453
0.595,-0.438,0.025,51.85,-139.65,-105.11,1785099220417.5251
0.629,-0.437,-0.016,54.66,-139.56,-101.57,1785099220430.6938
0.649,-0.414,-0.071,54.17,-139.65,-98.54,1785099220436.663
0.671,-0.368,-0.105,50.14,-139.38,-95.28,1785099220449.996
0.694,-0.375,-0.127,47.85,-138.13,-92.2,1785099220456.141
0.69,-0.392,-0.154,45.93,-136.91,-90.82,1785099220466.781
0.677,-0.381,-0.147,42.3,-135.62,-89.27,1785099220480.0662
0.666,-0.37,-0.136,39.37,-134.95,-87.04,1785099220485.6638
0.65,-0.362,-0.149,37.45,-134.22,-86.0,1785099220496.756
0.653,-0.341,-0.182,34.61,-132.39,-84.9,1785099220507.5938
0.679,-0.343,-0.218,32.38,-129.28,-83.22,1785099220520.76
0.703,-0.334,-0.241,29.15,-126.99,-81.85,1785099220526.3723
0.72,-0.316,-0.25,25.61,-125.19,-80.39,1785099220537.455
0.73,-0.308,-0.268,23.38,-123.63,-79.01,1785099220550.6921
0.734,-0.302,-0.299,21.82,-121.77,-77.97,1785099220556.652
0.736,-0.289,-0.307,19.99,-119.79,-76.39,1785099220567.509
0.737,-0.294,-0.307,20.08,-118.05,-74.07,1785099220580.627
0.731,-0.297,-0.311,22.58,-116.43,-72.21,1785099220586.7021
0.72,-0.295,-0.313,26.86,-114.54,-70.86,1785099220597.3171
0.709,-0.289,-0.327,32.53,-112.55,-69.83,1785099220610.6118
0.708,-0.261,-0.348,37.17,-110.75,-68.61,1785099220616.802
0.732,-0.249,-0.365,39.98,-108.83,-67.11,1785099220627.4739
0.748,-0.253,-0.378,40.56,-107.46,-66.87,1785099220640.6091
0.756,-0.255,-0.397,40.22,-106.88,-66.65,1785099220646.497
0.765,-0.264,-0.42,40.22,-106.42,-65.34,1785099220657.331
0.762,-0.264,-0.437,39.64,-106.02,-63.75,1785099220670.6628
0.762,-0.264,-0.437,38.82,-105.5,-62.2,1785099220676.6309
0.756,-0.259,-0.456,37.63,-104.8,-61.13,1785099220687.2478
0.759,-0.255,-0.486,35.49,-103.34,-60.61,1785099220700.579
0.765,-0.246,-0.512,32.65,-101.23,-60.43,1785099220706.476
0.763,-0.232,-0.527,32.65,-101.23,-60.43,1785099220717.207
0.749,-0.22,-0.516,30.64,-99.15,-60.3,1785099220730.4229
0.727,-0.204,-0.495,31.4,-97.48,-60.55,1785099220736.565
0.72,-0.185,-0.48,36.1,-95.52,-60.12,1785099220747.0842
0.728,-0.18,-0.499,44.25,-93.91,-59.18,1785099220760.235
0.744,-0.175,-0.568,51.48,-92.68,-58.99,1785099220766.15
0.774,-0.17,-0.625,54.63,-89.94,-59.11,1785099220776.633
0.791,-0.191,-0.637,55.45,-87.37,-59.14,1785099220787.456
0.764,-0.215,-0.648,55.85,-85.73,-60.85,1785099220800.5051
0.75,-0.22,-0.688,56.64,-83.22,-60.76,1785099220806.4648
0.772,-0.205,-0.734,57.01,-81.45,-56.67,1785099220816.9912
0.795,-0.159,-0.776,55.06,-78.8,-54.78,1785099220830.303
0.806,-0.122,-0.829,50.2,-75.47,-55.12,1785099220836.308
0.812,-0.091,-0.852,43.79,-69.7,-56.34,1785099220846.667
0.795,-0.087,-0.875,37.72,-64.42,-56.61,1785099220857.408
0.783,-0.062,-0.904,31.04,-61.25,-55.3,1785099220870.6492
0.767,-0.027,-0.918,24.96,-57.53,-53.65,1785099220876.491
0.738,0.015,-0.943,19.81,-51.33,-52.4,1785099220887.0242
0.744,0.064,-0.98,17.27,-43.03,-49.75,1785099220900.3652
0.76,0.087,-1.013,17.91,-34.12,-45.84,1785099220906.204
0.76,0.106,-1.018,18.31,-25.09,-41.02,1785099220916.7
0.771,0.098,-1.005,19.2,-15.78,-34.09,1785099220927.3423
0.776,0.077,-0.956,19.23,-7.29,-26.83,1785099220940.7869
0.764,0.06,-0.891,18.49,-1.19,-20.54,1785099220946.647
0.776,0.038,-0.822,16.45,4.33,-14.86,1785099220956.9011
0.795,0.008,-0.749,13.49,9.03,-9.64,1785099220967.272
0.794,-0.026,-0.673,8.67,10.35,-5.25,1785099220981.293
0.804,-0.071,-0.602,2.59,9.43,-1.95,1785099220986.016
0.805,-0.112,-0.553,-2.59,7.05,0.0,1785099220996.23
0.802,-0.14,-0.52,-5.52,4.67,1.04,1785099221006.6262
0.798,-0.161,-0.513,-4.46,2.01,1.1,1785099221017.0232
0.8,-0.165,-0.533,-1.04,-1.13,1.01,1785099221027.461
0.8,-0.169,-0.541,2.78,-4.33,0.55,1785099221040.689
0.793,-0.17,-0.565,7.57,-7.08,-0.79,1785099221046.266
0.787,-0.171,-0.587,12.97,-9.28,-1.62,1785099221056.4458
0.783,-0.172,-0.609,18.28,-10.68,-2.56,1785099221067.1448
0.782,-0.167,-0.625,22.16,-11.54,-3.33,1785099221080.212
0.782,-0.156,-0.652,23.13,-11.9,-3.85,1785099221086.209
0.78,-0.139,-0.661,19.1,-12.39,-3.85,1785099221096.502
0.769,-0.13,-0.657,12.97,-12.6,-3.97,1785099221107.1018
0.754,-0.129,-0.651,7.57,-12.12,-3.33,1785099221117.4688
0.746,-0.122,-0.656,4.12,-10.16,-2.26,1785099221130.709
0.748,-0.114,-0.674,1.71,-7.78,-0.82,1785099221136.7722
0.749,-0.104,-0.688,-0.46,-5.46,0.49,1785099221146.477
0.752,-0.105,-0.694,-1.56,-3.14,1.53,1785099221159.19
0.751,-0.119,-0.687,-1.59,-1.19,2.59,1785099221168.227
0.747,-0.126,-0.678,-2.26,0.52,3.57,1785099221180.49
0.744,-0.132,-0.659,-3.33,2.5,4.21,1785099221186.1482
0.758,-0.151,-0.635,-5.25,5.04,3.91,1785099221196.186
0.771,-0.177,-0.629,-9.06,5.43,3.45,1785099221206.551
0.752,-0.178,-0.624,-11.78,2.41,3.97,1785099221217.0059
0.745,-0.174,-0.606,-11.84,2.01,5.37,1785099221227.613
0.757,-0.173,-0.615,-9.49,3.54,6.29,1785099221240.863
0.759,-0.163,-0.628,-8.61,3.51,6.62,1785099221246.52
0.76,-0.161,-0.625,-9.03,2.41,7.26,1785099221256.4219
0.764,-0.165,-0.631,-7.54,2.32,7.39,1785099221267.487
0.767,-0.162,-0.636,-6.38,3.17,7.17,1785099221277.2168
0.772,-0.157,-0.646,-7.08,3.69,6.65,1785099221290.396
0.777,-0.143,-0.66,-10.56,3.3,5.68,1785099221296.233
0.779,-0.137,-0.657,-14.62,3.78,5.37,1785099221306.272
0.775,-0.135,-0.656,-16.51,5.01,5.4,1785099221316.795
0.777,-0.126,-0.666,-17.27,5.4,6.13,1785099221327.2588
0.77,-0.115,-0.66,-17.94,5.31,6.84,1785099221340.71
0.773,-0.1,-0.657,-18.19,5.92,7.75,1785099221346.335
0.782,-0.089,-0.658,-17.58,7.51,8.82,1785099221356.4119
0.781,-0.094,-0.653,-15.99,8.88,9.64,1785099221366.615
0.778,-0.097,-0.653,-14.44,9.58,9.8,1785099221377.312
0.788,-0.097,-0.661,-13.15,10.38,10.25,1785099221390.681
0.802,-0.11,-0.669,-12.67,10.93,10.68,1785099221396.586
0.802,-0.121,-0.661,-13.92,10.77,10.41,1785099221407.1428
0.795,-0.132,-0.652,-15.66,10.53,10.38,1785099221420.348
0.79,-0.134,-0.642,-17.24,10.19,10.53,1785099221426.26
0.794,-0.136,-0.633,-18.59,9.7,10.77,1785099221436.6719
0.796,-0.139,-0.625,-19.38,9.09,10.68,1785099221447.711
0.8,-0.139,-0.621,-19.78,8.61,10.5,1785099221460.4731
