ax,ay,az,gx,gy,gz,timestamp_ms
-0.109,-0.975,0.249,-8.0,0.49,2.14,1785109968822.003
-0.112,-0.981,0.242,-7.54,0.4,1.65,1785109968822.54
-0.107,-0.98,0.248,-6.53,0.37,1.28,1785109968822.9702
-0.107,-0.987,0.254,-4.36,0.55,0.95,1785109968823.405
-0.109,-0.987,0.248,-1.83,0.52,0.64,1785109968823.815
-0.107,-0.985,0.24,0.58,0.24,0.73,1785109968824.2332
-0.109,-0.979,0.233,2.44,0.18,0.79,1785109968824.6401
-0.11,-0.976,0.226,3.27,0.18,1.1,1785109968825.037
-0.11,-0.97,0.222,2.29,0.43,1.37,1785109968825.444
-0.115,-0.964,0.222,0.76,0.95,1.65,1785109968825.855
-0.122,-0.963,0.225,0.27,1.31,1.77,1785109968826.257
-0.12,-0.974,0.226,1.62,1.31,1.74,1785109968826.6921
-0.119,-0.98,0.227,3.51,1.22,1.43,1785109968827.101
-0.12,-0.975,0.225,4.67,1.07,1.34,1785109968827.505
-0.118,-0.975,0.214,4.61,0.61,1.13,1785109968828.012
-0.119,-0.978,0.209,2.53,0.73,0.64,1785109968828.4841
-0.119,-0.98,0.21,-0.34,1.01,0.15,1785109968828.9001
-0.122,-0.986,0.217,-2.72,0.92,-0.15,1785109968829.3052
-0.127,-0.995,0.22,-4.12,0.52,-0.82,1785109968829.719
-0.125,-0.999,0.226,-4.88,0.24,-1.46,1785109968830.1282
-0.119,-1.001,0.232,-5.55,-0.15,-1.74,1785109968830.507
-0.121,-0.995,0.237,-7.26,-0.85,-2.26,1785109968830.848
-0.127,-0.987,0.238,-11.08,-1.8,-3.33,1785109968831.2058
-0.132,-0.984,0.226,-20.84,-3.45,-5.01,1785109968831.5652
-0.126,-0.961,0.203,-43.31,-5.68,-8.39,1785109968831.912
-0.111,-0.948,0.152,-78.19,-6.84,-13.37,1785109968832.273
-0.097,-0.954,0.106,-121.83,-6.87,-18.31,1785109968832.638
-0.086,-0.956,0.059,-168.16,-5.8,-23.44,1785109968833.03
-0.074,-0.983,0.032,-205.48,-2.72,-28.29,1785109968833.381
-0.067,-1.016,0.037,-226.02,0.52,-32.44,1785109968833.7678
-0.069,-1.049,0.063,-225.5,2.38,-34.94,1785109968834.13
-0.08,-1.09,0.088,-204.66,2.47,-36.26,1785109968834.485
-0.095,-1.134,0.106,-167.97,1.4,-37.57,1785109968834.838
-0.113,-1.169,0.12,-120.58,-1.28,-38.12,1785109968835.24
-0.119,-1.181,0.109,-68.06,-5.43,-37.29,1785109968835.631
-0.11,-1.145,0.079,-16.63,-9.25,-34.64,1785109968836.011
-0.096,-1.087,0.035,27.31,-11.44,-31.16,1785109968836.358
-0.072,-1.003,0.001,55.51,-12.73,-27.1,1785109968836.707
-0.037,-0.933,-0.03,68.18,-12.63,-22.34,1785109968837.0603
-0.017,-0.901,-0.045,69.73,-10.9,-17.4,1785109968837.4028
-0.009,-0.882,-0.046,63.63,-9.19,-13.28,1785109968837.7512
-0.004,-0.866,-0.041,55.21,-7.23,-9.06,1785109968838.094
0.001,-0.861,-0.032,47.64,-5.31,-4.09,1785109968838.393
-0.003,-0.871,-0.031,42.45,-3.27,1.25,1785109968838.696
-0.015,-0.893,-0.02,39.06,-0.95,6.9,1785109968839.005
-0.027,-0.897,0.001,37.08,0.61,13.49,1785109968839.327
-0.035,-0.906,0.005,37.63,2.01,20.08,1785109968839.6301
-0.052,-0.906,0.011,38.18,3.85,25.21,1785109968839.948
-0.065,-0.908,0.011,37.57,4.79,29.48,1785109968840.258
-0.068,-0.911,0.004,35.07,5.77,32.29,1785109968840.564
-0.077,-0.917,0.007,31.1,7.29,33.81,1785109968840.8652
-0.092,-0.926,0.01,26.86,8.58,34.39,1785109968841.179
-0.099,-0.935,0.021,22.89,9.22,33.91,1785109968841.492
-0.097,-0.953,0.03,20.72,9.77,33.05,1785109968841.794
-0.097,-0.953,0.03,20.94,10.19,32.29,1785109968842.1062
-0.093,-0.972,0.037,21.21,9.55,31.43,1785109968842.4329
-0.091,-0.988,0.055,19.84,9.09,29.69,1785109968842.7432
-0.096,-1.004,0.064,17.37,8.67,27.62,1785109968843.07
-0.106,-1.022,0.073,16.57,8.18,25.33,1785109968843.3909
-0.11,-1.045,0.068,16.57,8.18,25.33,1785109968843.704
-0.107,-1.071,0.079,20.02,8.03,22.86,1785109968844.0051
-0.108,-1.096,0.101,26.83,6.59,19.56,1785109968844.3132
-0.112,-1.097,0.115,32.96,4.67,15.84,1785109968844.628
-0.115,-1.087,0.126,37.02,3.27,13.31,1785109968844.933
-0.12,-1.075,0.135,38.45,1.56,11.54,1785109968845.234
-0.125,-1.064,0.12,35.68,-1.28,9.25,1785109968845.5413
-0.126,-1.044,0.076,27.41,-4.7,6.68,1785109968845.8618
-0.104,-1.027,0.033,20.72,-4.03,4.67,1785109968846.1492
-0.109,-1.054,0.05,22.19,-0.95,4.82,1785109968846.425
-0.129,-1.095,0.076,26.12,-0.46,5.58,1785109968846.721
-0.13,-1.097,0.111,32.44,0.24,5.89,1785109968847.001
-0.134,-1.033,0.17,37.87,0.18,7.23,1785109968847.2969
-0.138,-0.965,0.199,36.26,-1.65,8.73,1785109968847.6338
-0.126,-0.937,0.188,25.73,-1.59,9.4,1785109968847.9722
-0.128,-0.949,0.186,10.65,0.67,8.61,1785109968848.255
-0.134,-0.976,0.218,-2.32,1.92,7.48,1785109968848.531
-0.141,-1.015,0.24,-7.45,2.35,6.23,1785109968848.814
-0.155,-1.051,0.241,-4.21,2.17,4.64,1785109968849.0989
-0.162,-1.053,0.25,3.81,1.86,4.73,1785109968849.3718
-0.158,-1.036,0.254,14.34,0.64,6.38,1785109968849.652
-0.143,-1.034,0.235,23.9,-0.46,8.03,1785109968849.934
-0.137,-1.05,0.205,30.15,-1.13,7.23,1785109968850.209
-0.142,-1.042,0.194,32.01,-1.5,5.19,1785109968850.487
-0.144,-1.022,0.196,31.71,-1.62,4.24,1785109968850.782
-0.137,-0.998,0.198,28.08,-1.74,3.48,1785109968851.064
-0.132,-0.99,0.189,21.52,-1.92,2.29,1785109968851.3347
-0.137,-0.975,0.19,11.6,-2.56,0.64,1785109968851.614
-0.136,-0.948,0.195,-0.34,-2.93,-0.61,1785109968851.911
-0.132,-0.93,0.181,-11.78,-1.89,-1.46,1785109968852.178
-0.141,-0.909,0.2,-21.76,-0.7,-2.2,1785109968852.4612
-0.143,-0.943,0.224,-27.41,-1.95,-3.39,1785109968852.742
-0.134,-1.017,0.234,-27.1,-3.08,-5.95,1785109968853.007
-0.141,-1.088,0.237,-18.92,-3.66,-8.42,1785109968853.2832
-0.174,-1.141,0.193,-1.22,-2.29,-11.69,1785109968853.556
-0.189,-1.047,0.206,15.63,-2.35,-13.06,1785109968853.823
-0.13,-0.973,0.18,24.51,-4.33,-10.01,1785109968854.082
-0.102,-0.936,0.139,25.45,-3.39,-8.58,1785109968854.348
-0.11,-0.893,0.135,19.14,-2.56,-6.68,1785109968854.6118
-0.12,-0.909,0.169,11.38,-2.66,-6.13,1785109968854.877
-0.114,-0.973,0.191,6.81,-3.57,-6.99,1785109968855.1848
-0.112,-1.01,0.189,4.79,-3.17,-7.66,1785109968855.462
-0.13,-1.017,0.188,6.32,-2.01,-7.23,1785109968855.731
-0.133,-1.004,0.193,8.09,-1.83,-5.49,1785109968855.989
-0.115,-0.981,0.194,9.19,-1.65,-3.05,1785109968856.254
-0.104,-0.966,0.178,10.07,-1.28,-0.79,1785109968856.5178
-0.109,-0.957,0.168,9.55,-0.85,1.04,1785109968856.7832
-0.109,-0.95,0.176,4.79,-1.1,2.59,1785109968857.053
-0.093,-0.959,0.198,-3.11,-1.25,4.06,1785109968857.326
-0.094,-0.995,0.198,-9.09,-0.61,4.67,1785109968857.592
-0.116,-1.016,0.208,-10.83,-0.24,5.37,1785109968857.863
-0.124,-0.991,0.231,-11.32,-0.89,6.16,1785109968858.1162
-0.116,-0.972,0.215,-13.58,-1.83,6.41,1785109968858.37
-0.119,-0.975,0.19,-17.91,-1.5,5.89,1785109968858.618
-0.139,-0.929,0.164,-21.12,0.55,4.12,1785109968858.862
-0.159,-0.953,0.17,-15.11,1.1,3.6,1785109968859.113
-0.154,-1.026,0.19,-8.39,-1.43,1.31,1785109968859.358
-0.144,-1.028,0.2,-1.92,-2.38,-1.01,1785109968859.5981
-0.15,-1.004,0.187,6.35,-2.93,-1.01,1785109968859.843
-0.146,-0.983,0.168,9.37,-3.66,-1.59,1785109968860.096
-0.135,-0.97,0.162,7.14,-3.57,-2.96,1785109968860.3389
-0.127,-0.968,0.16,5.13,-3.6,-3.78,1785109968860.581
-0.131,-0.979,0.165,5.8,-3.36,-5.31,1785109968860.8289
-0.138,-0.975,0.185,7.2,-3.54,-6.71,1785109968861.082
-0.125,-0.983,0.201,6.87,-4.67,-6.26,1785109968861.3171
-0.103,-0.977,0.206,3.08,-4.85,-5.65,1785109968861.574
-0.095,-0.966,0.203,-1.04,-4.39,-3.97,1785109968861.8398
-0.102,-0.948,0.199,-5.89,-3.57,-2.29,1785109968862.0757
-0.121,-0.949,0.195,-7.69,-2.5,-1.25,1785109968862.3281
-0.127,-0.967,0.201,-6.32,-2.23,-0.92,1785109968862.5789
-0.12,-0.994,0.216,-2.81,-2.35,-0.79,1785109968862.8271
-0.119,-1.014,0.219,2.62,-2.35,0.31,1785109968863.0881
-0.111,-0.995,0.217,7.81,-1.92,3.3,1785109968863.364
-0.102,-0.984,0.2,11.57,-1.34,6.71,1785109968863.6191
-0.097,-0.99,0.199,10.65,-1.89,8.58,1785109968863.863
-0.097,-0.99,0.201,4.52,-2.53,10.41,1785109968864.1138
-0.104,-0.988,0.185,-4.03,-1.86,11.87,1785109968864.362
-0.123,-0.96,0.157,-12.63,-0.15,11.2,1785109968864.609
-0.146,-0.927,0.147,-16.88,1.8,9.4,1785109968864.855
-0.157,-0.951,0.151,-16.6,1.65,7.32,1785109968865.115
-0.157,-1.007,0.181,-17.49,0.31,4.91,1785109968865.364
-0.148,-1.038,0.202,-14.65,-0.27,3.45,1785109968865.6052
-0.148,-1.043,0.197,-4.06,-0.67,3.36,1785109968865.854
-0.151,-1.0,0.189,4.27,-1.53,2.96,1785109968866.0889
-0.133,-0.978,0.185,7.23,-2.2,2.69,1785109968866.3162
-0.115,-1.007,0.186,6.47,-2.23,1.37,1785109968866.56
-0.128,-1.02,0.195,5.58,-1.8,-0.58,1785109968866.802
-0.136,-1.02,0.194,6.47,-2.04,-1.22,1785109968867.0469
-0.134,-1.007,0.176,6.84,-2.17,-2.29,1785109968867.275
-0.129,-0.989,0.159,5.89,-2.04,-2.87,1785109968867.5352
-0.119,-0.983,0.162,4.21,-1.8,-2.32,1785109968867.79
-0.103,-0.985,0.174,2.5,-1.77,-0.79,1785109968868.0178
-0.101,-0.976,0.171,0.76,-1.62,1.31,1785109968868.2493
-0.121,-0.992,0.169,-1.4,-1.34,2.5,1785109968868.481
-0.13,-0.997,0.184,-6.41,-1.74,2.26,1785109968868.713
-0.128,-0.981,0.179,-10.59,-1.13,2.66,1785109968868.9448
-0.141,-0.966,0.175,-11.17,0.03,3.45,1785109968869.178
-0.144,-0.945,0.174,-10.5,0.24,3.78,1785109968869.4302
-0.138,-0.969,0.186,-9.13,-0.61,3.54,1785109968869.657
-0.136,-0.994,0.188,-9.09,-1.1,2.29,1785109968869.895
-0.146,-1.013,0.191,-4.94,-0.67,1.98,1785109968870.132
-0.147,-0.994,0.194,0.55,-1.04,2.87,1785109968870.362
-0.136,-0.978,0.182,3.75,-1.5,3.45,1785109968870.598
-0.127,-0.974,0.179,2.01,-1.46,2.99,1785109968870.8323
-0.132,-0.976,0.174,-1.89,-1.31,2.32,1785109968871.068
-0.143,-0.989,0.166,-2.9,-1.13,1.65,1785109968871.3
-0.145,-1.006,0.159,-1.77,-2.08,0.15,1785109968871.542
-0.142,-0.995,0.155,-0.73,-2.78,-0.85,1785109968871.7761
-0.143,-0.979,0.16,-0.34,-3.51,-0.43,1785109968871.9912
-0.131,-0.99,0.164,-2.17,-3.81,-0.34,1785109968872.215
-0.119,-0.988,0.175,-5.46,-3.51,-0.12,1785109968872.4312
-0.121,-0.974,0.185,-7.84,-3.23,1.53,1785109968872.6467
-0.126,-0.942,0.18,-12.36,-3.14,3.11,1785109968872.8699
-0.137,-0.977,0.168,-21.12,-1.62,2.72,1785109968873.311
-0.127,-0.987,0.18,-21.7,-1.77,2.26,1785109968873.5317
-0.876,-0.248,-0.323,4.79,6.99,1.46,1785109968873.9
-0.872,-0.255,-0.312,6.1,7.02,3.27,1785109968874.1208
-0.868,-0.252,-0.308,8.3,6.78,5.25,1785109968874.3381
-0.865,-0.243,-0.307,10.1,6.62,6.65,1785109968874.9802
-0.861,-0.234,-0.314,10.93,6.44,7.45,1785109968885.333
-0.861,-0.231,-0.327,11.23,6.68,7.45,1785109968895.794
-0.864,-0.237,-0.33,12.3,6.99,7.35,1785109968906.2988
-0.868,-0.252,-0.328,14.74,7.26,7.26,1785109968919.6328
-0.871,-0.26,-0.334,18.8,7.57,7.42,1785109968925.149
-0.874,-0.262,-0.336,24.93,7.97,7.93,1785109968935.5352
-0.872,-0.262,-0.353,32.69,8.55,8.76,1785109968945.995
-0.875,-0.256,-0.366,40.86,9.64,9.55,1785109968956.476
-0.878,-0.245,-0.377,49.17,10.5,10.41,1785109968969.74
-0.878,-0.23,-0.379,58.47,11.57,11.51,1785109968975.376
-0.868,-0.221,-0.375,68.45,12.15,12.91,1785109968986.224
-0.856,-0.236,-0.385,77.3,12.51,13.89,1785109968999.449
-0.853,-0.26,-0.418,83.07,12.91,14.22,1785109969005.3188
-0.843,-0.283,-0.459,85.63,13.37,14.28,1785109969015.896
-0.834,-0.302,-0.497,85.88,14.68,14.25,1785109969029.19
-0.833,-0.315,-0.52,85.27,16.45,13.98,1785109969035.007
-0.83,-0.327,-0.539,84.05,17.98,13.86,1785109969045.6882
-0.833,-0.32,-0.541,81.36,19.5,14.19,1785109969056.358
-0.835,-0.313,-0.546,77.49,21.36,14.56,1785109969069.8892
-0.838,-0.306,-0.556,73.21,24.32,14.74,1785109969075.83
-0.846,-0.312,-0.549,69.83,27.95,15.87,1785109969086.366
-0.852,-0.345,-0.526,68.73,31.98,16.85,1785109969099.4292
-0.85,-0.407,-0.485,71.35,36.04,18.1,1785109969105.588
-0.855,-0.471,-0.451,74.98,39.25,18.4,1785109969115.8909
-0.826,-0.487,-0.439,79.01,41.57,20.26,1785109969126.57
-0.78,-0.461,-0.443,85.79,42.54,24.14,1785109969139.924
-0.757,-0.435,-0.505,93.54,42.97,30.61,1785109969145.7788
-0.768,-0.433,-0.611,101.96,46.3,36.41,1785109969156.3708
-0.8,-0.395,-0.689,107.73,52.13,42.15,1785109969169.74
-0.819,-0.359,-0.673,116.55,58.05,52.95,1785109969175.6602
-0.804,-0.335,-0.658,133.64,60.7,64.91,1785109969186.431
-0.812,-0.332,-0.66,153.2,62.59,73.09,1785109969199.5698
-0.849,-0.35,-0.648,170.32,64.55,76.45,1785109969205.696
-0.881,-0.381,-0.619,183.2,65.34,77.39,1785109969216.273
-0.887,-0.439,-0.581,197.24,65.65,76.27,1785109969229.5261
-0.91,-0.521,-0.536,214.73,65.31,69.95,1785109969235.2332
-0.947,-0.612,-0.501,233.41,63.14,58.57,1785109969246.33
-0.95,-0.717,-0.486,253.36,60.64,44.07,1785109969259.506
-0.946,-0.79,-0.489,273.51,57.41,28.84,1785109969265.4773
-0.946,-0.816,-0.525,291.91,52.89,14.37,1785109969276.222
-0.932,-0.787,-0.566,306.13,47.61,0.31,1785109969289.511
-0.92,-0.713,-0.588,313.76,43.06,-15.41,1785109969295.509
-0.912,-0.633,-0.574,313.67,38.97,-30.06,1785109969306.149
-0.916,-0.593,-0.537,306.1,36.56,-42.54,1785109969319.4739
-0.916,-0.572,-0.488,292.73,35.71,-51.79,1785109969325.3582
-0.923,-0.559,-0.44,277.38,36.44,-57.04,1785109969336.238
-0.931,-0.585,-0.367,261.02,36.9,-60.85,1785109969349.3462
-0.927,-0.641,-0.298,242.01,35.4,-64.82,1785109969355.4531
-0.927,-0.678,-0.259,222.82,34.46,-68.03,1785109969366.015
-0.935,-0.671,-0.224,205.33,32.72,-70.1,1785109969376.9019
-0.923,-0.637,-0.257,185.98,30.27,-75.11,1785109969390.065
-0.935,-0.655,-0.292,158.91,29.36,-85.21,1785109969396.009
-0.93,-0.743,-0.268,125.37,28.32,-95.89,1785109969406.778
-0.916,-0.818,-0.222,94.61,26.98,-106.08,1785109969420.121
-0.913,-0.843,-0.177,71.72,25.06,-114.78,1785109969426.042
-0.913,-0.843,-0.177,58.26,22.28,-125.71,1785109969436.7737
-0.908,-0.89,-0.183,45.59,19.5,-140.39,1785109969449.957
-0.916,-0.918,-0.184,33.51,17.64,-153.78,1785109969456.0808
-0.925,-0.956,-0.17,26.43,17.15,-165.9,1785109969466.656
-0.943,-1.024,-0.133,28.99,15.47,-176.82,1785109969479.929
-0.959,-1.101,-0.084,28.99,15.47,-176.82,1785109969486.034
-0.967,-1.163,-0.085,41.47,12.21,-187.72,1785109969496.6172
-1.0,-1.152,-0.093,52.13,9.13,-199.19,1785109969509.8682
-1.019,-1.125,-0.104,52.92,6.41,-209.51,1785109969515.824
-1.025,-1.104,-0.107,43.92,5.4,-220.01,1785109969526.313
-1.009,-1.1,-0.098,30.46,4.76,-230.23,1785109969539.677
-0.966,-1.097,-0.074,17.15,4.06,-240.24,1785109969545.664
-0.923,-1.085,-0.077,4.24,2.66,-249.52,1785109969556.01
-0.889,-1.085,-0.109,-9.67,2.93,-258.98,1785109969566.477
-0.848,-1.121,-0.121,-23.04,4.36,-267.1,1785109969579.754
-0.789,-1.177,-0.123,-32.38,7.11,-272.53,1785109969585.968
-0.743,-1.232,-0.129,-35.95,9.25,-276.89,1785109969596.2131
-0.688,-1.244,-0.062,-33.2,9.06,-280.71,1785109969609.4138
-0.623,-1.268,-0.038,-18.31,6.71,-281.14,1785109969615.435
-0.578,-1.318,-0.027,1.53,4.52,-282.3,1785109969625.781
-0.548,-1.361,0.025,19.14,-1.1,-287.09,1785109969636.498
-0.501,-1.415,0.062,39.52,-6.78,-290.72,1785109969649.6748
-0.434,-1.442,0.101,61.56,-13.06,-293.8,1785109969655.774
-0.317,-1.407,0.107,77.79,-22.13,-294.44,1785109969666.309
-0.168,-1.351,0.089,85.57,-33.08,-294.96,1785109969679.554
-0.027,-1.232,0.095,82.22,-45.44,-296.09,1785109969685.591
0.096,-1.109,0.064,75.08,-57.31,-295.21,1785109969696.296
0.176,-1.03,0.013,67.2,-66.44,-291.88,1785109969709.589
0.192,-1.009,-0.035,55.79,-72.85,-290.99,1785109969715.5872
0.186,-1.003,-0.029,35.62,-76.54,-291.15,1785109969726.312
0.197,-1.006,-0.01,8.97,-77.15,-289.16,1785109969739.5278
0.207,-0.987,-0.018,-15.11,-74.62,-287.09,1785109969745.5461
0.219,-0.959,-0.024,-32.01,-70.68,-282.78,1785109969756.152
0.225,-0.941,-0.033,-41.87,-65.8,-278.12,1785109969769.427
0.225,-0.922,-0.032,-44.86,-60.3,-273.84,1785109969775.449
0.223,-0.899,-0.028,-41.08,-55.79,-269.6,1785109969786.1318
0.228,-0.868,-0.042,-32.32,-52.49,-264.14,1785109969799.373
0.238,-0.799,-0.079,-21.58,-48.92,-257.61,1785109969805.3708
0.252,-0.71,-0.117,-10.19,-45.63,-250.74,1785109969816.056
0.271,-0.636,-0.155,-2.81,-42.45,-243.51,1785109969826.72
0.281,-0.57,-0.17,-1.83,-38.64,-237.22,1785109969840.138
0.275,-0.524,-0.174,-6.16,-35.4,-231.42,1785109969845.971
0.272,-0.519,-0.188,-10.41,-31.59,-227.36,1785109969856.499
0.28,-0.514,-0.177,-12.54,-28.32,-224.16,1785109969869.7888
0.294,-0.483,-0.177,-12.63,-26.92,-219.43,1785109969875.77
0.291,-0.449,-0.185,-9.09,-24.72,-213.87,1785109969886.373
0.27,-0.422,-0.185,-4.46,-22.74,-209.08,1785109969899.626
0.26,-0.398,-0.163,-0.03,-21.73,-204.57,1785109969905.783
0.263,-0.376,-0.15,5.52,-21.97,-200.48,1785109969916.0828
0.277,-0.314,-0.157,10.22,-23.1,-195.14,1785109969929.369
0.284,-0.256,-0.164,16.94,-23.19,-189.18,1785109969935.369
0.272,-0.246,-0.153,24.6,-24.45,-185.46,1785109969946.056
0.263,-0.256,-0.163,30.27,-27.01,-183.78,1785109969959.325
0.261,-0.258,-0.172,34.27,-27.77,-182.41,1785109969965.3088
0.26,-0.269,-0.172,36.71,-28.9,-181.83,1785109969976.079
0.259,-0.277,-0.2,34.15,-30.73,-182.84,1785109969986.8481
0.262,-0.24,-0.207,24.75,-31.83,-183.72,1785109969999.978
0.27,-0.214,-0.227,15.47,-31.95,-183.11,1785109970006.081
0.267,-0.196,-0.247,5.55,-29.82,-182.53,1785109970016.633
0.264,-0.145,-0.258,-5.34,-26.43,-182.01,1785109970029.882
0.278,-0.102,-0.261,-13.03,-22.86,-181.28,1785109970036.1118
0.294,-0.09,-0.245,-18.46,-20.11,-182.84,1785109970046.5479
0.311,-0.06,-0.214,-26.09,-17.98,-185.25,1785109970059.794
0.362,-0.003,-0.181,-36.07,-15.08,-185.71,1785109970065.802
0.421,0.035,-0.148,-44.5,-11.72,-185.37,1785109970076.538
0.429,0.069,-0.103,-51.15,-8.94,-185.89,1785109970089.7742
0.415,0.12,-0.066,-56.83,-7.02,-185.8,1785109970095.7693
0.419,0.188,-0.034,-58.5,-6.01,-185.0,1785109970106.2478
0.431,0.266,0.005,-52.71,-6.96,-183.69,1785109970119.603
0.464,0.344,0.009,-42.7,-9.46,-181.22,1785109970125.4512
0.502,0.408,-0.019,-31.28,-10.28,-180.0,1785109970136.1401
0.516,0.441,-0.042,-19.99,-9.86,-179.94,1785109970146.756
0.509,0.489,-0.058,-11.14,-10.19,-178.35,1785109970159.926
0.533,0.616,-0.067,-7.23,-12.02,-173.07,1785109970165.891
0.61,0.766,-0.088,-2.75,-14.4,-165.2,1785109970176.437
0.673,0.894,-0.134,3.14,-15.41,-158.91,1785109970189.818
0.714,1.069,-0.169,3.57,-15.84,-155.1,1785109970195.7249
0.762,1.297,-0.2,4.55,-18.25,-151.77,1785109970206.1511
0.826,1.507,-0.266,14.62,-20.66,-145.09,1785109970219.517
0.863,1.749,-0.33,31.43,-21.85,-132.97,1785109970225.46
0.864,1.892,-0.354,51.64,-20.75,-112.13,1785109970236.3079
0.826,1.664,-0.295,74.04,-20.97,-87.89,1785109970246.738
0.61,1.457,-0.409,81.73,-24.96,-60.46,1785109970259.948
0.397,1.579,-0.68,75.87,-14.98,-15.47,1785109970265.981
0.581,1.607,-0.999,75.59,11.11,42.42,1785109970276.4539
0.753,1.543,-1.103,99.46,38.36,81.55,1785109970289.723
0.696,1.083,-0.795,166.72,46.42,96.26,1785109970295.69
0.677,0.702,-0.408,217.11,36.47,99.8,1785109970306.3892
0.93,0.561,-0.268,202.7,40.56,105.53,1785109970319.7031
1.059,0.438,-0.317,151.52,58.78,108.43,1785109970325.588
1.019,0.212,-0.405,99.92,71.72,100.01,1785109970336.585
0.981,0.113,-0.376,53.41,74.22,83.68,1785109970349.703
0.98,0.073,-0.309,20.97,72.33,73.06,1785109970355.7031
0.971,0.152,-0.282,-2.93,69.31,67.11,1785109970366.081
1.007,0.361,-0.339,-24.35,66.5,60.85,1785109970376.742
0.966,0.52,-0.342,-48.86,65.07,59.39,1785109970389.713
0.936,0.562,-0.365,-73.03,62.29,57.86,1785109970395.4219
0.927,0.527,-0.311,-89.08,60.18,59.82,1785109970406.441
0.841,0.51,-0.277,-89.14,56.12,62.11,1785109970419.913
0.841,0.452,-0.221,-77.55,49.04,71.54,1785109970425.751
0.848,0.427,-0.223,-54.51,42.45,77.7,1785109970436.265
0.855,0.418,-0.19,-30.21,36.56,86.58,1785109970446.7761
0.906,0.42,-0.219,-8.61,30.73,93.11,1785109970459.963
0.937,0.444,-0.284,5.25,30.49,95.13,1785109970465.9631
0.953,0.469,-0.359,8.97,33.6,94.3,1785109970476.455
0.927,0.465,-0.396,1.46,37.26,96.13,1785109970486.797
0.91,0.397,-0.409,-9.09,41.08,101.35,1785109970499.984
0.89,0.336,-0.418,-16.05,43.82,107.46,1785109970506.042
0.871,0.313,-0.405,-18.71,47.06,113.68,1785109970516.648
0.892,0.28,-0.332,-17.43,50.48,120.64,1785109970529.912
0.949,0.287,-0.255,-14.62,50.45,123.6,1785109970536.0159
0.98,0.335,-0.286,-9.98,50.45,123.75,1785109970546.5632
0.93,0.406,-0.285,-10.68,52.95,127.23,1785109970559.772
0.912,0.427,-0.224,-17.91,54.38,136.05,1785109970565.769
0.945,0.394,-0.215,-26.7,56.4,141.97,1785109970576.4841
0.938,0.355,-0.219,-36.81,61.37,144.66,1785109970589.755
0.927,0.298,-0.23,-45.44,65.83,147.62,1785109970595.7607
0.855,0.252,-0.239,-49.35,69.22,148.53,1785109970606.478
0.83,0.174,-0.266,-46.33,73.03,152.32,1785109970619.683
0.769,0.133,-0.201,-43.61,76.6,158.7,1785109970625.7432
0.786,0.017,-0.148,-33.45,77.46,173.01,1785109970636.446
0.782,0.008,-0.11,-18.74,77.03,177.37,1785109970649.68
0.788,0.019,-0.065,-7.11,78.77,183.02,1785109970655.691
0.778,-0.005,-0.038,0.15,81.33,187.69,1785109970666.186
0.754,-0.002,0.036,0.4,82.31,189.95,1785109970679.442
0.765,-0.008,0.089,-3.42,79.99,192.05,1785109970685.466
0.766,-0.024,0.084,-11.99,79.38,193.03,1785109970695.992
0.749,-0.054,0.084,-24.75,82.43,193.7,1785109970706.7202
0.734,-0.098,0.099,-39.7,84.6,194.25,1785109970719.9558
0.734,-0.098,0.099,-53.65,86.0,194.98,1785109970726.021
0.719,-0.129,0.092,-63.42,88.38,197.3,1785109970736.692
0.685,-0.163,0.091,-67.93,89.3,201.12,1785109970749.938
0.633,-0.215,0.11,-64.91,88.44,205.73,1785109970756.017
0.581,-0.296,0.15,-64.91,88.44,205.73,1785109970766.71
0.524,-0.392,0.199,-56.22,85.24,209.3,1785109970779.9128
0.479,-0.47,0.204,-50.08,80.17,209.81,1785109970785.967
0.418,-0.573,0.172,-52.46,75.2,205.42,1785109970796.6133
0.363,-0.722,0.092,-64.21,72.12,197.49,1785109970809.942
0.342,-0.887,0.019,-77.55,74.98,189.21,1785109970815.9011
0.352,-1.033,0.009,-79.96,82.43,185.71,1785109970826.6519
0.365,-1.156,0.085,-64.33,90.67,188.57,1785109970839.852
0.347,-1.2,0.209,-36.07,94.91,193.61,1785109970845.885
0.3,-1.165,0.284,-4.21,95.03,193.88,1785109970856.447
0.242,-1.073,0.347,19.99,91.68,189.31,1785109970869.739
0.228,-0.98,0.349,27.89,85.67,184.21,1785109970875.793
0.249,-0.918,0.338,19.17,81.76,179.02,1785109970886.4707
0.277,-0.925,0.313,1.4,77.09,172.7,1785109970899.6602
0.302,-0.956,0.27,-18.65,72.42,164.28,1785109970905.8162
0.324,-0.962,0.268,-35.34,68.21,155.74,1785109970916.373
0.326,-0.91,0.308,-47.0,62.29,149.91,1785109970929.6301
0.277,-0.801,0.321,-55.82,55.88,148.41,1785109970935.664
0.19,-0.69,0.283,-64.24,49.81,150.12,1785109970946.298
0.108,-0.596,0.191,-73.76,44.92,153.6,1785109970959.5342
0.029,-0.74,0.048,-70.77,45.78,156.96,1785109970965.571
-0.015,-1.079,0.056,-56.03,48.59,154.45,1785109970976.3079
0.03,-1.276,0.217,-30.76,45.5,150.49,1785109970989.6199
0.087,-1.241,0.268,7.26,36.81,153.2,1785109970995.501
0.103,-1.05,0.114,41.87,32.29,155.4,1785109971006.1482
0.138,-0.844,-0.092,55.54,37.78,151.86,1785109971019.531
0.209,-0.75,-0.155,40.44,49.07,147.83,1785109971025.46
0.167,-0.814,-0.058,4.58,60.98,144.9,1785109971036.1973
0.06,-0.976,0.1,-30.85,69.64,146.58,1785109971046.747
0.023,-1.131,0.231,-46.14,72.05,151.74,1785109971059.9949
0.02,-1.215,0.297,-36.74,70.07,154.73,1785109971066.035
-0.009,-1.232,0.284,-14.83,65.28,153.87,1785109971076.767
-0.048,-1.189,0.217,3.85,61.49,149.97,1785109971089.985
-0.063,-1.116,0.204,6.68,57.62,147.74,1785109971095.9412
-0.075,-1.116,0.16,-3.91,55.42,146.86,1785109971106.4792
-0.116,-1.121,0.123,-26.83,55.57,144.11,1785109971119.794
-0.172,-1.212,0.136,-50.02,55.12,140.32,1785109971125.685
-0.234,-1.314,0.213,-67.48,52.22,132.24,1785109971136.539
-0.238,-1.39,0.326,-73.46,46.51,122.78,1785109971149.619
-0.203,-1.453,0.417,-67.75,38.51,111.15,1785109971155.6611
-0.194,-1.511,0.478,-52.4,30.85,95.03,1785109971166.2942
-0.157,-1.616,0.442,-27.59,21.94,73.61,1785109971179.484
-0.158,-1.571,0.391,-10.8,14.22,43.86,1785109971185.586
-0.144,-1.455,0.358,0.0,6.65,22.77,1785109971195.752
-0.121,-1.352,0.299,13.52,-0.06,9.83,1785109971206.2568
-0.103,-1.237,0.238,23.93,-4.67,3.11,1785109971216.669
-0.088,-1.144,0.186,26.86,-6.01,3.14,1785109971229.94
-0.091,-1.086,0.15,21.64,-4.88,6.44,1785109971235.9739
-0.121,-1.034,0.127,9.09,-2.38,10.35,1785109971245.898
-0.166,-1.022,0.14,-8.09,0.49,13.18,1785109971256.36
-0.189,-1.068,0.19,-25.39,1.71,14.22,1785109971269.755
-0.179,-1.145,0.23,-35.31,1.13,13.79,1785109971275.697
-0.155,-1.197,0.242,-35.25,-0.58,11.66,1785109971285.946
-0.141,-1.208,0.233,-28.05,-1.68,7.6,1785109971296.2393
-0.135,-1.207,0.2,-16.75,-3.11,3.17,1785109971306.771
-0.131,-1.213,0.169,-5.55,-4.79,-0.55,1785109971320.566
-0.114,-1.192,0.145,-0.67,-5.46,-3.48,1785109971325.9048
-0.099,-1.141,0.13,-3.11,-5.4,-6.13,1785109971335.722
-0.089,-1.07,0.093,-12.79,-5.22,-9.77,1785109971346.144
-0.082,-1.015,0.071,-28.44,-5.19,-13.25,1785109971356.6948
-0.067,-0.947,0.06,-51.52,-5.8,-16.21,1785109971370.059
-0.066,-0.932,0.043,-74.65,-5.58,-18.1,1785109971376.056
-0.1,-0.942,0.049,-94.61,-5.49,-19.17,1785109971386.2898
-0.129,-0.94,0.06,-109.5,-6.5,-19.01,1785109971396.79
-0.135,-0.953,0.075,-115.45,-8.0,-17.94,1785109971410.029
-0.131,-0.956,0.09,-116.79,-9.28,-17.18,1785109971416.0818
-0.122,-0.954,0.084,-116.12,-9.49,-16.66,1785109971426.547
-0.119,-0.966,0.075,-110.23,-7.81,-15.84,1785109971439.83
-0.129,-1.009,0.087,-96.07,-5.8,-15.05,1785109971445.7878
-0.128,-1.054,0.1,-75.14,-5.74,-15.11,1785109971456.0452
-0.122,-1.069,0.082,-47.27,-5.89,-14.8,1785109971466.615
-0.113,-1.036,0.032,-17.15,-6.16,-13.34,1785109971479.8179
-0.107,-0.996,-0.022,8.94,-7.39,-12.45,1785109971485.995
-0.097,-0.963,-0.072,23.9,-8.76,-12.02,1785109971495.899
-0.078,-0.933,-0.11,27.44,-8.76,-10.86,1785109971506.539
-0.069,-0.917,-0.129,23.35,-7.75,-8.06,1785109971519.822
-0.064,-0.929,-0.122,15.02,-6.53,-4.7,1785109971525.675
-0.061,-0.952,-0.094,5.52,-5.31,-2.5,1785109971535.5808
-0.062,-0.967,-0.07,-1.86,-4.3,-1.46,1785109971545.899
-0.076,-0.991,-0.047,-4.94,-3.66,-1.1,1785109971556.3618
-0.094,-1.008,-0.024,-4.49,-4.43,-1.62,1785109971566.695
-0.088,-1.011,-0.028,-0.49,-5.37,-2.41,1785109971579.977
-0.082,-1.022,-0.034,7.57,-5.92,-3.45,1785109971585.7852
-0.08,-1.01,-0.044,15.63,-6.16,-4.06,1785109971595.708
-0.076,-0.994,-0.039,22.77,-5.58,-3.91,1785109971606.24
-0.07,-0.989,-0.047,28.11,-5.04,-3.36,1785109971616.641
-0.06,-0.983,-0.051,31.16,-3.72,-2.96,1785109971629.907
-0.056,-0.976,-0.055,33.08,-2.9,-2.11,1785109971635.814
-0.059,-0.968,-0.062,32.44,-2.59,-1.13,1785109971645.8281
-0.071,-0.953,-0.075,27.41,-2.26,-1.4,1785109971656.2659
-0.077,-0.934,-0.088,18.8,-2.04,-1.46,1785109971669.457
-0.077,-0.934,-0.093,10.04,-1.86,-1.1,1785109971674.976
-0.074,-0.939,-0.078,2.26,-1.74,-0.64,1785109971685.476
-0.068,-0.948,-0.072,-3.48,-1.62,-0.27,1785109971695.8232
-0.074,-0.95,-0.068,-7.97,-1.22,-0.46,1785109971706.197
-0.083,-0.956,-0.057,-10.83,-0.58,0.03,1785109971716.616
-0.087,-0.967,-0.044,-11.72,0.03,0.64,1785109971729.902
-0.086,-0.977,-0.031,-11.63,0.24,0.64,1785109971735.782
-0.082,-0.984,-0.03,-10.96,0.15,0.64,1785109971745.8071
-0.085,-0.994,-0.044,-9.16,0.49,0.73,1785109971756.209
-0.091,-0.998,-0.051,-7.08,1.04,0.98,1785109971766.5652
-0.085,-0.994,-0.056,-5.55,0.92,1.34,1785109971779.795
-0.079,-0.99,-0.061,-4.88,1.16,1.74,1785109971785.529
-0.081,-0.99,-0.068,-4.61,1.59,1.95,1785109971795.4739
