ax,ay,az,gx,gy,gz,timestamp_ms
0.76,-0.595,-0.437,195.81,-2.38,54.05,1785099670386.945
0.703,-0.478,-0.472,201.57,-7.9,74.59,1785099670436.257
0.599,-0.404,-0.497,189.95,-12.15,92.72,1785099670436.58
0.513,-0.393,-0.464,167.15,-14.1,107.18,1785099670436.842
0.468,-0.475,-0.393,145.21,-14.5,117.59,1785099670437.113
0.46,-0.602,-0.305,130.99,-14.59,125.92,1785099670437.376
0.509,-0.752,-0.223,131.35,-16.27,135.17,1785099670437.642
0.6,-0.881,-0.214,145.21,-20.48,147.22,1785099670437.897
0.683,-0.936,-0.264,164.8,-23.71,162.72,1785099670438.1519
0.707,-0.92,-0.338,179.72,-27.22,181.77,1785099670438.413
0.674,-0.846,-0.422,177.68,-34.33,201.39,1785099670438.674
0.614,-0.811,-0.477,155.16,-42.6,217.02,1785099670438.931
0.551,-0.849,-0.481,118.81,-49.29,225.81,1785099670439.1802
0.482,-0.936,-0.459,80.72,-56.4,229.71,1785099670439.4329
0.462,-1.057,-0.468,51.64,-64.61,231.82,1785099670439.6802
0.473,-1.124,-0.507,35.68,-70.5,231.57,1785099670439.926
0.471,-1.145,-0.541,33.6,-73.92,234.29,1785099670440.179
0.459,-1.182,-0.556,43.12,-75.53,241.28,1785099670440.4329
0.427,-1.263,-0.576,57.53,-75.72,245.74,1785099670440.6763
0.348,-1.3,-0.589,65.25,-76.17,246.01,1785099670440.928
0.258,-1.218,-0.58,62.2,-77.12,247.72,1785099670441.17
0.216,-1.189,-0.586,56.86,-77.06,251.84,1785099670441.4412
0.172,-1.266,-0.625,46.57,-75.2,250.92,1785099670441.6692
0.081,-1.314,-0.665,23.83,-72.33,245.89,1785099670441.908
-0.018,-1.256,-0.639,-6.01,-68.88,245.98,1785099670442.1438
-0.013,-1.303,-0.549,-23.93,-65.4,255.53,1785099670442.38
0.128,-1.416,-0.493,-23.29,-64.09,251.66,1785099670442.611
0.037,-1.326,-0.417,-17.98,-51.33,220.44,1785099670442.85
-0.029,-1.299,-0.382,-9.34,-44.31,212.56,1785099670443.0962
-0.066,-1.262,-0.376,-0.21,-52.25,216.59,1785099670443.3223
-0.052,-1.164,-0.376,8.39,-59.57,224.68,1785099670443.5542
-0.05,-1.07,-0.423,19.32,-58.87,231.6,1785099670443.7927
-0.123,-0.987,-0.519,20.75,-59.05,231.97,1785099670444.0452
-0.194,-0.95,-0.578,5.77,-60.49,232.89,1785099670444.277
-0.155,-1.062,-0.598,-12.42,-61.28,229.77,1785099670444.5332
-0.226,-1.232,-0.588,-31.34,-54.41,203.47,1785099670444.7842
-0.382,-1.419,-0.54,-50.97,-49.75,182.53,1785099670445.016
-0.402,-1.498,-0.46,-55.45,-49.04,175.51,1785099670445.25
-0.399,-1.422,-0.385,-42.42,-50.97,172.28,1785099670445.494
-0.283,-1.243,-0.329,-8.21,-43.92,172.98,1785099670445.73
-0.334,-1.053,-0.368,27.22,-40.44,169.99,1785099670445.9573
-0.278,-0.996,-0.433,42.94,-42.33,167.12,1785099670446.2058
-0.315,-1.171,-0.467,43.58,-33.42,147.83,1785099670446.4363
-0.47,-1.119,-0.426,57.83,-23.77,125.77,1785099670446.665
-0.473,-1.028,-0.509,71.08,-31.43,131.29,1785099670446.887
-0.448,-1.02,-0.536,52.8,-25.21,132.76,1785099670447.103
-0.518,-0.664,-0.421,16.45,-26.15,132.48,1785099670447.316
-0.448,-0.763,-0.556,-25.39,-29.76,138.98,1785099670447.5369
-0.596,-0.734,-0.427,-78.8,-17.85,123.57,1785099670447.7507
-0.67,-0.833,-0.438,-112.34,-22.61,124.7,1785099670447.968
-0.696,-0.869,-0.482,-140.29,-27.92,120.24,1785099670448.191
-0.773,-0.804,-0.455,-167.55,-28.53,113.77,1785099670448.405
-0.82,-0.81,-0.454,-183.87,-23.87,109.2,1785099670448.621
-0.877,-0.804,-0.417,-196.48,-23.22,105.2,1785099670448.8372
-0.972,-0.712,-0.332,-201.24,-26.4,101.81,1785099670449.055
-0.913,-0.646,-0.308,-194.59,-29.88,110.66,1785099670449.265
-0.871,-0.534,-0.279,-184.76,-31.04,110.39,1785099670449.485
-0.911,-0.498,-0.275,-170.54,-26.89,105.72,1785099670449.707
-0.957,-0.522,-0.304,-156.93,-32.07,103.67,1785099670449.9268
-1.0,-0.541,-0.307,-143.59,-40.16,100.31,1785099670450.133
-0.989,-0.587,-0.311,-120.21,-39.61,99.58,1785099670450.349
-1.006,-0.602,-0.33,-90.37,-37.51,99.06,1785099670450.5652
-1.015,-0.605,-0.344,-58.81,-38.73,100.71,1785099670450.774
-0.995,-0.6,-0.345,-27.04,-39.31,103.58,1785099670451.009
-0.963,-0.569,-0.354,3.88,-36.38,104.98,1785099670451.225
-0.943,-0.509,-0.371,30.61,-30.88,103.89,1785099670451.445
-0.939,-0.442,-0.382,51.06,-25.18,100.71,1785099670451.652
-0.949,-0.389,-0.4,63.48,-20.33,95.71,1785099670451.8652
-0.95,-0.356,-0.417,65.83,-17.85,89.97,1785099670452.0771
-0.945,-0.33,-0.412,60.61,-15.81,84.26,1785099670452.283
-0.895,-0.328,-0.407,53.32,-11.84,77.76,1785099670452.499
-0.892,-0.333,-0.395,45.14,-7.2,68.03,1785099670452.713
-0.886,-0.342,-0.353,38.54,-2.99,59.88,1785099670452.929
-0.877,-0.355,-0.37,33.72,-1.74,52.89,1785099670453.137
-0.901,-0.315,-0.372,23.83,-2.35,43.4,1785099670453.3481
-0.929,-0.301,-0.369,10.25,-1.89,36.29,1785099670453.561
-0.944,-0.325,-0.363,-3.54,-0.7,31.34,1785099670453.762
-0.939,-0.341,-0.339,-14.98,-0.12,26.49,1785099670454.0042
-0.915,-0.354,-0.318,-20.91,1.28,20.87,1785099670454.22
-0.903,-0.358,-0.309,-23.1,3.17,14.22,1785099670454.43
-0.908,-0.355,-0.299,-24.45,3.85,8.39,1785099670454.632
-0.909,-0.353,-0.295,-25.42,3.63,3.75,1785099670454.8398
-0.912,-0.348,-0.294,-26.34,2.9,-0.09,1785099670455.038
-0.912,-0.348,-0.294,-25.7,2.17,-2.69,1785099670455.2278
-0.904,-0.347,-0.288,-21.94,2.26,-5.43,1785099670455.4272
-0.885,-0.349,-0.285,-16.48,2.9,-9.06,1785099670455.626
-0.882,-0.342,-0.294,-11.41,3.91,-12.39,1785099670455.817
-0.888,-0.329,-0.305,-11.41,3.91,-12.39,1785099670456.021
-0.9,-0.325,-0.313,-7.54,4.91,-14.65,1785099670456.2249
-0.9,-0.334,-0.317,-4.7,5.58,-15.81,1785099670456.4219
-0.901,-0.333,-0.317,-2.53,5.74,-16.6,1785099670456.616
-0.891,-0.331,-0.32,-0.73,5.22,-16.51,1785099670456.815
-0.876,-0.328,-0.318,1.13,5.86,-16.88,1785099670457.0142
-0.874,-0.323,-0.315,3.05,7.08,-18.01,1785099670457.2083
-0.879,-0.325,-0.316,4.36,7.2,-18.49,1785099670457.407
-0.878,-0.327,-0.313,4.73,6.32,-18.07,1785099670457.6052
-0.863,-0.322,-0.31,4.3,5.55,-17.85,1785099670457.7952
-0.87,-0.305,-0.311,3.05,5.31,-18.4,1785099670457.994
-0.877,-0.302,-0.313,2.11,5.49,-17.85,1785099670458.192
-0.88,-0.306,-0.311,0.95,4.76,-17.79,1785099670458.385
-0.878,-0.302,-0.305,-0.73,3.3,-17.98,1785099670458.581
-0.862,-0.306,-0.307,-0.76,3.17,-17.67,1785099670458.7798
-0.87,-0.305,-0.312,-0.37,3.57,-18.59,1785099670458.98
-0.874,-0.302,-0.315,-0.15,3.69,-19.35,1785099670459.173
-0.877,-0.301,-0.315,-0.27,3.42,-19.93,1785099670459.373
-0.882,-0.301,-0.319,-0.76,2.78,-20.23,1785099670459.5781
-0.885,-0.302,-0.319,-1.5,1.59,-19.9,1785099670459.769
-0.893,-0.301,-0.321,-2.38,0.4,-19.99,1785099670459.963
-0.908,-0.301,-0.329,-3.39,-0.34,-20.08,1785099670460.1592
-0.917,-0.302,-0.337,-4.61,-0.85,-20.11,1785099670460.354
-0.923,-0.299,-0.344,-6.13,-1.31,-20.29,1785099670460.546
-0.925,-0.298,-0.348,-7.32,-1.92,-20.26,1785099670460.747
-0.917,-0.295,-0.353,-8.7,-2.66,-20.23,1785099670460.976
-0.909,-0.295,-0.351,-9.98,-3.08,-20.51,1785099670461.182
-0.902,-0.292,-0.353,-10.86,-3.08,-21.03,1785099670461.4001
-0.893,-0.292,-0.358,-11.93,-3.33,-21.45,1785099670461.623
-0.884,-0.285,-0.357,-13.25,-3.42,-22.0,1785099670461.8462
-0.876,-0.28,-0.358,-14.34,-3.45,-22.64,1785099670462.067
-0.87,-0.276,-0.36,-15.5,-3.6,-23.41,1785099670462.276
-0.868,-0.273,-0.357,-16.94,-3.66,-24.17,1785099670462.472
-0.871,-0.276,-0.355,-18.16,-4.36,-23.77,1785099670462.699
-0.82,-0.258,-0.353,-19.14,-2.5,-24.96,1785099670462.91
-0.899,-0.222,-0.377,-24.72,-4.24,-28.9,1785099670463.0999
-0.882,-0.258,-0.355,-30.67,-7.57,-24.93,1785099670463.284
-0.833,-0.297,-0.351,-30.09,-5.62,-22.71,1785099670463.473
-0.841,-0.245,-0.358,-28.75,-3.36,-26.25,1785099670463.663
-0.869,-0.231,-0.363,-29.66,-3.54,-26.4,1785099670463.851
-0.852,-0.235,-0.361,-32.29,-4.55,-25.03,1785099670464.036
-0.857,-0.22,-0.365,-35.86,-3.91,-25.7,1785099670464.249
-0.862,-0.237,-0.361,-39.77,-3.6,-25.12,1785099670464.467
-0.863,-0.261,-0.345,-40.74,-3.36,-23.35,1785099670464.6553
-0.87,-0.265,-0.342,-37.84,-2.66,-22.06,1785099670464.8682
-0.871,-0.268,-0.344,-33.08,-1.74,-20.08,1785099670465.052
-0.878,-0.247,-0.347,-28.72,-1.04,-18.8,1785099670465.233
-0.887,-0.245,-0.349,-26.86,-1.31,-17.3,1785099670465.42
-0.87,-0.253,-0.348,-25.3,-1.86,-14.16,1785099670465.604
-0.872,-0.251,-0.342,-23.19,-1.22,-12.76,1785099670465.7869
-0.878,-0.262,-0.34,-19.81,-1.43,-9.89,1785099670465.962
-0.874,-0.265,-0.34,-15.08,-1.46,-6.74,1785099670466.1418
-0.874,-0.255,-0.342,-11.17,-1.19,-4.94,1785099670466.323
-0.869,-0.253,-0.342,-7.63,-0.95,-2.87,1785099670466.495
-0.866,-0.254,-0.34,-3.66,-0.49,-1.04,1785099670466.6729
-0.869,-0.262,-0.337,0.58,0.27,1.07,1785099670466.8523
-0.876,-0.257,-0.336,4.27,0.27,2.59,1785099670467.026
-0.872,-0.262,-0.331,6.56,0.03,4.73,1785099670467.205
-0.869,-0.266,-0.326,8.97,-0.06,7.05,1785099670467.385
-0.87,-0.266,-0.328,11.23,-0.12,8.73,1785099670467.565
-0.876,-0.27,-0.331,13.49,-0.15,10.16,1785099670467.747
-0.88,-0.272,-0.334,15.02,-0.58,11.51,1785099670467.9302
-0.88,-0.271,-0.34,15.17,-1.37,13.46,1785099670468.111
-0.885,-0.271,-0.342,14.56,-2.04,15.02,1785099670468.287
-0.889,-0.279,-0.343,14.5,-2.23,16.21,1785099670468.467
-0.884,-0.281,-0.348,14.68,-2.5,16.85,1785099670468.647
-0.877,-0.275,-0.346,13.7,-2.41,17.12,1785099670468.8252
-0.881,-0.28,-0.344,12.42,-2.56,17.27,1785099670469.008
-0.881,-0.283,-0.343,11.05,-2.84,17.09,1785099670469.1892
-0.881,-0.278,-0.342,8.85,-3.36,17.06,1785099670469.3718
-0.879,-0.279,-0.343,5.8,-4.03,16.57,1785099670469.5488
-0.874,-0.28,-0.339,3.02,-4.43,16.05,1785099670469.729
-0.876,-0.281,-0.341,0.31,-4.64,15.2,1785099670469.909
-0.876,-0.285,-0.341,-2.17,-5.65,14.83,1785099670470.086
-0.879,-0.284,-0.335,-4.18,-6.47,14.25,1785099670470.269
-0.887,-0.284,-0.334,-5.04,-6.78,13.7,1785099670470.499
-0.884,-0.303,-0.333,-5.13,-7.39,13.67,1785099670470.696
-0.877,-0.307,-0.335,-5.4,-8.48,12.79,1785099670470.91
-0.875,-0.285,-0.346,-4.91,-8.21,12.63,1785099670471.1152
-0.869,-0.288,-0.356,-2.69,-6.62,13.86,1785099670471.292
-0.877,-0.312,-0.347,-1.16,-7.14,12.6,1785099670471.526
-0.874,-0.307,-0.35,-1.13,-7.84,11.23,1785099670471.72
-0.865,-0.271,-0.356,-2.11,-6.93,13.28,1785099670472.095
-0.864,-0.282,-0.347,-2.32,-6.1,13.21,1785099670472.275
-0.914,-0.217,-0.298,-2.01,-7.02,11.02,1785099670472.5928
-0.919,-0.215,-0.299,-1.53,-7.05,10.77,1785099670472.7668
-0.919,-0.218,-0.295,-0.12,-7.02,10.93,1785099670477.702
-0.92,-0.218,-0.291,1.8,-6.87,10.9,1785099670483.1848
-0.916,-0.218,-0.287,4.24,-6.74,10.53,1785099670493.622
-0.915,-0.215,-0.288,6.56,-6.59,10.04,1785099670504.024
-0.914,-0.21,-0.288,8.06,-6.53,9.74,1785099670514.465
-0.913,-0.204,-0.291,8.42,-6.41,9.4,1785099670527.7021
-0.91,-0.2,-0.298,7.66,-6.1,8.64,1785099670533.1143
-0.904,-0.201,-0.304,6.23,-5.74,7.75,1785099670543.333
-0.903,-0.197,-0.307,4.21,-5.68,6.71,1785099670553.8252
-0.906,-0.192,-0.304,2.32,-5.65,6.29,1785099670564.1548
-0.907,-0.189,-0.3,1.04,-5.62,6.62,1785099670574.549
-0.91,-0.182,-0.31,0.24,-5.71,7.2,1785099670587.83
-0.912,-0.184,-0.306,-0.18,-5.43,7.6,1785099670593.246
-0.919,-0.189,-0.301,-1.62,-6.26,7.45,1785099670603.462
-0.919,-0.182,-0.302,-3.36,-6.44,8.51,1785099670613.917
-0.912,-0.189,-0.295,-3.51,-6.38,10.13,1785099670624.3682
-0.908,-0.19,-0.29,-3.02,-6.81,10.56,1785099670634.931
-0.905,-0.183,-0.288,-2.44,-7.05,10.9,1785099670648.221
-0.9,-0.178,-0.287,-1.68,-7.02,11.81,1785099670653.8857
-0.892,-0.176,-0.292,-0.76,-6.62,12.48,1785099670664.0442
-0.896,-0.176,-0.295,-1.01,-6.35,12.24,1785099670674.5952
-0.899,-0.173,-0.296,-2.81,-6.65,12.02,1785099670688.8052
-0.898,-0.167,-0.291,-5.19,-7.23,12.15,1785099670693.909
-0.898,-0.168,-0.291,-6.84,-7.63,12.36,1785099670703.905
-0.898,-0.174,-0.294,-7.78,-7.9,12.09,1785099670714.325
-0.901,-0.179,-0.3,-9.13,-8.09,11.51,1785099670724.7788
-0.898,-0.179,-0.301,-10.86,-8.06,10.8,1785099670738.101
-0.897,-0.18,-0.299,-12.54,-8.33,10.01,1785099670743.948
-0.894,-0.183,-0.302,-13.76,-8.45,9.46,1785099670754.2532
-0.894,-0.183,-0.302,-14.89,-8.85,8.91,1785099670764.698
-0.899,-0.178,-0.303,-15.93,-9.28,8.67,1785099670777.8508
-0.902,-0.178,-0.315,-17.24,-9.61,8.51,1785099670783.911
-0.909,-0.183,-0.329,-19.99,-9.64,7.84,1785099670793.7878
-0.915,-0.198,-0.338,-23.9,-9.61,6.9,1785099670804.3132
-0.922,-0.21,-0.345,-27.95,-9.7,6.29,1785099670814.827
-0.931,-0.219,-0.35,-31.22,-9.64,6.16,1785099670827.817
-0.937,-0.231,-0.354,-33.45,-9.37,6.07,1785099670833.7212
-0.94,-0.232,-0.356,-35.1,-8.67,5.8,1785099670843.9648
-0.94,-0.221,-0.353,-36.77,-8.15,5.98,1785099670854.448
-0.931,-0.21,-0.356,-38.51,-7.51,5.95,1785099670864.9258
-0.924,-0.207,-0.375,-40.59,-6.23,5.07,1785099670878.0889
-0.916,-0.21,-0.391,-43.95,-4.24,3.2,1785099670884.104
-0.912,-0.222,-0.41,-48.4,-2.17,0.7,1785099670894.076
-0.911,-0.243,-0.426,-52.4,0.55,-2.23,1785099670904.557
-0.916,-0.251,-0.431,-55.45,3.23,-5.49,1785099670916.959
-0.913,-0.255,-0.427,-56.46,5.98,-8.24,1785099670928.129
-0.887,-0.256,-0.429,-54.54,9.31,-10.96,1785099670934.3271
-0.86,-0.251,-0.434,-49.71,13.64,-14.04,1785099670944.4612
-0.859,-0.234,-0.425,-44.47,18.01,-17.43,1785099670955.986
-0.871,-0.22,-0.406,-38.48,21.45,-20.08,1785099670968.3662
-0.882,-0.235,-0.399,-30.95,24.6,-21.91,1785099670974.6821
-0.9,-0.256,-0.41,-24.41,27.34,-24.48,1785099670986.937
-0.925,-0.258,-0.417,-20.75,28.93,-27.5,1785099670998.0002
-0.94,-0.246,-0.434,-18.1,29.97,-28.26,1785099671003.846
-0.953,-0.221,-0.452,-16.63,31.01,-27.68,1785099671014.38
-0.957,-0.201,-0.484,-17.33,31.71,-26.61,1785099671027.4849
-0.959,-0.189,-0.519,-20.72,32.53,-25.85,1785099671033.314
-0.954,-0.183,-0.551,-27.53,33.97,-26.37,1785099671044.3362
-0.942,-0.179,-0.566,-35.65,36.23,-27.1,1785099671054.965
-0.924,-0.193,-0.561,-41.38,39.19,-27.19,1785099671067.9229
-0.912,-0.214,-0.539,-43.34,42.02,-26.92,1785099671073.514
-0.909,-0.245,-0.523,-42.21,43.98,-27.13,1785099671084.3962
-0.907,-0.272,-0.521,-39.98,45.32,-28.72,1785099671097.929
-0.913,-0.29,-0.537,-38.09,46.45,-31.4,1785099671103.7869
-0.924,-0.275,-0.567,-38.27,47.4,-33.78,1785099671114.421
-0.921,-0.24,-0.595,-40.53,48.28,-34.39,1785099671124.798
-0.9,-0.22,-0.651,-43.55,50.17,-34.76,1785099671138.315
-0.885,-0.216,-0.685,-48.19,53.32,-36.04,1785099671144.0771
-0.885,-0.216,-0.685,-52.61,56.86,-37.23,1785099671154.582
-0.897,-0.232,-0.688,-54.78,59.36,-38.06,1785099671167.806
-0.932,-0.261,-0.681,-53.8,61.19,-38.48,1785099671173.3918
-0.961,-0.286,-0.672,-50.75,63.63,-37.9,1785099671184.4448
-0.988,-0.293,-0.673,-48.62,65.8,-36.35,1785099671194.9639
-1.001,-0.283,-0.691,-48.62,65.8,-36.35,1785099671208.2341
-0.977,-0.258,-0.711,-48.71,67.87,-34.0,1785099671214.143
-0.933,-0.238,-0.727,-51.0,70.13,-31.62,1785099671224.6133
-0.911,-0.229,-0.759,-54.84,72.73,-30.4,1785099671237.937
-0.911,-0.224,-0.794,-59.63,76.02,-29.57,1785099671243.416
-0.918,-0.24,-0.814,-62.44,79.93,-28.66,1785099671254.484
-0.928,-0.265,-0.818,-61.89,83.71,-28.72,1785099671265.1711
-0.936,-0.292,-0.808,-56.43,87.19,-29.36,1785099671278.3867
-0.938,-0.313,-0.793,-46.33,90.21,-29.6,1785099671284.312
-0.942,-0.324,-0.798,-33.63,92.84,-29.3,1785099671294.752
-0.935,-0.32,-0.827,-21.61,95.83,-28.99,1785099671307.901
-0.933,-0.303,-0.846,-13.61,99.52,-29.33,1785099671313.913
-0.943,-0.285,-0.854,-10.8,102.39,-29.54,1785099671324.513
-0.936,-0.27,-0.866,-11.99,104.56,-29.82,1785099671337.792
-0.93,-0.26,-0.869,-14.56,106.48,-30.34,1785099671343.72
-0.929,-0.263,-0.893,-17.0,108.28,-31.34,1785099671354.644
-0.933,-0.273,-0.921,-19.75,110.84,-33.42,1785099671367.888
-0.925,-0.292,-0.944,-21.88,113.41,-35.31,1785099671373.6792
-0.901,-0.301,-0.945,-22.8,116.25,-36.44,1785099671384.5051
-0.875,-0.3,-0.962,-21.97,119.08,-36.68,1785099671397.6992
-0.865,-0.279,-0.942,-22.34,122.47,-36.59,1785099671403.632
-0.868,-0.278,-0.915,-21.85,124.55,-37.08,1785099671414.439
-0.87,-0.288,-0.91,-21.03,125.74,-39.09,1785099671427.632
-0.877,-0.277,-0.915,-21.15,127.02,-42.02,1785099671433.881
-0.881,-0.266,-0.911,-21.39,128.24,-44.1,1785099671444.3618
-0.877,-0.27,-0.903,-21.79,129.61,-45.14,1785099671457.634
-0.857,-0.271,-0.897,-22.22,130.83,-46.08,1785099671463.625
-0.833,-0.26,-0.89,-23.29,131.05,-46.82,1785099671474.403
-0.807,-0.246,-0.907,-24.81,131.5,-46.88,1785099671485.244
-0.79,-0.246,-0.906,-25.45,134.01,-47.18,1785099671498.803
-0.79,-0.234,-0.872,-24.72,134.53,-47.7,1785099671504.4192
-0.757,-0.224,-0.871,-22.49,132.91,-48.16,1785099671515.1958
-0.711,-0.226,-0.878,-20.2,132.42,-49.2,1785099671528.2922
-0.69,-0.228,-0.883,-18.71,131.66,-49.65,1785099671533.9302
-0.678,-0.202,-0.894,-20.45,130.16,-48.1,1785099671545.012
-0.658,-0.181,-0.894,-25.12,129.76,-45.26,1785099671558.856
-0.644,-0.19,-0.885,-29.45,129.49,-43.89,1785099671565.989
-0.635,-0.189,-0.863,-32.53,128.18,-43.49,1785099671574.795
-0.612,-0.179,-0.855,-33.91,126.35,-42.33,1785099671588.069
-0.573,-0.161,-0.861,-34.39,124.64,-40.65,1785099671594.1912
-0.54,-0.145,-0.874,-34.73,122.75,-38.97,1785099671604.701
-0.498,-0.132,-0.901,-35.68,121.34,-37.57,1785099671618.319
-0.457,-0.122,-0.917,-37.39,120.82,-36.47,1785099671624.0872
-0.433,-0.124,-0.914,-39.03,120.3,-35.16,1785099671639.8179
-0.426,-0.131,-0.894,-40.68,119.63,-33.78,1785099671650.272
-0.415,-0.137,-0.863,-41.51,118.38,-31.86,1785099671653.8188
-0.378,-0.141,-0.853,-40.38,117.34,-29.76,1785099671664.704
-0.328,-0.135,-0.857,-38.0,116.43,-27.77,1785099671678.1702
-0.295,-0.123,-0.87,-35.43,115.63,-26.22,1785099671684.16
-0.262,-0.108,-0.883,-33.75,115.09,-24.75,1785099671694.847
-0.231,-0.099,-0.872,-32.47,114.41,-23.04,1785099671708.159
-0.209,-0.103,-0.85,-30.27,113.35,-21.18,1785099671714.071
-0.195,-0.11,-0.833,-27.01,111.64,-19.75,1785099671724.884
-0.177,-0.106,-0.833,-23.16,109.26,-18.37,1785099671738.017
-0.157,-0.1,-0.827,-19.17,107.36,-16.79,1785099671744.047
-0.132,-0.104,-0.833,-15.56,105.56,-15.78,1785099671754.8953
-0.113,-0.092,-0.839,-14.28,103.76,-15.32,1785099671767.942
-0.083,-0.077,-0.857,-15.35,101.69,-14.56,1785099671773.8171
-0.058,-0.054,-0.867,-19.32,99.7,-14.25,1785099671784.706
-0.03,-0.037,-0.876,-24.9,98.15,-14.37,1785099671797.7998
-0.011,-0.039,-0.866,-30.21,97.08,-14.77,1785099671803.981
0.004,-0.051,-0.855,-33.91,95.92,-15.53,1785099671814.377
0.019,-0.057,-0.856,-35.62,94.67,-16.39,1785099671826.096
0.033,-0.052,-0.847,-35.89,93.84,-16.45,1785099671838.086
0.04,-0.051,-0.824,-34.88,92.47,-15.75,1785099671844.2122
0.057,-0.04,-0.812,-33.3,90.3,-14.95,1785099671855.732
0.074,-0.023,-0.807,-31.65,87.95,-13.89,1785099671868.171
0.086,-0.016,-0.801,-31.04,86.0,-12.42,1785099671874.364
0.101,-0.013,-0.788,-31.98,84.35,-11.6,1785099671884.675
0.126,-0.011,-0.783,-33.33,82.49,-11.17,1785099671895.0981
0.15,0.0,-0.763,-34.0,80.94,-10.35,1785099671908.348
0.162,0.002,-0.734,-32.84,78.86,-8.58,1785099671914.3
0.171,-0.002,-0.72,-30.67,75.9,-6.74,1785099671924.595
0.183,-0.013,-0.719,-27.89,72.97,-5.28,1785099671937.97
0.204,-0.024,-0.748,-25.39,70.16,-4.85,1785099671943.732
0.23,-0.012,-0.771,-24.75,68.15,-4.58,1785099671954.0999
0.252,0.001,-0.778,-25.24,66.32,-3.72,1785099671964.604
0.267,0.003,-0.782,-27.41,64.39,-2.96,1785099671977.887
0.273,0.009,-0.765,-31.22,62.29,-2.53,1785099671984.095
0.278,0.005,-0.738,-33.42,60.15,-1.95,1785099671994.012
0.29,-0.008,-0.718,-32.9,58.63,-1.98,1785099672004.597
0.306,-0.009,-0.697,-30.64,57.31,-2.9,1785099672039.0908
0.32,-0.006,-0.691,-26.98,55.64,-4.43,1785099672039.358
0.332,0.01,-0.693,-24.23,53.71,-6.01,1785099672039.663
0.339,0.022,-0.684,-22.71,51.42,-6.84,1785099672044.208
0.347,0.021,-0.677,-21.49,48.95,-7.11,1785099672066.323
0.349,0.019,-0.666,-20.17,46.36,-7.32,1785099672072.237
0.354,0.029,-0.671,-18.62,43.46,-7.54,1785099672076.3398
0.357,0.052,-0.678,-18.04,40.99,-7.51,1785099672091.249
0.365,0.066,-0.69,-19.26,38.54,-7.32,1785099672097.706
0.377,0.083,-0.702,-23.19,35.92,-7.39,1785099672103.111
0.389,0.093,-0.702,-28.17,33.33,-6.78,1785099672113.7039
0.403,0.081,-0.704,-32.59,30.76,-5.83,1785099672124.211
0.417,0.067,-0.705,-35.71,28.41,-5.34,1785099672137.508
0.419,0.059,-0.688,-36.35,26.37,-4.52,1785099672143.1511
0.425,0.053,-0.675,-33.78,24.29,-3.63,1785099672153.712
0.433,0.059,-0.676,-29.36,22.31,-3.51,1785099672164.21
0.442,0.072,-0.68,-24.2,20.75,-3.85,1785099672177.563
0.461,0.098,-0.704,-19.71,19.41,-4.21,1785099672183.1118
0.482,0.122,-0.731,-17.27,18.74,-4.21,1785099672193.6572
0.481,0.125,-0.74,-16.91,18.25,-4.03,1785099672204.235
0.465,0.111,-0.736,-17.21,17.43,-4.15,1785099672217.543
0.451,0.107,-0.73,-17.73,16.02,-4.49,1785099672223.211
0.446,0.109,-0.716,-16.97,14.37,-4.21,1785099672233.6938
0.459,0.125,-0.725,-14.95,12.88,-3.78,1785099672244.332
0.473,0.147,-0.723,-12.36,12.15,-3.14,1785099672257.566
0.465,0.143,-0.708,-8.55,11.75,-2.23,1785099672263.0881
0.445,0.126,-0.681,-3.97,10.41,-1.8,1785099672273.588
0.436,0.119,-0.672,1.16,7.54,-1.56,1785099672283.977
0.459,0.139,-0.711,6.26,4.24,-1.04,1785099672294.3572
0.493,0.171,-0.763,8.51,2.26,-0.18,1785099672304.6838
0.504,0.181,-0.799,7.45,2.01,1.25,1785099672318.062
0.494,0.169,-0.802,3.94,2.5,2.14,1785099672323.416
0.476,0.153,-0.786,1.16,2.14,2.35,1785099672333.659
0.469,0.145,-0.784,1.56,1.07,2.17,1785099672344.096
0.477,0.143,-0.793,3.66,1.1,2.08,1785099672354.4268
0.487,0.141,-0.81,5.37,1.89,2.08,1785099672364.8123
0.496,0.141,-0.815,6.74,3.3,2.5,1785099672378.0852
0.503,0.139,-0.804,10.44,4.64,3.42,1785099672383.663
0.514,0.125,-0.801,16.75,5.62,3.57,1785099672394.044
0.514,0.113,-0.81,24.17,6.84,2.47,1785099672404.4421
0.5,0.104,-0.819,30.85,8.79,0.76,1785099672414.939
0.489,0.095,-0.83,36.84,11.26,-0.61,1785099672428.238
0.478,0.092,-0.833,42.21,14.19,-1.68,1785099672434.161
0.478,0.092,-0.833,48.16,16.66,-2.41,1785099672446.335
0.466,0.078,-0.831,54.41,18.8,-3.75,1785099672455.172
0.464,0.06,-0.829,60.15,20.54,-5.55,1785099672469.1711
0.48,0.043,-0.83,64.55,21.67,-7.78,1785099672473.893
0.506,0.038,-0.862,64.55,21.67,-7.78,1785099672484.469
0.522,0.046,-0.896,65.95,23.47,-9.92,1785099672495.125
0.51,0.051,-0.91,64.42,25.91,-11.51,1785099672508.2822
0.487,0.046,-0.908,61.19,28.57,-13.34,1785099672514.2278
0.462,0.038,-0.881,57.95,31.8,-15.56,1785099672524.831
0.426,0.031,-0.793,58.35,35.62,-17.4,1785099672538.1372
0.388,0.022,-0.699,64.88,39.55,-18.4,1785099672544.0278
0.367,-0.008,-0.616,78.16,43.37,-19.99,1785099672554.545
0.382,-0.048,-0.602,94.45,44.31,-23.22,1785099672567.924
0.428,-0.035,-0.654,106.05,42.73,-27.34,1785099672573.705
0.453,0.008,-0.703,109.41,41.29,-30.79,1785099672584.46
0.435,0.028,-0.751,102.6,41.29,-34.03,1785099672595.194
0.385,0.011,-0.778,87.41,43.4,-38.42,1785099672608.345
0.31,-0.023,-0.742,69.83,47.7,-43.95,1785099672614.46
0.231,-0.076,-0.647,59.24,53.16,-49.81,1785099672624.733
0.198,-0.146,-0.573,61.46,57.65,-55.06,1785099672638.109
0.226,-0.187,-0.522,74.25,60.3,-58.87,1785099672643.9949
0.308,-0.175,-0.508,92.38,59.57,-60.21,1785099672654.634
0.383,-0.107,-0.519,108.25,55.42,-59.94,1785099672667.9639
0.417,-0.03,-0.524,115.05,50.45,-58.32,1785099672673.742
0.401,-0.007,-0.533,111.45,46.85,-57.04,1785099672684.5708
0.336,-0.035,-0.544,100.34,46.51,-59.18,1785099672697.82
0.241,-0.098,-0.543,88.93,49.53,-63.81,1785099672703.8347
0.186,-0.159,-0.533,83.16,53.74,-67.9,1785099672714.318
0.21,-0.203,-0.518,84.38,56.43,-69.34,1785099672724.79
0.276,-0.205,-0.491,89.6,56.12,-68.33,1785099672738.144
0.321,-0.188,-0.463,95.46,52.74,-63.78,1785099672744.1301
0.318,-0.196,-0.457,100.56,48.37,-57.53,1785099672754.8162
0.296,-0.203,-0.46,104.16,45.29,-51.39,1785099672768.19
0.276,-0.199,-0.472,106.27,43.03,-45.35,1785099672773.97
0.262,-0.202,-0.485,107.15,41.47,-40.44,1785099672784.827
0.264,-0.212,-0.477,106.08,40.01,-37.23,1785099672797.9697
0.292,-0.229,-0.452,104.1,37.97,-34.12,1785099672803.935
0.343,-0.251,-0.451,103.37,34.76,-29.91,1785099672814.729
0.415,-0.259,-0.443,103.0,31.34,-24.35,1785099672827.895
0.468,-0.273,-0.409,103.95,26.55,-15.59,1785099672834.0007
0.495,-0.315,-0.429,106.63,20.57,-5.25,1785099672844.537
0.504,-0.347,-0.472,110.05,16.11,4.06,1785099672857.815
0.495,-0.34,-0.471,113.83,12.24,14.74,1785099672863.7249
0.556,-0.314,-0.545,118.14,8.94,27.38,1785099672874.36
1.052,-0.205,-0.959,124.76,25.09,38.82,1785099672885.1453
2.202,-0.187,-0.607,144.51,102.45,53.93,1785099672898.388
2.266,-0.624,0.265,153.81,118.96,81.03,1785099672904.311
1.127,-0.73,0.251,153.72,42.39,107.39,1785099672917.903
0.196,-0.605,-0.032,178.96,-2.72,108.28,1785099672923.355
-0.142,-0.213,-0.15,171.39,-49.59,112.03,1785099672934.638
0.332,-0.054,-0.49,149.45,-54.9,126.22,1785099672947.984
0.906,-0.15,-0.572,111.94,-12.24,127.11,1785099672953.968
1.183,-0.167,-0.482,75.44,15.38,133.95,1785099672964.823
1.121,-0.258,-0.437,77.15,19.87,151.8,1785099672977.988
0.943,-0.416,-0.364,111.97,9.52,166.14,1785099672984.09
0.807,-0.599,-0.378,156.59,-6.01,172.98,1785099672994.719
0.688,-0.73,-0.393,187.29,-10.68,181.83,1785099673007.9749
0.609,-0.778,-0.426,193.88,-11.05,199.9,1785099673013.949
0.594,-0.76,-0.473,170.78,-15.41,223.52,1785099673024.939
0.636,-0.75,-0.433,136.45,-22.83,239.51,1785099673038.111
0.659,-0.792,-0.429,114.6,-33.6,235.54,1785099673044.197
0.607,-0.823,-0.489,99.34,-45.93,217.44,1785099673054.9363
0.508,-0.818,-0.532,78.77,-58.9,198.86,1785099673068.4731
0.419,-0.818,-0.562,52.34,-72.39,187.02,1785099673074.312
0.343,-0.843,-0.602,26.4,-86.49,183.36,1785099673086.154
0.281,-0.912,-0.602,9.49,-99.67,186.68,1785099673102.752
0.222,-1.012,-0.58,6.59,-110.42,193.0,1785099673103.9272
0.166,-1.06,-0.593,13.18,-117.68,196.72,1785099673114.858
0.115,-1.016,-0.637,20.69,-121.16,196.45,1785099673128.209
0.099,-0.931,-0.707,21.52,-122.99,194.65,1785099673133.961
0.108,-0.856,-0.754,9.89,-123.54,191.17,1785099673147.5972
0.091,-0.896,-0.775,-13.0,-122.71,184.15,1785099673153.7522
0.018,-1.034,-0.776,-45.84,-121.16,172.43,1785099673164.478
-0.098,-1.132,-0.744,-84.54,-120.76,160.56,1785099673178.013
-0.156,-1.114,-0.696,-119.36,-123.2,156.38,1785099673183.731
-0.146,-1.033,-0.642,-141.97,-127.6,158.73,1785099673195.0122
-0.12,-0.932,-0.608,-152.9,-134.46,160.74,1785099673208.331
-0.112,-0.843,-0.685,-154.06,-141.33,159.06,1785099673214.326
-0.149,-0.76,-0.813,-150.64,-142.77,154.42,1785099673227.88
-0.207,-0.714,-0.891,-145.33,-138.34,149.66,1785099673234.1309
-0.27,-0.733,-0.901,-139.29,-131.57,146.03,1785099673245.0938
-0.315,-0.804,-0.847,-130.53,-126.22,143.71,1785099673258.307
-0.304,-0.908,-0.774,-116.21,-125.83,145.24,1785099673264.4128
-0.281,-0.926,-0.669,-95.1,-124.15,147.74,1785099673277.942
-0.287,-0.91,-0.628,-67.6,-122.01,150.82,1785099673283.629
-0.357,-0.881,-0.687,-46.75,-125.06,153.17,1785099673294.937
-0.412,-0.863,-0.8,-40.19,-132.15,158.67,1785099673308.1228
-0.446,-0.864,-0.905,-42.73,-132.6,161.53,1785099673314.044
-0.518,-0.84,-0.935,-52.4,-127.02,159.4,1785099673325.082
-0.557,-0.804,-0.909,-62.11,-120.91,155.61,1785099673338.3591
-0.567,-0.758,-0.84,-66.65,-113.04,149.75,1785099673344.7349
-0.547,-0.747,-0.785,-64.46,-107.58,145.3,1785099673357.7449
-0.548,-0.76,-0.744,-58.47,-107.61,139.87,1785099673363.843
-0.591,-0.791,-0.72,-51.55,-110.29,134.62,1785099673374.8381
-0.644,-0.818,-0.713,-44.92,-113.35,130.86,1785099673387.9922
-0.677,-0.831,-0.742,-36.62,-114.47,127.51,1785099673393.8958
-0.694,-0.826,-0.741,-23.65,-110.6,120.27,1785099673404.922
-0.737,-0.838,-0.743,-4.76,-105.23,113.25,1785099673418.3381
-0.729,-0.819,-0.748,14.16,-102.6,109.62,1785099673424.111
-0.73,-0.745,-0.713,28.47,-99.4,105.59,1785099673435.071
-0.74,-0.7,-0.698,39.52,-91.68,103.85,1785099673448.271
-0.771,-0.746,-0.745,43.21,-85.57,104.62,1785099673454.2231
-0.812,-0.758,-0.767,30.76,-87.47,103.15,1785099673465.031
-0.846,-0.646,-0.715,8.18,-86.55,98.88,1785099673478.249
-0.827,-0.573,-0.668,-8.45,-79.68,98.15,1785099673483.857
-0.788,-0.558,-0.635,-19.1,-74.65,93.05,1785099673494.4949
-0.779,-0.557,-0.599,-27.47,-72.24,82.89,1785099673505.137
-0.776,-0.576,-0.559,-32.07,-70.1,75.11,1785099673518.379
-0.784,-0.586,-0.528,-32.35,-68.54,69.89,1785099673524.2612
-0.807,-0.563,-0.509,-30.4,-68.51,67.05,1785099673534.718
-0.829,-0.534,-0.495,-26.0,-69.34,67.38,1785099673547.9739
-0.829,-0.503,-0.488,-20.23,-69.89,69.0,1785099673554.083
-0.826,-0.452,-0.495,-15.84,-69.92,70.01,1785099673564.529
-0.827,-0.391,-0.507,-14.47,-68.48,71.14,1785099673577.748
-0.83,-0.353,-0.507,-14.86,-65.86,72.94,1785099673583.803
-0.839,-0.339,-0.504,-16.69,-63.14,74.71,1785099673594.2012
-0.848,-0.34,-0.491,-19.29,-60.12,76.39,1785099673604.865
-0.852,-0.354,-0.469,-20.33,-57.13,77.09,1785099673618.212
-0.865,-0.362,-0.443,-18.89,-54.63,76.91,1785099673624.0508
-0.887,-0.361,-0.421,-15.17,-52.58,76.63,1785099673634.6519
-0.904,-0.346,-0.405,-10.68,-50.63,76.27,1785099673647.845
-0.921,-0.322,-0.392,-6.1,-49.2,76.39,1785099673653.7961
-0.927,-0.306,-0.389,-2.38,-47.88,76.14,1785099673664.126
-0.925,-0.293,-0.393,-0.27,-46.11,74.59,1785099673674.908
-0.92,-0.281,-0.4,0.92,-43.98,72.39,1785099673687.926
-0.919,-0.278,-0.409,2.41,-41.51,70.47,1785099673693.8171
-0.934,-0.277,-0.407,3.3,-38.61,67.23,1785099673704.122
-0.947,-0.269,-0.393,4.36,-35.71,63.11,1785099673714.752
-0.947,-0.269,-0.393,6.47,-33.17,59.33,1785099673727.875
-0.951,-0.264,-0.381,8.45,-31.22,55.36,1785099673733.936
-0.948,-0.251,-0.37,9.03,-29.82,51.91,1785099673744.113
-0.944,-0.222,-0.362,8.45,-28.93,49.07,1785099673754.699
-0.944,-0.19,-0.359,6.35,-27.92,45.87,1785099673767.98
-0.946,-0.179,-0.368,6.35,-27.92,45.87,1785099673773.8188
-0.944,-0.184,-0.375,2.81,-26.28,41.57,1785099673784.1223
-0.936,-0.188,-0.376,-0.37,-24.14,36.5,1785099673794.6438
-0.93,-0.194,-0.37,-1.92,-21.73,32.5,1785099673807.9172
-0.926,-0.198,-0.36,-2.35,-19.87,29.33,1785099673813.8071
-0.917,-0.2,-0.347,-1.4,-18.22,27.07,1785099673823.9958
-0.909,-0.204,-0.34,0.12,-16.69,24.66,1785099673834.508
-0.907,-0.193,-0.33,0.92,-15.38,22.31,1785099673847.906
-0.902,-0.174,-0.329,0.73,-14.47,20.45,1785099673853.837
-0.892,-0.155,-0.331,-1.01,-13.76,19.04,1785099673864.0981
-0.892,-0.153,-0.348,-4.3,-13.7,17.33,1785099673874.6472
-0.913,-0.156,-0.365,-9.61,-13.18,14.74,1785099673887.917
-0.95,-0.17,-0.382,-16.05,-12.67,11.41,1785099673893.8281
-0.97,-0.183,-0.401,-22.22,-11.41,8.03,1785099673904.199
-0.957,-0.203,-0.399,-27.01,-8.76,4.52,1785099673914.707
-0.946,-0.234,-0.381,-30.03,-7.11,-0.76,1785099673925.151
-0.939,-0.229,-0.343,-29.79,-5.37,-4.61,1785099673938.341
-0.903,-0.219,-0.3,-22.55,-2.99,-5.55,1785099673944.245
-0.874,-0.204,-0.284,-11.96,-0.92,-7.93,1785099673954.305
-0.872,-0.183,-0.29,-4.15,1.31,-11.23,1785099673964.792
-0.881,-0.175,-0.303,-1.71,3.54,-14.62,1785099673977.988
-0.89,-0.174,-0.32,-4.46,5.07,-18.19,1785099673984.075
-0.896,-0.179,-0.335,-9.4,6.44,-21.42,1785099673993.9302
-0.898,-0.191,-0.348,-13.61,8.24,-23.99,1785099674004.5627
-0.894,-0.207,-0.359,-15.87,10.47,-26.15,1785099674017.876
-0.893,-0.21,-0.351,-16.72,12.09,-28.11,1785099674023.857
-0.879,-0.201,-0.344,-16.66,12.79,-28.9,1785099674034.251
-0.858,-0.203,-0.332,-14.95,13.79,-28.69,1785099674044.7231
-0.848,-0.215,-0.323,-12.45,14.74,-29.33,1785099674058.123
-0.843,-0.226,-0.329,-10.38,15.56,-30.79,1785099674064.01
-0.847,-0.23,-0.345,-9.67,16.51,-31.86,1785099674074.497
-0.857,-0.223,-0.361,-11.35,17.85,-32.26,1785099674085.195
-0.869,-0.225,-0.371,-14.07,19.04,-32.23,1785099674098.5889
-0.881,-0.235,-0.379,-17.03,19.84,-32.11,1785099674104.32
-0.895,-0.251,-0.382,-19.5,20.54,-31.8,1785099674115.0452
-0.907,-0.264,-0.378,-20.39,21.27,-31.13,1785099674127.913
-0.915,-0.274,-0.374,-19.17,21.73,-29.91,1785099674133.8828
-0.926,-0.28,-0.379,-16.24,21.55,-28.44,1785099674144.5862
-0.939,-0.278,-0.393,-12.85,20.84,-27.04,1785099674157.7979
-0.951,-0.262,-0.417,-11.35,19.9,-26.03,1785099674163.738
-0.949,-0.25,-0.451,-12.39,19.59,-24.99,1785099674174.314
-0.936,-0.244,-0.485,-15.99,20.51,-24.35,1785099674184.8152
-0.93,-0.242,-0.503,-21.0,22.68,-23.87,1785099674198.108
-0.93,-0.247,-0.495,-25.88,25.61,-23.44,1785099674203.624
-0.937,-0.266,-0.471,-29.36,27.68,-23.19,1785099674214.572
-0.949,-0.292,-0.458,-31.07,28.14,-23.99,1785099674227.702
-0.967,-0.303,-0.473,-32.07,27.89,-25.27,1785099674233.606
-0.967,-0.296,-0.512,-33.72,28.05,-26.55,1785099674244.287
-0.952,-0.288,-0.548,-35.37,29.39,-28.08,1785099674254.821
-0.931,-0.279,-0.584,-36.87,32.01,-30.43,1785099674268.1228
-0.916,-0.265,-0.601,-38.82,35.92,-32.9,1785099674273.906
-0.909,-0.262,-0.598,-40.16,39.92,-35.0,1785099674284.672
-0.908,-0.271,-0.59,-40.93,44.13,-37.66,1785099674298.045
-0.917,-0.279,-0.57,-41.2,48.1,-40.74,1785099674303.841
-0.934,-0.289,-0.553,-40.16,51.06,-43.06,1785099674314.419
-0.953,-0.299,-0.563,-38.39,53.22,-45.11,1785099674324.9731
-0.958,-0.305,-0.59,-36.29,55.91,-46.78,1785099674338.2212
-0.947,-0.308,-0.612,-33.33,59.18,-47.64,1785099674344.136
-0.933,-0.311,-0.632,-29.42,62.62,-48.1,1785099674354.735
-0.93,-0.312,-0.644,-25.45,65.98,-47.91,1785099674368.0168
-0.929,-0.323,-0.644,-21.52,69.61,-47.06,1785099674373.86
-0.935,-0.341,-0.634,-16.79,73.27,-46.78,1785099674384.403
-0.952,-0.353,-0.615,-10.38,76.02,-47.06,1785099674395.0442
-0.96,-0.365,-0.619,-2.53,77.73,-47.27,1785099674408.293
-0.959,-0.351,-0.649,4.0,79.01,-47.67,1785099674414.175
-0.948,-0.324,-0.696,7.35,79.78,-47.55,1785099674424.4712
-0.916,-0.301,-0.755,6.2,81.3,-47.43,1785099674435.074
-0.89,-0.291,-0.792,1.19,84.6,-48.49,1785099674448.358
-0.89,-0.298,-0.792,-5.16,88.2,-49.44,1785099674454.279
-0.906,-0.325,-0.758,-10.16,90.88,-49.59,1785099674464.672
-0.923,-0.371,-0.724,-11.54,92.29,-49.96,1785099674477.835
-0.919,-0.41,-0.699,-9.52,93.11,-50.08,1785099674485.4
-0.896,-0.44,-0.681,-4.0,93.69,-49.71,1785099674493.8828
-0.862,-0.453,-0.688,4.3,94.3,-49.62,1785099674504.704
-0.832,-0.441,-0.713,12.3,95.31,-49.47,1785099674517.7952
-0.822,-0.413,-0.73,17.67,96.29,-49.26,1785099674524.064
-0.82,-0.388,-0.752,18.86,97.17,-50.02,1785099674534.374
-0.831,-0.375,-0.765,15.72,98.3,-51.85,1785099674545.066
-0.85,-0.384,-0.767,9.8,98.79,-54.2,1785099674558.249
-0.851,-0.405,-0.77,2.9,98.7,-56.7,1785099674564.175
-0.841,-0.428,-0.776,-3.3,98.88,-58.9,1785099674574.486
-0.827,-0.443,-0.782,-8.55,99.28,-59.88,1785099674585.011
-0.815,-0.454,-0.777,-12.27,99.58,-59.82,1785099674598.466
-0.81,-0.459,-0.751,-13.52,99.64,-59.69,1785099674604.237
-0.796,-0.46,-0.746,-11.47,99.22,-60.15,1785099674614.7551
-0.782,-0.458,-0.743,-7.02,98.85,-60.67,1785099674627.969
-0.767,-0.461,-0.76,-1.71,97.99,-61.68,1785099674634.021
-0.737,-0.444,-0.817,1.77,97.75,-62.96,1785099674644.177
-0.712,-0.425,-0.855,1.83,98.21,-64.3,1785099674654.709
-0.697,-0.414,-0.87,-1.59,98.39,-65.4,1785099674668.045
-0.687,-0.413,-0.887,-8.18,97.81,-66.26,1785099674673.853
-0.668,-0.427,-0.91,-15.87,97.66,-66.53,1785099674684.266
-0.65,-0.446,-0.913,-22.34,98.79,-66.74,1785099674695.051
-0.634,-0.452,-0.894,-26.09,99.83,-66.26,1785099674708.21
-0.621,-0.451,-0.878,-26.7,99.34,-64.94,1785099674714.022
-0.602,-0.451,-0.9,-25.36,98.21,-63.54,1785099674724.587
-0.579,-0.453,-0.923,-24.93,97.69,-62.62,1785099674737.8408
-0.554,-0.466,-0.945,-25.45,97.81,-63.11,1785099674743.816
-0.535,-0.478,-0.967,-26.8,99.06,-64.76,1785099674754.41
-0.519,-0.48,-0.977,-28.84,100.59,-65.83,1785099674765.264
-0.5,-0.468,-0.979,-31.89,101.66,-66.19,1785099674778.301
-0.484,-0.453,-0.97,-35.58,102.3,-65.65,1785099674784.348
-0.465,-0.445,-0.974,-39.09,102.24,-64.94,1785099674795.011
-0.451,-0.429,-0.972,-43.15,102.27,-64.58,1785099674808.2603
-0.436,-0.413,-0.96,-46.42,102.45,-63.69,1785099674814.2478
-0.424,-0.411,-0.944,-47.91,102.42,-63.39,1785099674824.8801
-0.405,-0.404,-0.946,-48.65,101.75,-63.36,1785099674838.306
-0.361,-0.392,-0.98,-49.59,101.69,-62.72,1785099674843.763
-0.319,-0.399,-0.994,-50.23,103.31,-61.83,1785099674854.839
-0.304,-0.414,-0.984,-50.29,104.74,-61.59,1785099674868.328
-0.297,-0.423,-0.962,-48.37,106.11,-60.88,1785099674874.1802
-0.295,-0.42,-0.93,-43.61,107.3,-59.36,1785099674884.7869
-0.279,-0.409,-0.918,-37.45,107.43,-57.71,1785099674898.24
-0.254,-0.381,-0.925,-33.3,106.85,-56.15,1785099674904.101
-0.219,-0.346,-0.965,-33.75,105.5,-53.99,1785099674915.0
-0.174,-0.316,-1.017,-39.89,104.86,-51.82,1785099674928.11
-0.146,-0.309,-1.032,-50.26,105.01,-50.39,1785099674934.231
-0.13,-0.319,-1.024,-61.16,105.23,-49.62,1785099674944.818
-0.118,-0.329,-0.992,-68.36,106.51,-48.8,1785099674958.098
-0.117,-0.335,-0.937,-68.09,108.19,-47.0,1785099674963.99
-0.107,-0.329,-0.888,-60.4,109.1,-44.25,1785099674974.833
-0.084,-0.31,-0.862,-48.31,109.47,-41.38,1785099674988.069
-0.066,-0.292,-0.85,-35.95,109.01,-39.09,1785099674993.982
-0.047,-0.267,-0.88,-27.71,107.33,-37.87,1785099675004.801
-0.047,-0.267,-0.88,-26.7,106.27,-36.87,1785099675018.07
-0.024,-0.243,-0.906,-32.29,105.32,-36.1,1785099675023.959
-0.001,-0.226,-0.913,-40.93,104.43,-35.77,1785099675034.798
0.027,-0.22,-0.908,-48.95,103.52,-35.13,1785099675048.0159
0.052,-0.213,-0.902,-53.19,103.15,-33.85,1785099675053.962
0.075,-0.208,-0.874,-53.19,103.15,-33.85,1785099675064.743
0.096,-0.208,-0.846,-53.07,102.76,-32.47,1785099675077.9368
0.099,-0.209,-0.804,-49.59,101.69,-32.07,1785099675083.947
0.104,-0.206,-0.767,-43.37,100.04,-32.23,1785099675094.6582
0.121,-0.188,-0.726,-35.95,98.39,-32.17,1785099675107.942
0.157,-0.168,-0.717,-28.44,96.9,-32.01,1785099675113.849
0.194,-0.136,-0.714,-24.14,95.74,-31.89,1785099675124.762
0.237,-0.104,-0.731,-24.32,94.88,-30.82,1785099675135.298
0.275,-0.079,-0.73,-27.56,94.33,-29.42,1785099675148.343
0.279,-0.076,-0.69,-31.34,92.96,-28.14,1785099675154.2092
0.263,-0.088,-0.658,-34.12,90.09,-27.1,1785099675164.796
0.241,-0.106,-0.627,-34.33,87.59,-25.73,1785099675178.036
0.227,-0.115,-0.587,-31.16,85.12,-23.1,1785099675183.968
0.246,-0.107,-0.58,-25.39,82.13,-20.02,1785099675194.4229
0.271,-0.081,-0.565,-19.26,79.84,-16.24,1785099675204.952
0.29,-0.075,-0.54,-12.82,77.67,-12.42,1785099675218.304
0.304,-0.076,-0.503,-6.96,75.11,-9.64,1785099675224.2197
0.316,-0.078,-0.477,-0.06,71.14,-7.02,1785099675234.455
0.349,-0.073,-0.502,7.14,66.56,-4.3,1785099675244.8298
0.382,-0.051,-0.519,11.35,62.81,-2.35,1785099675258.109
0.399,-0.042,-0.533,12.12,59.57,-1.22,1785099675264.103
0.407,-0.042,-0.556,7.69,56.55,-1.53,1785099675274.2422
0.411,-0.033,-0.548,-0.82,53.62,-2.08,1785099675284.722
0.422,-0.042,-0.53,-7.81,49.96,-2.23,1785099675297.986
0.441,-0.042,-0.502,-12.12,45.99,-2.32,1785099675303.841
0.459,-0.046,-0.47,-11.57,42.39,-1.74,1785099675314.05
0.481,-0.055,-0.447,-7.2,39.06,-1.22,1785099675324.5042
0.494,-0.062,-0.436,-1.13,35.49,-1.77,1785099675334.871
0.506,-0.057,-0.471,4.0,31.56,-3.11,1785099675348.3022
0.528,-0.038,-0.506,6.41,28.69,-4.55,1785099675354.064
0.538,-0.035,-0.524,6.04,26.12,-5.4,1785099675364.173
0.54,-0.051,-0.537,2.26,23.35,-6.01,1785099675374.5972
0.53,-0.065,-0.524,-4.49,20.23,-6.38,1785099675385.163
0.537,-0.08,-0.509,-9.52,16.75,-6.13,1785099675398.4482
