ax,ay,az,gx,gy,gz,timestamp_ms
0.169,-0.424,-0.421,120.79,-0.49,-56.76,1785099482755.1812
0.109,-0.405,-0.417,113.13,1.13,-53.44,1785099482755.4739
0.099,-0.391,-0.377,105.5,1.28,-46.69,1785099482755.7812
0.16,-0.403,-0.337,101.41,1.1,-39.4,1785099482756.094
0.293,-0.441,-0.314,103.06,0.67,-32.93,1785099482756.403
0.431,-0.486,-0.302,109.41,-1.07,-26.46,1785099482756.692
0.512,-0.493,-0.334,117.25,-4.27,-18.86,1785099482756.9512
0.516,-0.46,-0.381,123.48,-7.97,-7.48,1785099482757.239
0.457,-0.421,-0.406,124.85,-11.51,6.78,1785099482757.515
0.36,-0.386,-0.418,118.2,-14.44,20.78,1785099482757.7778
0.293,-0.375,-0.395,107.18,-16.88,34.46,1785099482758.028
0.308,-0.425,-0.364,99.09,-17.79,46.51,1785099482758.2678
0.433,-0.493,-0.322,97.05,-16.57,56.92,1785099482758.52
0.678,-0.535,-0.378,102.94,-16.14,69.0,1785099482758.771
0.916,-0.501,-0.446,110.32,-16.27,85.18,1785099482759.02
1.009,-0.426,-0.413,113.16,-18.62,106.88,1785099482759.2693
0.938,-0.382,-0.363,109.99,-25.45,129.61,1785099482759.5232
0.758,-0.391,-0.303,100.01,-33.75,149.02,1785099482759.797
0.565,-0.471,-0.21,90.91,-42.45,163.24,1785099482760.041
0.434,-0.633,-0.166,90.52,-51.76,171.24,1785099482760.291
0.382,-0.814,-0.193,99.43,-60.4,174.32,1785099482760.556
0.424,-0.993,-0.216,119.75,-64.24,178.26,1785099482760.8098
0.523,-1.155,-0.262,148.66,-64.61,187.57,1785099482761.058
0.613,-1.229,-0.351,174.32,-63.81,203.86,1785099482761.311
0.628,-1.188,-0.443,188.57,-62.29,223.85,1785099482761.566
0.539,-1.122,-0.479,190.19,-61.34,238.56,1785099482761.824
0.391,-1.137,-0.503,174.47,-65.1,243.9,1785099482762.0698
0.244,-1.227,-0.538,140.51,-72.51,244.73,1785099482762.325
0.176,-1.329,-0.598,100.07,-77.61,246.13,1785099482762.5698
0.195,-1.364,-0.653,67.2,-76.6,245.67,1785099482762.812
0.241,-1.353,-0.657,46.27,-73.73,243.05,1785099482763.0562
0.292,-1.352,-0.656,34.36,-72.15,240.67,1785099482763.3071
0.314,-1.359,-0.665,27.1,-70.44,238.53,1785099482763.5908
0.254,-1.306,-0.62,19.53,-69.12,236.0,1785099482763.86
0.162,-1.22,-0.57,9.43,-71.6,236.06,1785099482764.1567
0.08,-1.153,-0.556,-6.41,-76.97,236.55,1785099482764.3982
0.007,-1.142,-0.562,-29.05,-83.32,234.05,1785099482764.629
-0.065,-1.201,-0.58,-56.18,-89.08,225.47,1785099482764.854
-0.132,-1.312,-0.625,-81.82,-92.81,211.8,1785099482765.082
-0.167,-1.428,-0.637,-97.38,-92.99,197.79,1785099482765.3088
-0.205,-1.486,-0.591,-94.12,-92.5,189.12,1785099482765.535
-0.21,-1.477,-0.626,-69.98,-92.68,190.62,1785099482765.758
-0.16,-1.34,-0.685,-35.25,-87.71,195.72,1785099482765.986
-0.12,-1.1,-0.736,-2.81,-78.4,194.86,1785099482766.211
-0.142,-0.881,-0.796,15.11,-67.42,187.99,1785099482766.4421
-0.204,-0.844,-0.826,10.44,-60.61,187.57,1785099482766.667
-0.266,-0.971,-0.833,-18.86,-63.08,187.38,1785099482766.899
-0.366,-1.043,-0.753,-62.11,-60.67,179.97,1785099482767.1458
-0.426,-1.164,-0.665,-91.65,-55.88,174.99,1785099482767.3708
-0.485,-1.219,-0.587,-107.12,-54.11,166.17,1785099482767.605
-0.543,-1.124,-0.487,-109.53,-49.56,160.71,1785099482767.838
-0.546,-1.055,-0.47,-97.42,-47.7,166.57,1785099482768.069
-0.543,-0.943,-0.453,-83.1,-48.16,166.72,1785099482768.3257
-0.607,-0.849,-0.43,-69.73,-46.91,166.08,1785099482768.601
-0.608,-0.832,-0.417,-55.85,-49.23,173.71,1785099482768.8699
-0.588,-0.825,-0.414,-41.54,-54.93,178.53,1785099482769.1099
-0.607,-0.849,-0.464,-27.1,-58.32,175.42,1785099482769.3801
-0.718,-0.904,-0.515,-21.12,-59.6,166.51,1785099482769.6309
-0.83,-0.946,-0.541,-22.92,-60.73,159.83,1785099482769.8638
-0.848,-1.109,-0.471,-13.09,-64.3,160.59,1785099482770.0857
-0.845,-1.214,-0.524,36.96,-69.15,156.68,1785099482770.3062
-0.793,-1.04,-0.561,82.16,-51.45,145.09,1785099482770.525
-0.865,-0.784,-0.606,103.34,-34.39,134.68,1785099482770.7441
-0.847,-0.662,-0.599,99.06,-25.39,136.36,1785099482770.9702
-0.776,-0.605,-0.542,72.66,-19.62,131.11,1785099482771.1868
-0.825,-0.519,-0.459,36.53,-16.24,118.05,1785099482771.4072
-0.854,-0.507,-0.4,4.06,-16.27,114.81,1785099482771.6118
-0.856,-0.542,-0.382,-20.75,-19.1,112.92,1785099482771.862
-0.869,-0.573,-0.379,-38.09,-19.75,109.07,1785099482772.084
-0.869,-0.573,-0.379,-48.28,-20.29,107.52,1785099482772.301
-0.903,-0.635,-0.378,-51.24,-22.52,107.73,1785099482772.512
-0.92,-0.678,-0.384,-50.26,-24.11,107.94,1785099482772.727
-0.921,-0.662,-0.407,-51.45,-23.29,108.68,1785099482772.943
-0.918,-0.616,-0.413,-51.45,-23.29,108.68,1785099482773.1572
-0.915,-0.581,-0.419,-52.86,-22.86,107.61,1785099482773.3691
-0.915,-0.542,-0.437,-55.54,-22.28,103.76,1785099482773.588
-0.926,-0.501,-0.439,-60.76,-20.6,99.49,1785099482773.8052
-0.931,-0.474,-0.426,-64.88,-18.77,96.16,1785099482774.012
-0.935,-0.458,-0.414,-65.89,-16.6,92.56,1785099482774.225
-0.937,-0.447,-0.389,-63.66,-14.07,88.75,1785099482774.44
-0.927,-0.438,-0.361,-58.6,-10.93,84.11,1785099482774.652
-0.915,-0.436,-0.334,-50.69,-7.51,77.36,1785099482774.858
-0.91,-0.444,-0.316,-40.19,-4.73,68.09,1785099482775.0881
-0.913,-0.453,-0.304,-28.29,-2.84,57.99,1785099482775.306
-0.908,-0.463,-0.311,-15.17,-1.5,48.65,1785099482775.5188
-0.897,-0.468,-0.316,-0.27,1.19,40.19,1785099482775.729
-0.911,-0.462,-0.332,15.41,3.05,33.3,1785099482775.949
-0.892,-0.445,-0.346,30.4,3.97,28.38,1785099482776.155
-0.884,-0.405,-0.355,43.82,6.93,22.31,1785099482776.364
-0.889,-0.367,-0.361,54.69,9.92,17.09,1785099482776.577
-0.892,-0.333,-0.352,61.62,11.75,12.97,1785099482776.793
-0.888,-0.318,-0.346,65.55,12.24,8.3,1785099482777.001
-0.887,-0.308,-0.348,66.1,11.6,3.81,1785099482777.222
-0.879,-0.3,-0.347,64.0,10.93,0.12,1785099482777.434
-0.877,-0.297,-0.352,59.82,10.68,-3.33,1785099482777.6438
-0.874,-0.301,-0.353,54.05,9.89,-5.95,1785099482777.853
-0.869,-0.307,-0.353,47.12,8.97,-8.12,1785099482778.054
-0.863,-0.312,-0.354,39.98,8.45,-9.86,1785099482778.2568
-0.842,-0.327,-0.358,33.48,8.91,-11.69,1785099482778.454
-0.863,-0.324,-0.351,26.49,9.13,-13.73,1785099482778.6729
-0.873,-0.328,-0.35,19.75,7.66,-12.21,1785099482778.8757
-0.856,-0.338,-0.358,12.48,5.62,-11.08,1785099482779.0698
-0.85,-0.325,-0.345,6.13,6.13,-11.54,1785099482779.268
-0.848,-0.327,-0.339,3.2,7.14,-10.99,1785099482779.469
-0.855,-0.329,-0.332,2.01,6.93,-11.11,1785099482779.665
-0.857,-0.327,-0.331,1.31,6.35,-11.29,1785099482779.86
-0.867,-0.324,-0.332,1.19,6.13,-11.08,1785099482780.0598
-0.876,-0.321,-0.331,1.07,5.62,-10.16,1785099482780.261
-0.876,-0.318,-0.33,1.5,5.19,-9.13,1785099482780.462
-0.874,-0.315,-0.33,2.81,5.55,-8.94,1785099482780.6611
-0.873,-0.316,-0.329,4.21,5.83,-9.64,1785099482780.8608
-0.871,-0.317,-0.329,5.25,5.95,-10.41,1785099482781.054
-0.873,-0.316,-0.333,5.8,5.58,-10.8,1785099482781.2578
-0.872,-0.313,-0.336,5.16,4.82,-10.83,1785099482781.46
-0.869,-0.309,-0.338,4.09,4.36,-11.32,1785099482781.6582
-0.868,-0.308,-0.339,3.48,4.55,-12.51,1785099482781.853
-0.875,-0.301,-0.337,2.59,4.67,-13.7,1785099482782.051
-0.878,-0.297,-0.331,1.71,4.52,-14.68,1785099482782.253
-0.876,-0.297,-0.332,0.64,4.21,-15.72,1785099482782.47
-0.875,-0.3,-0.332,-0.31,3.94,-16.42,1785099482782.6729
-0.876,-0.302,-0.333,-0.85,3.66,-17.09,1785099482782.8901
-0.883,-0.302,-0.329,-1.65,2.99,-17.4,1785099482783.083
-0.884,-0.301,-0.327,-2.72,2.2,-17.58,1785099482783.2817
-0.882,-0.298,-0.33,-3.78,1.37,-17.91,1785099482783.5032
-0.876,-0.295,-0.334,-5.34,0.43,-18.07,1785099482783.705
-0.871,-0.292,-0.342,-7.14,-0.27,-18.34,1785099482783.8982
-0.873,-0.284,-0.346,-9.28,-0.55,-18.52,1785099482784.093
-0.858,-0.285,-0.341,-11.05,-0.03,-17.67,1785099482784.285
-0.868,-0.282,-0.341,-12.27,0.82,-18.65,1785099482784.474
-0.876,-0.282,-0.328,-14.62,-0.64,-18.01,1785099482784.67
-0.854,-0.302,-0.314,-14.4,-0.18,-15.93,1785099482784.863
-0.854,-0.308,-0.313,-12.21,-0.09,-15.02,1785099482785.048
-0.85,-0.303,-0.307,-9.67,-0.37,-13.64,1785099482785.2402
-0.847,-0.3,-0.313,-6.93,-0.58,-11.99,1785099482785.4312
-0.848,-0.287,-0.324,-6.13,-1.46,-11.02,1785099482785.6208
-0.847,-0.277,-0.327,-6.62,-1.89,-9.92,1785099482785.803
-0.848,-0.283,-0.33,-7.29,-1.98,-8.97,1785099482785.993
-0.853,-0.286,-0.328,-8.06,-1.92,-8.27,1785099482786.187
-0.854,-0.287,-0.326,-8.79,-1.98,-7.35,1785099482786.3738
-0.857,-0.294,-0.328,-9.0,-2.2,-6.5,1785099482786.5679
-0.865,-0.296,-0.326,-9.74,-2.66,-5.55,1785099482786.758
-0.867,-0.299,-0.325,-10.22,-3.36,-4.03,1785099482786.9429
-0.867,-0.299,-0.322,-10.56,-3.88,-2.59,1785099482787.1401
-0.871,-0.297,-0.323,-10.99,-4.58,-1.46,1785099482787.3381
-0.87,-0.3,-0.326,-11.29,-5.43,-0.58,1785099482787.5212
-0.872,-0.301,-0.325,-11.44,-6.1,0.03,1785099482787.714
-0.876,-0.301,-0.327,-11.57,-6.65,0.67,1785099482787.9019
-0.875,-0.303,-0.33,-11.38,-7.08,1.19,1785099482788.0818
-0.877,-0.302,-0.338,-11.84,-7.45,1.19,1785099482788.3
-0.883,-0.301,-0.341,-12.54,-7.75,1.16,1785099482788.501
-0.89,-0.303,-0.341,-13.55,-7.93,1.5,1785099482788.6829
-0.89,-0.306,-0.346,-14.77,-8.45,1.77,1785099482788.8992
-0.894,-0.307,-0.349,-16.05,-8.67,1.89,1785099482789.119
-0.895,-0.31,-0.344,-16.79,-8.88,2.26,1785099482789.328
-0.892,-0.313,-0.343,-16.91,-9.03,2.44,1785099482789.529
-0.889,-0.312,-0.347,-16.57,-9.13,2.62,1785099482789.729
-0.89,-0.312,-0.346,-16.02,-9.06,2.53,1785099482789.934
-0.889,-0.309,-0.348,-15.84,-9.09,2.56,1785099482790.144
-0.888,-0.308,-0.351,-15.53,-8.67,2.41,1785099482790.3428
-0.887,-0.308,-0.352,-15.14,-8.21,1.74,1785099482790.53
-0.889,-0.305,-0.349,-15.02,-7.78,1.4,1785099482790.7158
-0.883,-0.308,-0.352,-14.92,-7.39,1.53,1785099482790.8909
-0.882,-0.308,-0.356,-14.71,-7.23,1.22,1785099482791.081
-0.877,-0.308,-0.352,-14.22,-6.78,1.19,1785099482791.268
-0.868,-0.312,-0.351,-13.09,-5.86,1.16,1785099482791.45
-0.865,-0.305,-0.348,-12.24,-5.52,0.95,1785099482791.637
-0.862,-0.304,-0.344,-11.11,-5.34,0.85,1785099482791.816
-0.86,-0.307,-0.342,-9.43,-4.88,0.73,1785099482791.992
-0.858,-0.304,-0.347,-7.9,-4.33,0.46,1785099482792.166
-15870.0,-0.2,-0.301,0.21,-0.58,6.16,1785099482792.52
-0.851,-0.299,-0.344,-6.9,-3.02,0.24,1785099482792.699
-0.919,-0.196,-0.299,1.62,-0.37,5.49,1785099482792.9941
-0.918,-0.191,-0.299,2.69,-0.37,4.49,1785099482793.171
-0.916,-0.187,-0.301,3.27,0.12,3.48,1785099482794.8108
-0.915,-0.177,-0.303,3.11,0.46,2.44,1785099482800.228
-0.914,-0.169,-0.303,2.38,0.61,1.8,1785099482810.5002
-0.911,-0.169,-0.305,1.59,0.61,1.28,1785099482820.889
-0.913,-0.171,-0.303,0.73,0.85,1.01,1785099482831.283
-0.916,-0.176,-0.299,0.61,1.07,1.13,1785099482844.477
-0.918,-0.177,-0.295,1.13,0.98,1.28,1785099482849.88
-0.92,-0.17,-0.292,2.04,0.95,1.68,1785099482860.172
-0.916,-0.16,-0.286,2.99,0.82,2.11,1785099482870.568
-0.915,-0.148,-0.28,3.42,0.55,2.5,1785099482880.9521
-0.913,-0.139,-0.277,3.51,0.21,3.02,1785099482891.353
-0.915,-0.141,-0.282,3.3,-0.06,3.2,1785099482904.615
-0.917,-0.149,-0.284,2.9,-0.27,3.14,1785099482910.12
-0.917,-0.159,-0.282,2.44,-0.43,2.84,1785099482920.288
-0.921,-0.153,-0.278,2.08,-0.95,2.99,1785099482930.693
-0.921,-0.145,-0.273,2.04,-1.53,4.67,1785099482941.084
-0.924,-0.141,-0.281,1.56,-2.2,5.77,1785099482951.518
-0.927,-0.138,-0.289,-0.64,-2.5,5.71,1785099482964.722
-0.922,-0.138,-0.29,-3.97,-2.66,5.31,1785099482970.2131
-0.913,-0.144,-0.29,-6.65,-2.84,5.19,1785099482980.432
-0.911,-0.157,-0.29,-8.48,-3.11,4.94,1785099482990.924
-0.917,-0.164,-0.282,-9.46,-3.48,4.73,1785099483001.3562
-0.921,-0.166,-0.275,-9.06,-3.78,4.55,1785099483011.77
-0.926,-0.16,-0.271,-8.06,-3.91,4.0,1785099483025.0781
-0.925,-0.15,-0.274,-7.42,-3.91,3.48,1785099483032.369
-0.921,-0.148,-0.281,-7.63,-3.81,3.02,1785099483040.675
-0.92,-0.15,-0.284,-8.88,-3.72,2.17,1785099483051.083
-0.913,-0.159,-0.285,-10.01,-3.57,1.59,1785099483061.4998
-0.909,-0.173,-0.288,-10.22,-3.39,1.22,1785099483074.746
-0.909,-0.181,-0.293,-10.74,-3.17,0.73,1785099483080.634
-0.902,-0.187,-0.294,-11.66,-2.69,-0.34,1785099483090.751
-0.903,-0.184,-0.292,-12.51,-2.29,-1.86,1785099483101.1619
-0.897,-0.17,-0.283,-13.31,-2.41,-2.75,1785099483111.614
-0.887,-0.163,-0.281,-12.73,-2.78,-2.9,1785099483124.906
-0.882,-0.161,-0.287,-11.81,-2.99,-3.02,1785099483130.771
-0.887,-0.171,-0.305,-11.69,-2.96,-3.66,1785099483140.824
-0.901,-0.18,-0.316,-13.31,-2.84,-4.88,1785099483151.348
-0.911,-0.187,-0.32,-15.87,-2.66,-5.1,1785099483161.707
-0.913,-0.198,-0.322,-17.79,-2.32,-4.36,1785099483175.06
-0.92,-0.209,-0.327,-19.62,-1.86,-4.27,1785099483180.872
-0.921,-0.214,-0.33,-21.58,-1.34,-4.3,1785099483190.935
-0.921,-0.228,-0.331,-22.55,-0.4,-5.16,1785099483201.375
-0.929,-0.231,-0.328,-23.04,0.24,-7.11,1785099483211.869
-0.933,-0.222,-0.325,-22.06,0.7,-8.27,1785099483225.136
-0.925,-0.221,-0.335,-19.14,1.43,-8.33,1785099483230.929
-0.926,-0.224,-0.346,-15.78,2.26,-9.25,1785099483241.034
-0.926,-0.224,-0.346,-13.09,3.23,-10.01,1785099483251.626
-0.931,-0.225,-0.36,-11.51,4.15,-10.53,1785099483264.837
-0.936,-0.233,-0.377,-11.32,5.07,-11.63,1785099483270.854
-0.937,-0.247,-0.391,-12.63,5.98,-13.15,1785099483281.035
-0.929,-0.266,-0.397,-12.63,5.98,-13.15,1785099483291.5862
-0.927,-0.274,-0.397,-14.56,7.05,-15.08,1785099483304.8552
-0.92,-0.272,-0.401,-15.99,7.9,-16.51,1785099483311.0771
-0.91,-0.276,-0.418,-17.43,8.73,-18.56,1785099483321.058
-0.904,-0.265,-0.439,-20.48,9.64,-21.7,1785099483331.652
-0.891,-0.251,-0.465,-25.12,10.59,-24.26,1785099483345.0242
-0.878,-0.248,-0.495,-30.76,11.78,-26.25,1785099483350.487
-0.877,-0.25,-0.511,-37.02,13.64,-28.26,1785099483361.322
-0.885,-0.265,-0.511,-41.96,16.42,-30.27,1785099483374.5679
-0.899,-0.295,-0.499,-43.7,19.81,-32.32,1785099483380.5298
-0.913,-0.327,-0.481,-41.99,22.52,-34.15,1785099483390.798
-0.918,-0.348,-0.481,-37.39,24.66,-34.97,1785099483401.695
-0.909,-0.349,-0.51,-31.86,26.61,-35.04,1785099483414.918
-0.894,-0.327,-0.542,-28.08,28.66,-34.91,1785099483420.8909
-0.889,-0.312,-0.576,-25.91,31.34,-34.46,1785099483431.368
-0.89,-0.309,-0.603,-25.82,34.82,-34.42,1785099483444.609
-0.896,-0.319,-0.601,-26.25,38.15,-34.42,1785099483450.541
-0.897,-0.34,-0.602,-25.21,40.93,-34.24,1785099483460.948
-0.894,-0.345,-0.602,-23.53,43.95,-33.66,1785099483471.522
-0.896,-0.348,-0.595,-20.66,46.78,-32.07,1785099483484.988
-0.895,-0.358,-0.605,-17.49,49.1,-31.04,1785099483490.9692
-0.901,-0.368,-0.623,-15.59,51.55,-31.37,1785099483501.5627
-0.911,-0.375,-0.651,-15.5,53.9,-32.75,1785099483514.5312
-0.921,-0.376,-0.68,-17.0,56.86,-34.27,1785099483520.504
-0.939,-0.382,-0.699,-19.44,60.76,-35.92,1785099483531.1738
-0.944,-0.388,-0.7,-21.91,64.73,-37.42,1785099483541.7722
-0.932,-0.399,-0.696,-22.25,68.21,-38.76,1785099483555.1072
-0.923,-0.405,-0.694,-20.05,71.87,-40.31,1785099483560.977
-0.933,-0.408,-0.704,-16.33,74.92,-41.63,1785099483571.491
-0.946,-0.405,-0.728,-13.12,77.33,-43.24,1785099483584.9229
-0.958,-0.4,-0.76,-11.81,80.11,-45.11,1785099483590.6748
-0.969,-0.408,-0.797,-12.63,83.41,-47.55,1785099483601.349
-0.986,-0.416,-0.812,-14.74,87.34,-49.93,1785099483611.825
-0.994,-0.426,-0.811,-15.23,91.07,-52.43,1785099483625.119
-0.992,-0.438,-0.785,-12.94,94.39,-54.17,1785099483631.1692
-0.971,-0.447,-0.783,-8.36,96.62,-55.79,1785099483641.4722
-0.948,-0.44,-0.809,-4.21,98.88,-57.28,1785099483654.8
-0.938,-0.435,-0.842,-1.68,101.47,-58.72,1785099483660.663
-0.938,-0.44,-0.863,0.79,104.74,-60.7,1785099483671.1091
-0.944,-0.447,-0.868,3.51,108.31,-62.84,1785099483681.7432
-0.963,-0.451,-0.855,6.5,111.27,-64.67,1785099483694.9927
-0.969,-0.45,-0.836,8.94,112.83,-65.49,1785099483700.76
-0.952,-0.44,-0.831,10.07,113.65,-65.8,1785099483711.533
-0.938,-0.421,-0.826,9.34,114.75,-66.47,1785099483724.749
-0.926,-0.415,-0.828,7.48,115.85,-67.81,1785099483730.6921
-0.911,-0.428,-0.844,5.34,116.55,-70.83,1785099483741.236
-0.895,-0.437,-0.851,3.72,117.65,-74.13,1785099483752.138
-0.883,-0.444,-0.857,3.91,118.75,-75.84,1785099483765.2048
-0.875,-0.45,-0.868,4.67,119.48,-75.84,1785099483771.0789
-0.846,-0.459,-0.87,5.25,120.03,-74.53,1785099483781.53
-0.811,-0.458,-0.87,5.49,120.12,-73.21,1785099483794.814
-0.787,-0.455,-0.887,4.97,120.0,-72.42,1785099483800.7769
-0.756,-0.451,-0.904,2.78,120.67,-72.51,1785099483811.024
-0.722,-0.449,-0.904,-0.31,121.8,-72.82,1785099483821.908
-0.699,-0.446,-0.892,-3.23,122.17,-73.15,1785099483835.051
-0.7,-0.44,-0.886,-5.31,121.46,-73.03,1785099483841.158
-0.702,-0.444,-0.876,-6.13,120.24,-72.42,1785099483851.655
-0.7,-0.449,-0.864,-6.32,119.24,-72.02,1785099483864.836
-0.673,-0.458,-0.866,-5.04,119.42,-71.66,1785099483870.963
-0.635,-0.473,-0.872,-2.47,120.64,-71.38,1785099483881.342
-0.604,-0.489,-0.856,0.76,122.14,-71.17,1785099483894.56
-0.579,-0.503,-0.836,4.03,122.53,-71.08,1785099483900.6873
-0.553,-0.5,-0.826,6.1,121.86,-70.53,1785099483910.8591
-0.531,-0.477,-0.828,6.59,120.52,-69.92,1785099483921.702
-0.513,-0.447,-0.835,4.58,119.02,-69.55,1785099483935.015
-0.496,-0.426,-0.858,0.18,117.74,-70.07,1785099483940.9011
-0.472,-0.425,-0.873,-6.01,116.95,-71.96,1785099483951.399
-0.446,-0.434,-0.872,-12.36,116.79,-74.59,1785099483969.0671
-0.407,-0.453,-0.846,-15.78,117.56,-75.96,1785099483970.159
-0.378,-0.48,-0.809,-15.29,118.05,-75.11,1785099483981.129
-0.37,-0.481,-0.78,-12.05,116.92,-72.51,1785099483994.6548
-0.349,-0.478,-0.765,-6.96,114.81,-68.85,1785099484000.63
-0.311,-0.48,-0.761,-2.2,112.67,-65.95,1785099484011.153
-0.283,-0.471,-0.768,0.61,110.72,-64.76,1785099484021.4797
-0.262,-0.456,-0.774,1.1,109.1,-65.0,1785099484035.1418
-0.247,-0.441,-0.784,-1.1,107.15,-65.83,1785099484040.936
-0.215,-0.415,-0.792,-6.26,105.62,-66.1,1785099484051.4988
-0.179,-0.401,-0.785,-11.87,104.8,-65.65,1785099484064.843
-0.146,-0.408,-0.766,-15.63,104.1,-65.37,1785099484071.006
-0.126,-0.414,-0.739,-17.21,102.66,-64.76,1785099484081.45
-0.111,-0.41,-0.711,-16.14,100.5,-62.84,1785099484094.704
-0.086,-0.41,-0.688,-12.12,98.76,-59.82,1785099484100.7021
-0.057,-0.406,-0.665,-7.93,97.17,-57.1,1785099484111.1082
-0.017,-0.396,-0.662,-5.31,95.43,-54.63,1785099484121.713
0.021,-0.383,-0.662,-4.64,93.3,-52.52,1785099484135.026
0.049,-0.364,-0.667,-6.1,90.67,-50.87,1785099484140.8708
0.077,-0.35,-0.678,-9.55,88.29,-49.32,1785099484151.1628
0.098,-0.338,-0.685,-14.74,85.85,-48.49,1785099484161.75
0.118,-0.318,-0.684,-21.03,83.29,-48.07,1785099484175.082
0.133,-0.307,-0.671,-26.4,81.24,-47.12,1785099484181.0042
0.136,-0.305,-0.633,-29.88,79.47,-45.66,1785099484191.489
0.135,-0.304,-0.596,-31.13,77.06,-43.4,1785099484204.775
0.151,-0.31,-0.585,-29.15,74.71,-40.31,1785099484210.722
0.172,-0.311,-0.567,-24.99,72.51,-36.62,1785099484221.089
0.196,-0.294,-0.553,-20.05,69.95,-31.71,1785099484231.803
0.234,-0.286,-0.543,-14.59,67.42,-26.89,1785099484245.07
0.259,-0.277,-0.542,-9.67,64.73,-24.17,1785099484251.12
0.267,-0.268,-0.542,-5.8,62.07,-22.28,1785099484261.343
0.27,-0.252,-0.532,-3.72,59.54,-19.99,1785099484274.631
0.271,-0.238,-0.522,-2.14,56.64,-17.88,1785099484280.559
0.274,-0.237,-0.523,-1.04,53.44,-16.14,1785099484290.8
0.285,-0.248,-0.532,-1.86,49.81,-15.59,1785099484301.3928
0.293,-0.279,-0.536,-3.94,46.69,-16.27,1785099484314.598
0.299,-0.313,-0.524,-5.89,43.15,-17.15,1785099484320.488
0.319,-0.328,-0.528,-6.99,39.12,-17.4,1785099484330.809
0.344,-0.318,-0.529,-6.38,36.1,-17.09,1785099484341.3901
0.365,-0.305,-0.536,-3.42,33.02,-17.06,1785099484354.5972
0.391,-0.284,-0.573,-0.06,30.43,-17.76,1785099484360.4998
0.408,-0.275,-0.607,2.38,28.72,-19.38,1785099484371.005
0.409,-0.262,-0.636,2.08,26.52,-21.76,1785099484381.3372
0.401,-0.243,-0.635,-0.7,23.8,-22.83,1785099484394.598
0.408,-0.246,-0.624,-3.14,20.97,-21.82,1785099484400.506
0.43,-0.277,-0.63,-5.1,18.77,-21.42,1785099484410.8237
0.443,-0.291,-0.631,-7.69,16.91,-21.97,1785099484421.3813
0.45,-0.292,-0.631,-8.97,15.29,-22.13,1785099484434.647
0.459,-0.28,-0.651,-9.4,13.64,-21.76,1785099484440.48
0.467,-0.262,-0.662,-10.86,11.99,-21.36,1785099484450.931
0.465,-0.247,-0.672,-13.76,9.98,-20.81,1785099484461.438
0.467,-0.25,-0.692,-17.61,8.21,-19.84,1785099484474.438
0.471,-0.263,-0.703,-21.27,7.17,-18.92,1785099484480.715
0.474,-0.27,-0.712,-23.13,6.35,-18.16,1785099484490.6318
0.477,-0.286,-0.717,-21.79,5.71,-17.46,1785099484501.311
0.48,-0.299,-0.725,-18.25,4.76,-17.43,1785099484514.7168
0.487,-0.3,-0.734,-15.05,3.78,-18.8,1785099484520.727
0.487,-0.3,-0.734,-12.67,2.84,-21.52,1785099484530.944
0.493,-0.301,-0.74,-11.84,1.43,-25.33,1785099484541.4773
0.495,-0.295,-0.736,-13.06,-0.95,-29.57,1785099484554.7168
0.474,-0.262,-0.706,-13.46,-3.72,-31.86,1785099484560.5828
0.45,-0.224,-0.687,-13.28,-5.98,-34.03,1785099484570.938
0.443,-0.199,-0.687,-13.28,-5.98,-34.03,1785099484581.451
0.452,-0.193,-0.697,-13.55,-6.5,-37.87,1785099484594.7158
0.453,-0.216,-0.678,-12.76,-4.36,-42.94,1785099484600.7412
0.448,-0.276,-0.659,-5.46,-0.46,-47.24,1785099484610.9177
0.446,-0.34,-0.658,8.91,3.54,-50.66,1785099484621.2769
0.436,-0.338,-0.647,27.38,6.07,-52.49,1785099484631.826
0.436,-0.301,-0.659,48.95,6.87,-51.91,1785099484645.0552
0.443,-0.259,-0.712,67.29,7.2,-52.4,1785099484651.0488
0.424,-0.216,-0.75,78.1,8.76,-55.54,1785099484661.264
0.391,-0.199,-0.749,84.02,10.86,-59.18,1785099484674.5479
0.383,-0.209,-0.751,89.21,13.06,-62.44,1785099484680.5242
0.386,-0.23,-0.736,94.79,15.93,-66.62,1785099484691.0178
0.372,-0.248,-0.698,102.18,19.35,-71.05,1785099484701.8071
0.345,-0.261,-0.667,111.94,22.74,-73.46,1785099484714.9902
0.323,-0.254,-0.645,121.65,25.24,-74.07,1785099484720.957
0.302,-0.24,-0.641,129.43,26.55,-73.58,1785099484731.7288
0.295,-0.216,-0.656,131.69,27.83,-72.79,1785099484744.9492
0.299,-0.201,-0.622,127.35,29.79,-71.75,1785099484751.063
0.308,-0.191,-0.582,118.14,30.03,-70.83,1785099484761.665
0.357,-0.2,-0.559,106.51,28.99,-69.52,1785099484774.936
0.392,-0.222,-0.511,94.15,26.76,-68.76,1785099484780.8809
0.37,-0.249,-0.479,83.35,24.08,-68.61,1785099484791.4739
0.307,-0.286,-0.471,75.72,22.77,-69.28,1785099484804.718
0.252,-0.323,-0.486,71.41,23.59,-70.28,1785099484810.646
0.213,-0.336,-0.488,70.62,26.55,-71.08,1785099484821.146
0.214,-0.342,-0.482,74.37,29.66,-70.47,1785099484831.8699
0.255,-0.349,-0.482,81.55,32.32,-68.48,1785099484844.827
0.284,-0.336,-0.461,88.11,35.0,-65.1,1785099484851.229
0.287,-0.334,-0.429,94.24,37.26,-59.72,1785099484861.519
0.263,-0.353,-0.393,99.52,38.76,-53.65,1785099484874.736
0.209,-0.377,-0.353,102.51,38.76,-48.07,1785099484880.876
0.153,-0.398,-0.348,103.58,38.09,-43.37,1785099484891.4321
0.136,-0.386,-0.371,102.42,37.93,-38.15,1785099484904.79
0.189,-0.342,-0.383,98.42,37.75,-31.68,1785099484910.2368
0.304,-0.296,-0.367,94.03,37.48,-23.5,1785099484921.182
0.409,-0.294,-0.334,91.68,37.57,-15.08,1785099484931.8342
0.443,-0.341,-0.284,93.11,38.7,-7.48,1785099484945.065
0.399,-0.414,-0.21,99.31,39.0,0.09,1785099484951.1292
0.304,-0.465,-0.157,108.19,35.83,8.36,1785099484961.3472
0.219,-0.468,-0.129,115.97,29.73,18.92,1785099484974.657
0.205,-0.438,-0.136,119.66,21.76,31.43,1785099484980.5708
0.263,-0.394,-0.182,115.97,13.55,43.18,1785099484991.322
0.365,-0.375,-0.252,105.35,6.84,53.87,1785099485004.571
0.474,-0.377,-0.287,90.49,3.3,64.79,1785099485010.8118
0.558,-0.437,-0.26,78.49,2.81,77.58,1785099485020.8792
0.581,-0.542,-0.231,72.85,1.89,90.15,1785099485031.3972
0.539,-0.624,-0.206,71.38,-0.76,103.27,1785099485044.647
0.46,-0.654,-0.171,73.46,-5.28,120.18,1785099485050.614
0.401,-0.657,-0.151,78.13,-12.05,140.9,1785099485061.187
0.386,-0.677,-0.178,80.51,-20.69,161.23,1785099485071.949
0.401,-0.698,-0.222,72.97,-31.01,175.57,1785099485085.284
0.451,-0.732,-0.294,56.49,-41.75,184.3,1785099485091.294
0.508,-0.786,-0.365,36.47,-50.57,190.89,1785099485101.9678
0.533,-0.865,-0.389,19.26,-58.99,197.91,1785099485115.1309
0.503,-0.947,-0.414,9.83,-69.98,206.03,1785099485121.0898
0.427,-1.003,-0.463,7.93,-81.33,214.88,1785099485131.745
0.341,-0.996,-0.494,9.19,-91.49,224.04,1785099485145.0032
0.301,-0.991,-0.589,12.3,-100.5,232.98,1785099485151.409
0.291,-0.991,-0.738,11.51,-106.72,238.78,1785099485161.788
0.286,-1.01,-0.845,2.53,-109.9,241.77,1785099485175.1528
0.287,-1.104,-0.937,-12.21,-111.94,241.49,1785099485181.201
0.27,-1.272,-0.973,-30.95,-113.1,236.82,1785099485191.927
0.212,-1.423,-0.957,-51.55,-114.84,229.41,1785099485205.0051
0.156,-1.457,-0.901,-68.61,-115.88,224.65,1785099485210.9958
0.096,-1.335,-0.848,-78.59,-117.31,225.5,1785099485224.587
0.089,-1.153,-0.847,-82.13,-121.59,235.42,1785099485230.5642
0.12,-0.948,-0.821,-81.55,-120.18,238.56,1785099485241.601
0.032,-0.913,-0.864,-78.31,-120.49,234.9,1785099485254.7798
-0.031,-1.096,-0.917,-79.47,-121.86,232.58,1785099485260.724
-0.11,-1.235,-0.98,-87.01,-122.78,220.59,1785099485271.7659
-0.195,-1.278,-1.03,-94.06,-120.03,209.08,1785099485285.145
-0.219,-1.234,-1.069,-103.92,-112.64,203.07,1785099485295.874
-0.239,-1.091,-1.087,-123.02,-106.6,198.22,1785099485304.3762
-0.237,-1.0,-1.06,-149.85,-106.08,196.02,1785099485310.3948
-0.21,-0.916,-1.024,-185.95,-111.3,191.26,1785099485321.517
-0.261,-0.715,-0.967,-224.25,-119.11,181.77,1785099485335.104
-0.312,-0.623,-0.915,-254.28,-128.27,178.11,1785099485341.006
-0.335,-0.641,-0.857,-271.55,-140.51,175.7,1785099485354.6282
-0.341,-0.638,-0.743,-267.07,-149.57,166.78,1785099485360.59
-0.414,-0.663,-0.719,-235.94,-159.67,159.15,1785099485371.864
-0.485,-0.726,-0.814,-188.94,-171.58,159.28,1785099485385.1199
-0.568,-0.715,-0.886,-141.33,-174.87,157.29,1785099485391.295
-0.621,-0.674,-0.939,-98.85,-173.19,153.97,1785099485404.651
-0.648,-0.623,-0.938,-62.87,-171.27,148.08,1785099485410.636
-0.668,-0.569,-0.885,-34.0,-168.61,142.25,1785099485421.706
-0.662,-0.533,-0.829,-11.2,-165.41,135.14,1785099485434.946
-0.73,-0.5,-0.782,6.74,-159.18,126.8,1785099485440.8882
-0.8,-0.531,-0.801,21.7,-154.55,124.52,1785099485451.767
-0.874,-0.566,-0.839,30.98,-153.66,123.69,1785099485465.1147
-0.934,-0.577,-0.854,36.81,-152.38,125.31,1785099485471.278
-0.92,-0.574,-0.843,43.86,-147.31,128.15,1785099485484.277
-0.91,-0.514,-0.827,49.59,-139.56,126.26,1785099485490.164
-0.923,-0.453,-0.806,49.26,-131.53,122.5,1785099485501.3672
-0.958,-0.416,-0.779,41.69,-123.45,118.02,1785099485514.657
-1.007,-0.435,-0.736,30.73,-116.34,113.96,1785099485520.723
-1.047,-0.476,-0.701,21.06,-112.49,109.74,1785099485531.7021
-1.045,-0.48,-0.672,15.72,-108.71,105.81,1785099485544.895
-1.027,-0.46,-0.66,16.36,-102.57,101.29,1785099485551.136
-1.017,-0.408,-0.654,18.43,-94.03,96.22,1785099485561.544
-1.016,-0.376,-0.642,20.08,-85.09,92.56,1785099485574.962
-1.027,-0.352,-0.636,18.71,-76.6,88.96,1785099485580.992
-1.037,-0.324,-0.614,13.7,-68.73,85.57,1785099485591.388
-1.038,-0.315,-0.57,8.67,-63.05,82.64,1785099485601.9749
-1.003,-0.305,-0.522,4.67,-58.63,79.01,1785099485615.17
-0.95,-0.306,-0.475,5.89,-53.62,73.15,1785099485621.179
-0.942,-0.3,-0.438,12.36,-47.61,64.91,1785099485631.4558
-0.956,-0.251,-0.44,19.01,-42.18,58.05,1785099485644.663
-0.957,-0.201,-0.446,21.21,-36.77,53.74,1785099485650.691
-0.939,-0.203,-0.473,16.24,-31.74,46.6,1785099485661.173
-0.927,-0.219,-0.448,2.08,-27.41,34.39,1785099485671.521
-0.911,-0.233,-0.414,-12.48,-25.33,23.01,1785099485685.2732
-0.852,-0.275,-0.412,-20.11,-22.74,16.11,1785099485690.925
-0.835,-0.29,-0.417,-23.5,-20.84,7.17,1785099485701.343
-0.842,-0.275,-0.437,-24.23,-19.14,0.34,1785099485711.926
-0.841,-0.239,-0.453,-25.09,-15.87,-3.02,1785099485725.157
-0.841,-0.191,-0.422,-25.45,-13.09,-5.04,1785099485730.688
-0.875,-0.141,-0.346,-20.81,-12.09,-5.43,1785099485741.233
-0.896,-0.08,-0.296,-10.74,-11.41,-1.83,1785099485751.8877
-0.883,-0.052,-0.3,-0.46,-10.01,2.41,1785099485765.0728
-0.89,-0.049,-0.312,5.52,-8.27,2.87,1785099485770.8599
-0.886,-0.07,-0.324,7.72,-6.47,2.35,1785099485780.9111
-0.875,-0.116,-0.338,9.31,-4.67,1.98,1785099485791.262
-0.881,-0.133,-0.343,10.77,-3.78,2.11,1785099485801.7761
-0.879,-0.133,-0.33,13.98,-3.66,4.55,1785099485815.025
-0.879,-0.133,-0.33,19.99,-3.85,6.93,1785099485820.8088
-0.874,-0.127,-0.325,27.28,-3.51,7.75,1785099485830.934
-0.877,-0.118,-0.326,34.06,-2.84,7.11,1785099485841.384
-0.89,-0.113,-0.334,38.3,-1.74,6.29,1785099485851.7717
-0.908,-0.11,-0.338,40.22,-0.73,5.95,1785099485865.1
-0.921,-0.114,-0.345,40.22,-0.73,5.95,1785099485870.9277
-0.927,-0.116,-0.344,40.25,0.12,5.65,1785099485881.064
-0.924,-0.133,-0.332,40.86,0.98,4.94,1785099485891.519
-0.909,-0.144,-0.331,44.4,1.68,3.97,1785099485904.734
-0.896,-0.15,-0.347,49.62,3.36,2.69,1785099485910.2632
-0.923,-0.177,-0.357,54.41,4.46,-0.34,1785099485920.5918
-0.961,-0.203,-0.364,58.47,5.01,-4.18,1785099485931.2
-0.98,-0.21,-0.343,63.14,6.01,-6.96,1785099485941.617
-0.973,-0.196,-0.312,71.57,6.68,-8.76,1785099485954.885
-0.952,-0.187,-0.313,83.29,6.9,-9.37,1785099485960.7073
-0.934,-0.176,-0.337,91.37,7.02,-9.92,1785099485970.573
-0.926,-0.13,-0.38,89.08,6.93,-11.35,1785099485981.36
-0.909,-0.081,-0.418,77.0,7.23,-12.94,1785099485991.955
-0.891,-0.068,-0.441,57.99,8.33,-15.99,1785099486005.193
-0.884,-0.096,-0.439,36.23,9.28,-20.72,1785099486010.706
-0.89,-0.132,-0.423,15.23,9.92,-25.06,1785099486021.2212
-0.901,-0.154,-0.401,-3.2,9.86,-27.13,1785099486031.887
-0.902,-0.18,-0.377,-16.91,8.55,-27.77,1785099486044.8582
-0.892,-0.208,-0.363,-26.46,7.11,-27.99,1785099486050.6072
-0.865,-0.232,-0.368,-32.78,7.05,-28.2,1785099486060.9631
-0.853,-0.245,-0.382,-37.81,7.57,-29.21,1785099486071.815
-0.85,-0.255,-0.383,-41.93,7.75,-29.39,1785099486084.831
-0.853,-0.274,-0.375,-43.55,7.84,-28.72,1785099486090.609
-0.859,-0.297,-0.377,-42.33,8.33,-27.41,1785099486101.3271
-0.874,-0.314,-0.354,-37.97,9.0,-25.06,1785099486111.819
-0.862,-0.338,-0.347,-27.8,9.4,-21.85,1785099486125.085
-0.881,-0.336,-0.296,-15.08,9.37,-18.68,1785099486130.985
-0.869,-0.375,-0.334,2.66,7.57,-14.4,1785099486141.181
-0.886,-0.312,-0.378,4.85,4.97,-17.98,1785099486151.6318
-0.898,-0.314,-0.409,2.75,3.39,-16.27,1785099486164.9512
-0.877,-0.34,-0.486,2.59,3.75,-15.84,1785099486170.762
-0.883,-0.311,-0.527,-0.27,8.24,-18.31,1785099486180.819
-0.897,-0.292,-0.497,-1.25,14.53,-17.61,1785099486191.393
-0.895,-0.301,-0.446,0.15,18.74,-17.82,1785099486204.656
-0.905,-0.312,-0.406,0.61,20.91,-20.78,1785099486210.655
-0.919,-0.336,-0.384,-0.79,21.64,-23.59,1785099486220.843
-0.93,-0.363,-0.409,-4.39,21.52,-27.38,1785099486231.378
-0.943,-0.369,-0.459,-11.05,22.43,-30.88,1785099486244.647
-0.944,-0.365,-0.51,-17.82,25.45,-33.02,1785099486250.607
-0.946,-0.37,-0.537,-21.52,29.51,-35.28,1785099486261.069
-0.949,-0.379,-0.531,-22.0,33.48,-38.67,1785099486271.752
-0.955,-0.395,-0.517,-19.47,36.5,-42.82,1785099486285.0718
-0.969,-0.397,-0.507,-16.05,38.79,-46.39,1785099486290.9539
-0.97,-0.393,-0.524,-12.36,40.47,-48.95,1785099486301.517
-0.969,-0.403,-0.56,-8.48,42.45,-51.36,1785099486314.734
-0.975,-0.412,-0.606,-5.28,44.77,-54.38,1785099486320.6248
-0.977,-0.413,-0.64,-2.62,47.91,-56.67,1785099486330.9062
-0.969,-0.423,-0.658,1.5,52.58,-58.84,1785099486341.439
-0.963,-0.431,-0.659,5.8,57.56,-61.25,1785099486354.736
-0.958,-0.433,-0.665,8.79,61.25,-63.23,1785099486360.8792
-0.961,-0.438,-0.686,8.42,64.03,-64.88,1785099486370.909
-0.964,-0.441,-0.724,3.02,66.19,-66.23,1785099486381.645
-0.95,-0.439,-0.776,-6.78,68.76,-67.54,1785099486394.756
-0.946,-0.441,-0.798,-18.98,72.24,-69.52,1785099486400.6099
-0.962,-0.449,-0.792,-30.27,76.08,-71.87,1785099486411.0562
-0.988,-0.462,-0.759,-38.33,79.47,-73.55,1785099486421.7888
-1.01,-0.493,-0.726,-40.65,82.67,-74.47,1785099486435.0771
-1.027,-0.52,-0.701,-37.6,86.09,-74.89,1785099486440.887
-1.021,-0.528,-0.703,-30.98,89.36,-74.43,1785099486451.435
-1.005,-0.525,-0.722,-22.16,92.9,-73.64,1785099486464.817
-0.982,-0.516,-0.747,-13.92,96.04,-73.52,1785099486470.135
-0.96,-0.514,-0.779,-7.93,98.88,-74.1,1785099486481.077
-0.953,-0.5,-0.814,-6.96,101.2,-75.35,1785099486491.737
-0.95,-0.497,-0.823,-9.7,103.85,-76.78,1785099486504.9282
-0.952,-0.507,-0.793,-13.43,106.33,-78.19,1785099486511.057
-0.953,-0.517,-0.75,-15.38,107.97,-80.23,1785099486521.6
-0.951,-0.518,-0.721,-13.64,108.28,-82.19,1785099486534.869
-0.948,-0.518,-0.728,-9.09,107.85,-83.99,1785099486540.733
-0.948,-0.506,-0.75,-5.8,107.67,-85.94,1785099486551.4062
-0.94,-0.498,-0.768,-4.49,107.97,-85.54,1785099486564.612
-0.908,-0.495,-0.778,-5.52,108.92,-84.6,1785099486570.699
-0.869,-0.483,-0.78,-6.65,110.81,-85.42,1785099486581.0938
-0.842,-0.486,-0.771,-5.65,112.7,-86.83,1785099486591.6958
-0.821,-0.487,-0.747,-3.63,113.25,-86.86,1785099486604.9631
-0.802,-0.498,-0.724,0.55,112.67,-85.33,1785099486610.901
-0.781,-0.509,-0.704,6.23,110.97,-83.74,1785099486621.46
-0.748,-0.515,-0.77,12.48,109.32,-82.58,1785099486634.777
-0.733,-0.501,-0.795,15.69,110.2,-81.94,1785099486640.6182
-0.711,-0.501,-0.792,16.33,110.42,-81.55,1785099486651.427
-0.684,-0.505,-0.793,14.4,110.42,-81.33,1785099486664.626
-0.654,-0.506,-0.796,10.44,110.48,-80.66,1785099486670.6182
-0.631,-0.51,-0.787,6.5,110.63,-78.98,1785099486681.262
-0.617,-0.5,-0.772,3.57,110.08,-77.33,1785099486691.9307
-0.6,-0.503,-0.77,2.29,108.28,-76.08,1785099486705.184
-0.571,-0.506,-0.79,0.82,106.57,-76.14,1785099486711.057
-0.543,-0.513,-0.819,-1.25,105.47,-76.97,1785099486721.624
-0.522,-0.523,-0.829,-5.52,104.4,-77.33,1785099486734.967
-0.5,-0.52,-0.822,-12.48,102.73,-76.82,1785099486740.8481
-0.471,-0.503,-0.809,-19.78,100.65,-75.23,1785099486751.551
-0.443,-0.509,-0.785,-24.57,98.82,-73.52,1785099486764.9282
-0.422,-0.536,-0.764,-26.31,96.93,-74.13,1785099486770.7378
-0.398,-0.568,-0.756,-24.66,95.31,-76.72,1785099486781.217
-0.36,-0.58,-0.765,-21.18,94.15,-79.26,1785099486791.845
-0.312,-0.553,-0.779,-17.43,93.75,-79.84,1785099486805.0688
-0.283,-0.507,-0.788,-14.04,92.9,-78.25,1785099486811.006
-0.268,-0.468,-0.798,-13.46,91.04,-75.99,1785099486821.53
-0.248,-0.451,-0.806,-17.12,89.75,-74.68,1785099486834.867
-0.227,-0.462,-0.798,-23.32,89.48,-75.47,1785099486840.768
-0.207,-0.477,-0.798,-29.42,89.3,-77.7,1785099486851.296
-0.181,-0.496,-0.81,-33.6,89.54,-79.01,1785099486861.8628
-0.152,-0.513,-0.821,-36.47,90.3,-78.46,1785099486875.167
-0.122,-0.516,-0.822,-39.22,91.13,-75.66,1785099486881.179
-0.099,-0.519,-0.814,-40.04,91.37,-71.5,1785099486891.624
-0.078,-0.515,-0.826,-39.55,91.22,-67.78,1785099486904.85
-0.059,-0.495,-0.843,-39.55,91.37,-64.91,1785099486910.8027
-0.041,-0.489,-0.853,-40.28,91.71,-63.02,1785099486921.3728
-0.03,-0.489,-0.848,-42.42,91.89,-62.59,1785099486935.4802
-0.021,-0.484,-0.841,-45.72,91.86,-62.01,1785099486945.222
-0.011,-0.472,-0.836,-47.85,91.86,-60.46,1785099486951.221
0.009,-0.456,-0.838,-48.01,91.49,-58.41,1785099486961.654
0.027,-0.428,-0.815,-47.79,90.91,-56.25,1785099486974.91
0.042,-0.396,-0.784,-46.51,90.06,-53.99,1785099486980.833
0.054,-0.36,-0.747,-44.53,88.63,-51.73,1785099486991.3708
0.083,-0.334,-0.722,-39.25,87.77,-49.35,1785099487004.729
0.125,-0.344,-0.724,-28.93,87.68,-49.07,1785099487010.2122
0.157,-0.369,-0.729,-17.0,87.89,-50.63,1785099487021.054
0.183,-0.4,-0.738,-6.07,88.05,-52.43,1785099487031.6228
0.199,-0.432,-0.746,1.95,88.32,-54.63,1785099487044.863
0.211,-0.454,-0.746,6.07,88.44,-56.12,1785099487051.1282
0.209,-0.447,-0.731,6.53,87.71,-56.28,1785099487060.9321
0.214,-0.423,-0.697,6.13,86.03,-53.96,1785099487071.5872
0.235,-0.413,-0.687,9.03,83.41,-51.15,1785099487084.933
0.243,-0.375,-0.673,10.99,81.09,-48.74,1785099487090.7532
0.254,-0.335,-0.649,9.61,78.55,-45.66,1785099487101.195
0.254,-0.335,-0.649,6.71,75.62,-42.45,1785099487111.711
0.263,-0.285,-0.642,3.36,73.34,-38.21,1785099487124.9868
0.286,-0.256,-0.643,-0.79,71.47,-34.79,1785099487130.872
0.313,-0.254,-0.659,-6.84,69.86,-32.44,1785099487141.13
0.338,-0.261,-0.686,-6.84,69.86,-32.44,1785099487151.716
0.373,-0.274,-0.705,-14.53,69.15,-30.24,1785099487164.943
0.392,-0.302,-0.688,-22.1,68.88,-28.05,1785099487170.563
0.382,-0.317,-0.646,-27.53,67.51,-25.88,1785099487181.3801
0.384,-0.306,-0.6,-28.44,65.13,-22.0,1785099487194.655
0.397,-0.282,-0.55,-24.48,61.92,-17.7,1785099487200.631
0.417,-0.253,-0.533,-17.61,58.05,-14.86,1785099487211.0842
0.444,-0.225,-0.541,-11.96,54.57,-13.55,1785099487221.7542
0.475,-0.214,-0.561,-10.41,52.25,-14.74,1785099487235.049
0.493,-0.22,-0.588,-14.44,50.75,-18.4,1785099487240.933
0.497,-0.226,-0.592,-23.01,50.05,-22.34,1785099487251.442
0.492,-0.233,-0.567,-30.64,49.5,-24.29,1785099487264.775
0.49,-0.25,-0.538,-32.81,48.49,-24.14,1785099487270.623
0.491,-0.253,-0.506,-29.57,47.06,-23.19,1785099487281.144
0.494,-0.237,-0.481,-22.25,44.89,-21.82,1785099487291.6301
0.505,-0.202,-0.468,-13.37,41.93,-20.17,1785099487305.048
0.522,-0.158,-0.469,-5.46,38.58,-17.76,1785099487310.935
0.54,-0.14,-0.481,-0.03,35.74,-15.75,1785099487321.2969
0.557,-0.143,-0.5,1.1,33.63,-15.93,1785099487331.881
0.553,-0.15,-0.494,-1.31,31.71,-17.21,1785099487345.103
0.542,-0.162,-0.473,-3.05,29.57,-17.43,1785099487350.798
0.536,-0.164,-0.451,-0.89,27.19,-15.96,1785099487361.2239
0.556,-0.166,-0.452,5.86,24.87,-13.28,1785099487371.863
0.579,-0.16,-0.46,12.57,22.19,-11.51,1785099487385.152
0.587,-0.153,-0.474,15.99,19.68,-11.63,1785099487391.0452
0.571,-0.147,-0.479,14.86,17.55,-12.82,1785099487401.552
0.562,-0.15,-0.481,10.32,15.56,-14.4,1785099487414.678
0.573,-0.172,-0.486,4.3,13.28,-16.63,1785099487420.5342
0.588,-0.203,-0.491,-2.53,10.99,-20.39,1785099487431.1528
0.584,-0.238,-0.475,-9.46,8.48,-25.64,1785099487441.569
0.56,-0.268,-0.466,-14.86,5.1,-32.11,1785099487454.8188
0.537,-0.254,-0.472,-19.44,0.58,-38.64,1785099487460.7842
0.526,-0.205,-0.488,-22.06,-3.39,-43.43,1785099487470.851
0.515,-0.158,-0.501,-21.91,-5.16,-46.6,1785099487481.627
0.511,-0.12,-0.504,-18.46,-5.1,-48.83,1785099487494.871
0.518,-0.115,-0.519,-9.95,-3.45,-50.66,1785099487500.8699
0.537,-0.129,-0.538,3.69,-0.61,-52.64,1785099487510.898
0.547,-0.147,-0.538,22.25,3.23,-54.35,1785099487521.4321
0.534,-0.175,-0.505,45.96,7.42,-55.12,1785099487534.55
0.495,-0.204,-0.467,72.08,10.5,-55.79,1785099487540.379
0.432,-0.202,-0.436,97.6,11.96,-56.89,1785099487551.069
0.372,-0.173,-0.424,123.29,13.46,-56.31,1785099487561.78
0.361,-0.153,-0.433,147.4,15.78,-53.77,1785099487575.0598
0.39,-0.148,-0.447,167.21,17.33,-52.95,1785099487581.113
0.419,-0.157,-0.48,181.77,17.4,-54.87,1785099487591.774
0.435,-0.199,-0.524,190.34,18.07,-58.87,1785099487605.053
0.42,-0.269,-0.54,193.79,20.17,-64.55,1785099487610.7021
0.381,-0.369,-0.509,197.18,22.95,-70.44,1785099487621.703
0.322,-0.466,-0.506,201.09,24.32,-76.6,1785099487635.029
0.266,-0.47,-0.492,202.98,25.54,-80.51,1785099487640.9019
0.237,-0.432,-0.452,205.54,26.28,-81.3,1785099487651.5442
0.255,-0.388,-0.438,206.03,26.4,-82.06,1785099487664.9358
0.326,-0.339,-0.444,200.45,27.07,-84.9,1785099487670.922
0.436,-0.289,-0.446,186.32,26.25,-88.63,1785099487681.637
0.51,-0.252,-0.417,165.01,23.87,-90.88,1785099487694.928
0.512,-0.257,-0.393,140.9,21.18,-90.64,1785099487700.9531
0.444,-0.302,-0.361,119.33,20.02,-89.24,1785099487711.6038
