ax,ay,az,gx,gy,gz,timestamp_ms
0.617,-0.359,-0.564,48.46,3.78,-35.95,1785099466970.169
0.654,-0.363,-0.55,53.9,5.34,-35.28,1785099466970.416
0.686,-0.368,-0.563,60.06,6.32,-35.19,1785099466970.6602
0.704,-0.358,-0.585,63.88,6.41,-36.16,1785099466970.905
0.683,-0.348,-0.589,64.39,6.38,-37.32,1785099466971.137
0.63,-0.341,-0.582,61.68,6.29,-38.36,1785099466971.3792
0.591,-0.342,-0.571,57.83,6.5,-38.94,1785099466971.627
0.58,-0.341,-0.555,55.21,7.48,-39.34,1785099466971.879
0.6,-0.341,-0.546,55.67,8.85,-38.82,1785099466972.118
0.631,-0.354,-0.537,59.14,10.16,-37.87,1785099466972.346
0.653,-0.366,-0.54,63.72,10.93,-37.87,1785099466972.581
0.653,-0.364,-0.548,66.29,10.83,-39.09,1785099466972.805
0.63,-0.347,-0.54,65.13,10.53,-40.22,1785099466973.04
0.59,-0.333,-0.529,62.04,10.01,-40.83,1785099466973.2769
0.548,-0.33,-0.513,59.11,9.83,-41.51,1785099466973.5
0.52,-0.339,-0.503,58.08,11.08,-42.21,1785099466973.7332
0.534,-0.34,-0.496,58.81,13.09,-42.6,1785099466973.969
0.584,-0.316,-0.492,60.06,13.82,-41.6,1785099466974.206
0.641,-0.287,-0.511,60.12,12.45,-39.61,1785099466974.432
0.662,-0.259,-0.534,56.0,10.44,-38.24,1785099466974.665
0.625,-0.24,-0.531,47.24,9.16,-37.54,1785099466974.905
0.55,-0.242,-0.512,37.08,8.48,-37.08,1785099466975.126
0.49,-0.257,-0.486,29.76,8.24,-36.5,1785099466975.358
0.464,-0.283,-0.477,27.38,9.49,-35.95,1785099466975.59
0.468,-0.311,-0.486,29.91,15.17,-34.79,1785099466975.9019
0.483,-0.328,-0.465,36.59,24.6,-32.81,1785099466976.1309
0.531,-0.313,-0.434,45.32,31.4,-28.93,1785099466976.366
0.594,-0.274,-0.388,53.87,33.63,-22.61,1785099466976.613
0.618,-0.244,-0.33,60.73,32.38,-15.75,1785099466976.862
0.607,-0.23,-0.273,65.0,30.06,-9.34,1785099466977.105
0.565,-0.249,-0.218,67.42,29.05,-4.43,1785099466977.3271
0.507,-0.299,-0.18,68.88,29.82,-1.37,1785099466977.549
0.457,-0.364,-0.188,70.96,33.05,0.55,1785099466977.782
0.423,-0.414,-0.195,74.04,38.27,1.89,1785099466978.082
0.419,-0.425,-0.187,77.06,41.87,5.37,1785099466978.359
0.423,-0.41,-0.162,82.22,43.43,12.6,1785099466978.581
0.43,-0.402,-0.143,90.37,42.73,20.48,1785099466978.798
0.463,-0.373,-0.131,97.23,39.77,27.07,1785099466979.018
0.493,-0.335,-0.101,102.51,37.05,34.82,1785099466979.2449
0.505,-0.331,-0.067,108.46,36.13,44.1,1785099466979.46
0.479,-0.381,-0.052,115.85,36.59,52.03,1785099466979.687
0.431,-0.45,-0.09,122.07,37.32,58.66,1785099466979.912
0.382,-0.49,-0.124,124.55,38.7,65.95,1785099466980.137
0.355,-0.478,-0.134,123.26,38.88,75.35,1785099466980.3518
0.387,-0.458,-0.157,120.43,38.48,87.22,1785099466980.596
0.454,-0.444,-0.161,113.5,38.67,98.57,1785099466980.853
0.512,-0.433,-0.132,102.24,37.66,108.1,1785099466981.074
0.557,-0.489,-0.1,93.54,36.93,117.98,1785099466981.2952
0.552,-0.59,-0.063,89.24,37.23,128.21,1785099466981.5117
0.524,-0.688,-0.044,88.35,35.62,140.26,1785099466981.7258
0.501,-0.754,-0.07,87.77,32.5,152.53,1785099466981.934
0.487,-0.745,-0.115,81.76,29.02,165.56,1785099466982.146
0.49,-0.707,-0.12,70.13,25.12,180.3,1785099466982.359
0.484,-0.708,-0.096,54.72,19.29,194.19,1785099466982.571
0.474,-0.752,-0.072,38.73,11.96,206.67,1785099466982.792
0.48,-0.839,-0.05,27.89,3.94,218.82,1785099466983.0122
0.507,-0.93,-0.059,25.12,-4.55,231.27,1785099466983.236
0.518,-0.965,-0.103,26.86,-14.56,244.39,1785099466983.437
0.524,-0.957,-0.187,29.63,-25.64,257.09,1785099466983.639
0.527,-0.965,-0.286,27.41,-37.39,266.98,1785099466983.842
0.484,-1.011,-0.334,12.7,-49.71,272.8,1785099466984.048
0.385,-1.072,-0.361,-13.67,-63.11,274.64,1785099466984.244
0.277,-1.116,-0.346,-45.66,-76.39,275.31,1785099466984.4531
0.223,-1.239,-0.313,-68.27,-88.29,276.28,1785099466984.6611
0.208,-1.444,-0.365,-74.8,-97.08,272.56,1785099466984.8682
0.192,-1.501,-0.455,-73.61,-101.32,264.96,1785099466985.068
0.219,-1.404,-0.519,-67.08,-101.17,255.81,1785099466985.282
0.145,-1.285,-0.653,-65.86,-100.13,241.65,1785099466985.492
0.022,-1.3,-0.685,-81.67,-100.71,252.82,1785099466985.698
0.029,-1.353,-0.603,-96.1,-101.41,272.77,1785099466985.905
0.029,-1.353,-0.603,-94.79,-100.59,268.32,1785099466986.115
0.016,-1.325,-0.574,-88.63,-97.05,253.12,1785099466986.325
-0.056,-1.305,-0.591,-87.1,-96.8,239.27,1785099466986.524
-0.107,-1.323,-0.632,-90.0,-96.38,222.36,1785099466986.735
-0.139,-1.343,-0.689,-90.0,-96.38,222.36,1785099466986.946
-0.161,-1.385,-0.668,-90.7,-90.98,204.26,1785099466987.1501
-0.206,-1.467,-0.645,-82.98,-86.06,187.99,1785099466987.349
-0.263,-1.5,-0.605,-67.54,-83.9,180.49,1785099466987.554
-0.259,-1.487,-0.556,-40.68,-79.78,182.71,1785099466987.764
-0.243,-1.371,-0.575,-9.55,-71.26,182.41,1785099466987.982
-0.255,-1.194,-0.658,9.89,-62.17,179.17,1785099466988.186
-0.264,-1.035,-0.722,9.43,-55.21,178.72,1785099466988.3918
-0.231,-0.969,-0.754,-4.06,-48.19,177.62,1785099466988.59
-0.211,-1.009,-0.722,-20.69,-39.83,167.06,1785099466988.8389
-0.234,-1.142,-0.681,-33.39,-34.33,151.49,1785099466989.0771
-0.26,-1.255,-0.641,-37.29,-31.46,137.94,1785099466989.2922
-0.317,-1.257,-0.595,-28.9,-27.04,127.35,1785099466989.5151
-0.405,-1.195,-0.573,-10.62,-21.76,125.19,1785099466989.741
-0.433,-1.137,-0.579,8.06,-18.92,132.33,1785099466989.9622
-0.402,-1.058,-0.587,20.2,-18.1,137.03,1785099466990.187
-0.413,-0.952,-0.612,23.32,-14.19,133.52,1785099466990.393
-0.481,-0.87,-0.599,16.72,-8.3,128.73,1785099466990.5889
-0.545,-0.853,-0.568,0.49,-5.55,122.44,1785099466990.784
-0.623,-0.846,-0.531,-24.11,-5.77,113.35,1785099466990.976
-0.672,-0.823,-0.474,-52.0,-5.37,108.34,1785099466991.174
-0.689,-0.832,-0.438,-72.91,-4.24,106.08,1785099466991.372
-0.688,-0.849,-0.43,-83.1,-3.85,103.61,1785099466991.573
-0.694,-0.843,-0.418,-83.99,-3.63,100.28,1785099466991.7642
-0.696,-0.82,-0.41,-76.36,-3.42,98.03,1785099466991.963
-0.714,-0.801,-0.417,-62.62,-3.85,96.07,1785099466992.157
-0.748,-0.799,-0.416,-46.75,-4.27,94.76,1785099466992.3467
-0.781,-0.808,-0.414,-31.34,-4.97,92.65,1785099466992.543
-0.808,-0.787,-0.412,-17.06,-5.16,89.36,1785099466992.7402
-0.829,-0.742,-0.397,-3.42,-3.81,87.53,1785099466992.9312
-0.839,-0.69,-0.359,8.7,-2.75,86.95,1785099466993.117
-0.839,-0.652,-0.345,18.71,-3.2,84.02,1785099466993.31
-0.838,-0.618,-0.349,23.87,-3.6,79.38,1785099466993.505
-0.829,-0.588,-0.344,25.33,-2.96,74.56,1785099466993.689
-0.829,-0.552,-0.344,24.45,-1.62,68.42,1785099466993.882
-0.813,-0.534,-0.347,19.93,-0.79,62.75,1785099466994.0742
-0.849,-0.506,-0.345,12.05,-0.98,56.83,1785099466994.2773
-0.852,-0.507,-0.35,2.72,-4.52,56.34,1785099466994.4639
-0.828,-0.491,-0.319,-6.04,-6.81,53.96,1785099466994.6501
-0.832,-0.486,-0.3,-8.24,-4.27,50.42,1785099466994.8372
-0.848,-0.514,-0.288,-5.77,-3.48,50.05,1785099466995.014
-0.842,-0.526,-0.299,-1.74,-5.58,49.68,1785099466995.194
-0.841,-0.492,-0.308,0.49,-6.62,47.4,1785099466995.3767
-0.877,-0.451,-0.312,-0.34,-6.07,45.69,1785099466995.553
-0.909,-0.442,-0.271,-13.61,-4.64,43.21,1785099466995.743
-0.853,-0.516,-0.235,-27.44,-5.71,36.65,1785099466995.931
-0.765,-0.57,-0.265,-23.99,-10.16,31.89,1785099466996.111
-0.786,-0.509,-0.294,-11.32,-11.96,32.11,1785099466996.3
-0.86,-0.431,-0.319,2.47,-8.7,34.33,1785099466996.4858
-0.888,-0.394,-0.332,10.28,-6.29,33.36,1785099466996.6772
-0.871,-0.384,-0.324,11.41,-6.35,30.21,1785099466996.856
-0.85,-0.39,-0.31,9.8,-7.29,26.76,1785099466997.045
-0.844,-0.4,-0.299,7.97,-7.84,23.87,1785099466997.238
-0.845,-0.411,-0.296,8.73,-8.79,21.91,1785099466997.4202
-0.848,-0.414,-0.303,12.67,-10.35,20.23,1785099466997.613
-0.851,-0.388,-0.316,16.27,-12.51,19.07,1785099466997.7988
-0.844,-0.345,-0.344,15.84,-14.31,18.59,1785099466997.9783
-0.837,-0.323,-0.371,11.35,-14.98,17.73,1785099466998.1638
-0.84,-0.315,-0.376,3.51,-14.71,16.21,1785099466998.35
-0.844,-0.316,-0.37,-4.18,-14.59,15.26,1785099466998.533
-0.849,-0.331,-0.37,-9.03,-14.92,14.34,1785099466998.7122
-0.844,-0.343,-0.37,-11.51,-15.26,13.31,1785099466998.899
-0.86,-0.35,-0.371,-12.36,-16.21,12.27,1785099466999.0881
-0.851,-0.365,-0.373,-11.54,-17.15,13.31,1785099466999.275
-0.85,-0.359,-0.384,-9.86,-17.09,12.63,1785099466999.4658
-0.868,-0.348,-0.391,-9.86,-17.03,11.69,1785099466999.655
-0.866,-0.358,-0.405,-11.08,-17.03,12.15,1785099466999.845
-0.87,-0.349,-0.406,-13.79,-16.91,12.09,1785099467000.0342
-0.87,-0.336,-0.397,-16.42,-16.6,12.42,1785099467000.225
-0.861,-0.338,-0.405,-18.16,-15.99,12.57,1785099467000.411
-0.846,-0.331,-0.423,-20.63,-15.38,10.38,1785099467000.5918
-0.858,-0.329,-0.443,-22.64,-13.37,6.2,1785099467000.774
-0.878,-0.353,-0.454,-25.42,-11.17,4.39,1785099467000.958
-0.879,-0.35,-0.447,-30.15,-10.86,4.79,1785099467001.1343
-0.87,-0.331,-0.416,-33.85,-10.47,5.16,1785099467001.324
-0.865,-0.318,-0.383,-36.53,-10.19,4.43,1785099467001.507
-0.861,-0.314,-0.363,-39.12,-10.01,3.39,1785099467001.687
-0.856,-0.318,-0.352,-40.31,-9.37,2.62,1785099467001.876
-0.847,-0.329,-0.369,-38.91,-8.15,2.53,1785099467002.061
-0.844,-0.336,-0.389,-35.13,-5.89,2.08,1785099467002.2458
-0.847,-0.337,-0.397,-28.87,-3.91,1.59,1785099467002.4268
-0.851,-0.341,-0.409,-20.84,-2.17,1.62,1785099467002.6099
-0.854,-0.342,-0.415,-12.67,-1.04,1.95,1785099467002.816
-0.856,-0.338,-0.411,-4.94,-0.15,2.26,1785099467003.004
-0.86,-0.323,-0.406,0.98,0.37,2.29,1785099467003.2058
-0.862,-0.314,-0.405,4.43,0.95,2.62,1785099467003.398
-0.859,-0.312,-0.407,5.86,1.71,2.38,1785099467003.5752
-0.865,-0.306,-0.408,5.31,2.17,1.56,1785099467003.7761
-0.868,-0.301,-0.405,2.99,2.35,1.04,1785099467003.9722
-0.87,-0.3,-0.399,-0.34,2.56,0.82,1785099467004.216
-0.871,-0.3,-0.397,-3.94,2.81,0.58,1785099467004.435
-0.869,-0.298,-0.393,-7.97,2.9,0.73,1785099467004.622
-0.865,-0.294,-0.396,-11.6,2.9,0.82,1785099467004.795
-0.858,-0.298,-0.406,-14.47,3.27,0.58,1785099467004.9658
-0.862,-0.302,-0.39,-20.39,3.2,-0.15,1785099467005.306
-0.86,-0.306,-0.375,-22.31,2.9,-0.46,1785099467005.481
-0.915,-0.22,-0.287,0.98,-2.26,12.54,1785099467005.895
-0.913,-0.22,-0.286,0.61,-2.23,13.43,1785099467006.066
-0.914,-0.21,-0.283,-0.46,-2.44,13.89,1785099467010.818
-0.911,-0.208,-0.282,-1.22,-2.47,14.25,1785099467020.949
-0.907,-0.21,-0.279,-1.34,-2.66,14.19,1785099467034.2068
-0.907,-0.207,-0.282,-2.01,-2.93,13.67,1785099467039.722
-0.907,-0.204,-0.288,-3.57,-3.02,13.09,1785099467050.133
-0.911,-0.199,-0.285,-5.86,-3.3,12.73,1785099467060.6028
-0.91,-0.204,-0.286,-7.84,-3.88,12.42,1785099467071.017
-0.912,-0.207,-0.289,-9.46,-4.15,11.81,1785099467084.332
-0.915,-0.207,-0.293,-10.68,-4.39,11.6,1785099467089.975
-0.916,-0.215,-0.298,-11.38,-4.49,11.2,1785099467100.48
-0.916,-0.213,-0.293,-12.09,-4.36,10.41,1785099467110.988
-0.916,-0.21,-0.28,-11.93,-4.58,9.74,1785099467124.2139
-0.912,-0.209,-0.279,-10.53,-4.82,9.61,1785099467129.849
-0.91,-0.206,-0.289,-8.76,-4.61,9.7,1785099467140.076
-0.911,-0.205,-0.291,-8.15,-4.58,9.34,1785099467150.555
-0.909,-0.205,-0.289,-8.21,-4.76,8.73,1785099467160.8782
-0.907,-0.205,-0.287,-8.79,-5.04,8.58,1785099467171.3228
-0.905,-0.207,-0.287,-9.09,-5.19,8.58,1785099467184.626
-0.907,-0.207,-0.289,-8.94,-5.16,8.79,1785099467190.0642
-0.909,-0.204,-0.287,-9.09,-5.31,8.94,1785099467200.184
-0.91,-0.194,-0.289,-9.95,-5.62,8.82,1785099467210.613
-0.909,-0.196,-0.289,-11.05,-5.98,8.7,1785099467221.208
-0.907,-0.203,-0.288,-11.93,-6.26,8.21,1785099467234.5012
-0.912,-0.199,-0.283,-12.27,-6.59,8.12,1785099467240.308
-0.912,-0.197,-0.281,-11.57,-7.2,9.09,1785099467250.4639
-0.911,-0.203,-0.289,-10.47,-7.54,9.52,1785099467260.8792
-0.914,-0.198,-0.291,-10.38,-7.39,9.31,1785099467271.488
-0.917,-0.193,-0.295,-10.77,-7.29,9.31,1785099467284.6458
-0.916,-0.201,-0.298,-11.17,-7.2,9.43,1785099467290.4119
-0.917,-0.202,-0.298,-11.75,-6.99,9.4,1785099467300.566
-0.916,-0.201,-0.298,-12.09,-6.9,9.4,1785099467311.091
-0.917,-0.203,-0.3,-11.99,-6.74,8.91,1785099467321.366
-0.922,-0.2,-0.3,-12.09,-6.38,7.9,1785099467334.72
-0.923,-0.196,-0.294,-12.18,-6.13,7.17,1785099467340.523
-0.916,-0.19,-0.291,-11.81,-5.95,6.84,1785099467350.728
-0.911,-0.19,-0.295,-10.77,-5.62,6.1,1785099467361.106
-0.912,-0.18,-0.297,-10.07,-5.4,5.13,1785099467371.5808
-0.909,-0.174,-0.303,-9.86,-5.22,4.7,1785099467384.887
-0.908,-0.176,-0.305,-10.04,-4.91,3.91,1785099467390.592
-0.909,-0.181,-0.302,-10.04,-4.61,2.96,1785099467400.7
-0.911,-0.19,-0.3,-9.09,-4.3,2.41,1785099467411.029
-0.912,-0.192,-0.297,-7.51,-3.94,2.14,1785099467421.4138
-0.908,-0.191,-0.3,-5.01,-3.57,2.11,1785099467434.741
-0.903,-0.189,-0.303,-2.38,-3.2,2.01,1785099467440.3123
-0.898,-0.183,-0.304,-1.01,-2.75,1.8,1785099467450.434
-0.894,-0.181,-0.308,-0.37,-2.62,2.23,1785099467460.73
-0.889,-0.187,-0.32,-1.01,-2.9,2.87,1785099467470.924
-0.89,-0.2,-0.338,-3.45,-2.84,3.2,1785099467481.554
-0.896,-0.215,-0.352,-7.93,-2.66,3.3,1785099467494.7842
-0.902,-0.228,-0.362,-13.18,-2.38,3.3,1785099467500.652
-0.905,-0.242,-0.365,-17.98,-2.01,2.9,1785099467510.47
-0.907,-0.254,-0.363,-21.94,-1.62,2.35,1785099467521.075
-0.905,-0.27,-0.358,-23.77,-1.07,1.22,1785099467531.533
-0.907,-0.279,-0.354,-23.99,-0.43,-0.7,1785099467544.77
-0.905,-0.279,-0.358,-23.47,-0.09,-3.05,1785099467551.1338
-0.895,-0.283,-0.373,-23.38,0.31,-5.8,1785099467560.608
-0.892,-0.281,-0.392,-24.26,0.82,-8.88,1785099467571.252
-0.892,-0.285,-0.417,-26.64,1.43,-11.99,1785099467584.5188
-0.893,-0.29,-0.433,-30.37,2.5,-15.02,1785099467590.7449
-0.897,-0.3,-0.445,-34.58,3.97,-18.25,1785099467600.744
-0.899,-0.306,-0.439,-39.22,5.83,-21.39,1785099467611.1309
-0.902,-0.315,-0.446,-43.43,7.69,-24.26,1785099467624.4639
-0.916,-0.321,-0.445,-44.98,10.01,-27.44,1785099467630.391
-0.921,-0.327,-0.442,-43.15,10.86,-30.46,1785099467640.908
-0.912,-0.32,-0.456,-39.46,12.73,-32.38,1785099467651.5032
-0.913,-0.318,-0.47,-33.36,15.41,-32.93,1785099467664.7073
-0.908,-0.33,-0.5,-26.15,16.91,-32.75,1785099467671.0342
-0.901,-0.328,-0.526,-20.81,18.95,-31.74,1785099467681.1982
-0.887,-0.334,-0.536,-16.66,21.73,-29.48,1785099467694.4429
-0.871,-0.347,-0.544,-13.95,24.66,-28.23,1785099467700.5242
-0.871,-0.345,-0.552,-13.64,27.68,-27.22,1785099467710.904
-0.872,-0.355,-0.57,-14.8,30.3,-26.18,1785099467721.3772
-0.874,-0.365,-0.596,-17.3,33.2,-26.55,1785099467734.956
-0.882,-0.368,-0.624,-20.36,36.19,-27.28,1785099467740.749
-0.887,-0.369,-0.645,-23.47,39.25,-27.8,1785099467751.132
-0.887,-0.372,-0.666,-24.96,43.09,-28.81,1785099467764.544
-0.897,-0.367,-0.662,-25.12,47.3,-29.57,1785099467770.659
-0.909,-0.371,-0.656,-24.48,50.78,-30.37,1785099467780.942
-0.922,-0.374,-0.667,-24.84,53.9,-32.17,1785099467791.6392
-0.922,-0.374,-0.667,-26.4,57.13,-34.27,1785099467804.841
-0.941,-0.379,-0.675,-27.28,60.27,-36.62,1785099467811.003
-0.944,-0.391,-0.691,-27.13,63.69,-39.31,1785099467821.336
-0.949,-0.394,-0.71,-26.03,67.38,-41.38,1785099467834.6692
-0.949,-0.4,-0.751,-25.64,72.08,-43.15,1785099467840.514
-0.944,-0.409,-0.799,-25.64,72.08,-43.15,1785099467851.1538
-0.949,-0.415,-0.832,-26.7,77.0,-44.5,1785099467864.179
-0.959,-0.424,-0.843,-28.41,81.45,-45.69,1785099467870.085
-0.984,-0.437,-0.837,-28.84,85.6,-46.45,1785099467880.737
-1.017,-0.444,-0.826,-27.38,89.21,-46.94,1785099467891.35
-1.038,-0.451,-0.822,-24.45,92.5,-47.7,1785099467904.6453
-1.037,-0.461,-0.838,-20.84,96.35,-48.8,1785099467910.8071
-1.027,-0.469,-0.865,-17.79,101.23,-51.18,1785099467921.0579
-1.025,-0.47,-0.889,-14.89,106.05,-53.59,1785099467934.2878
-1.03,-0.455,-0.93,-12.12,110.29,-55.82,1785099467940.377
-1.056,-0.428,-0.947,-10.22,114.6,-57.83,1785099467951.155
-1.094,-0.425,-0.94,-8.82,118.17,-59.48,1785099467964.4219
-1.121,-0.466,-0.946,-7.2,120.67,-62.96,1785099467971.03
-1.132,-0.485,-0.958,-6.38,123.08,-67.26,1785099467980.844
-1.09,-0.485,-0.98,-4.88,127.63,-68.64,1785099467991.511
-1.041,-0.477,-0.986,-2.26,132.97,-69.83,1785099468004.727
-0.998,-0.436,-0.992,-2.44,135.59,-71.17,1785099468010.75
-0.979,-0.393,-0.995,-6.44,137.0,-72.21,1785099468021.1682
-0.99,-0.387,-0.966,-12.02,138.58,-73.12,1785099468034.527
-0.998,-0.423,-0.948,-14.59,140.54,-75.78,1785099468040.3562
-1.002,-0.449,-0.919,-11.93,143.53,-78.37,1785099468051.1812
-0.986,-0.453,-0.891,-3.11,146.61,-78.83,1785099468064.429
-0.956,-0.435,-0.865,9.06,148.11,-77.91,1785099468070.6611
-0.921,-0.403,-0.865,19.32,147.98,-75.72,1785099468080.9631
-0.875,-0.373,-0.883,23.38,148.11,-72.85,1785099468094.2048
-0.823,-0.37,-0.905,21.73,148.38,-72.21,1785099468100.281
-0.79,-0.365,-0.922,15.56,148.63,-74.43,1785099468110.9
-0.763,-0.373,-0.91,8.88,149.02,-76.51,1785099468121.5352
-0.746,-0.395,-0.871,4.58,149.24,-78.46,1785099468134.885
-0.735,-0.424,-0.826,4.03,148.87,-80.6,1785099468140.726
-0.706,-0.444,-0.793,6.71,147.89,-81.76,1785099468151.364
-0.669,-0.45,-0.782,11.29,146.37,-81.24,1785099468164.351
-0.623,-0.426,-0.787,14.22,144.32,-79.53,1785099468170.479
-0.602,-0.382,-0.791,14.04,143.59,-77.7,1785099468181.2349
-0.589,-0.384,-0.805,10.5,139.13,-73.4,1785099468194.459
-0.545,-0.391,-0.782,3.51,137.0,-73.61,1785099468200.4429
-0.55,-0.393,-0.752,-4.3,136.54,-78.16,1785099468211.087
-0.541,-0.392,-0.718,-11.11,136.05,-79.41,1785099468224.226
-0.514,-0.391,-0.683,-14.62,134.37,-78.25,1785099468230.169
-0.479,-0.396,-0.668,-14.68,130.47,-75.23,1785099468241.01
-0.428,-0.401,-0.683,-12.94,127.14,-70.5,1785099468254.208
-0.377,-0.409,-0.724,-11.44,124.64,-66.99,1785099468260.122
-0.341,-0.381,-0.731,-14.53,122.71,-65.71,1785099468271.028
-0.324,-0.353,-0.688,-21.33,121.22,-65.43,1785099468284.1643
-0.33,-0.338,-0.614,-29.48,118.78,-64.76,1785099468290.1042
-0.328,-0.337,-0.544,-35.77,114.84,-62.9,1785099468300.9128
-0.298,-0.334,-0.506,-37.48,109.41,-59.79,1785099468311.6128
-0.243,-0.327,-0.517,-34.67,103.58,-57.1,1785099468324.852
-0.183,-0.329,-0.561,-28.44,100.19,-54.99,1785099468331.155
-0.156,-0.332,-0.59,-19.41,98.91,-53.59,1785099468341.487
-0.149,-0.33,-0.593,-7.45,97.66,-52.19,1785099468354.722
-0.131,-0.347,-0.611,7.48,94.97,-50.57,1785099468360.612
-0.089,-0.332,-0.651,18.31,90.58,-49.13,1785099468371.0989
-0.041,-0.301,-0.679,23.32,87.77,-47.27,1785099468384.4731
-0.017,-0.29,-0.691,23.16,85.57,-45.9,1785099468389.878
0.002,-0.286,-0.656,18.04,82.98,-46.08,1785099468400.7192
0.034,-0.283,-0.605,12.57,79.26,-47.3,1785099468411.5
0.082,-0.276,-0.58,8.61,74.65,-49.1,1785099468424.597
0.134,-0.258,-0.59,4.46,70.16,-50.6,1785099468430.489
0.209,-0.28,-0.62,-0.61,67.87,-51.09,1785099468440.8362
0.254,-0.314,-0.662,-7.9,66.5,-54.17,1785099468451.3499
0.271,-0.339,-0.681,-16.54,64.49,-56.12,1785099468464.625
0.263,-0.346,-0.651,-22.37,62.07,-56.34,1785099468470.5898
0.25,-0.316,-0.603,-22.64,59.39,-54.51,1785099468481.098
0.265,-0.281,-0.575,-16.02,57.04,-50.33,1785099468494.3372
0.3,-0.272,-0.585,-5.37,54.96,-46.72,1785099468500.052
0.325,-0.26,-0.6,3.91,53.68,-45.14,1785099468510.736
0.334,-0.266,-0.624,11.29,52.43,-43.09,1785099468521.2568
0.334,-0.281,-0.634,14.4,50.66,-40.19,1785099468534.6638
0.324,-0.281,-0.62,13.58,48.68,-37.08,1785099468540.516
0.315,-0.286,-0.607,11.6,46.54,-33.36,1785099468550.7898
0.308,-0.285,-0.576,9.03,43.98,-29.76,1785099468561.504
0.311,-0.278,-0.552,8.45,40.74,-26.34,1785099468574.719
0.332,-0.281,-0.542,11.26,38.0,-23.04,1785099468580.7031
0.355,-0.305,-0.522,18.07,36.26,-21.12,1785099468591.406
0.364,-0.34,-0.513,27.56,34.94,-20.63,1785099468604.39
0.359,-0.327,-0.513,35.55,33.17,-19.47,1785099468609.943
0.363,-0.272,-0.55,41.72,29.39,-14.68,1785099468620.701
0.398,-0.214,-0.627,44.31,25.33,-7.78,1785099468631.257
0.432,-0.194,-0.701,38.94,22.61,-2.29,1785099468644.646
0.449,-0.215,-0.743,25.12,21.0,0.18,1785099468650.697
0.445,-0.25,-0.735,9.22,20.26,0.21,1785099468660.731
0.439,-0.282,-0.686,0.06,19.23,0.34,1785099468670.9802
0.438,-0.304,-0.622,1.04,17.37,1.13,1785099468684.615
0.449,-0.311,-0.599,9.43,14.65,1.62,1785099468689.951
0.474,-0.309,-0.628,17.94,11.66,0.95,1785099468700.5452
0.49,-0.302,-0.667,19.75,9.55,-1.46,1785099468711.102
0.485,-0.309,-0.699,14.19,8.0,-5.01,1785099468721.4092
0.482,-0.329,-0.714,4.49,7.02,-8.36,1785099468734.7463
0.472,-0.345,-0.709,-5.07,5.98,-11.44,1785099468740.4248
0.459,-0.352,-0.692,-10.53,4.91,-13.7,1785099468750.842
0.453,-0.358,-0.675,-10.13,4.67,-15.96,1785099468761.0923
0.452,-0.365,-0.674,-5.8,4.3,-19.23,1785099468771.679
0.447,-0.345,-0.69,-1.4,3.3,-22.98,1785099468784.928
0.438,-0.307,-0.709,1.13,1.95,-24.96,1785099468790.8909
0.435,-0.268,-0.738,0.27,0.85,-25.27,1785099468800.9
0.448,-0.248,-0.772,-4.3,-0.27,-25.15,1785099468811.2632
0.462,-0.253,-0.783,-10.9,-0.85,-24.99,1785099468824.5608
0.474,-0.289,-0.766,-15.84,-0.12,-25.06,1785099468830.451
0.47,-0.339,-0.718,-15.63,1.34,-25.7,1785099468840.755
0.459,-0.37,-0.676,-7.78,1.86,-26.0,1785099468851.265
0.461,-0.356,-0.664,7.35,2.11,-25.42,1785099468864.461
0.464,-0.328,-0.679,27.25,3.39,-24.6,1785099468870.6292
0.466,-0.308,-0.7,47.06,5.58,-25.42,1785099468880.594
0.47,-0.308,-0.708,62.69,8.73,-28.93,1785099468891.3447
0.448,-0.332,-0.677,73.12,10.77,-33.91,1785099468904.427
0.45,-0.375,-0.705,81.76,11.17,-37.9,1785099468910.731
0.451,-0.395,-0.72,87.95,12.24,-41.54,1785099468920.854
0.417,-0.391,-0.704,92.93,13.0,-44.92,1785099468931.4739
0.374,-0.37,-0.683,98.18,13.73,-48.59,1785099468945.102
0.343,-0.376,-0.65,103.15,15.05,-54.51,1785099468951.0752
0.295,-0.419,-0.607,106.27,16.27,-64.42,1785099468961.3838
0.227,-0.461,-0.554,108.68,18.16,-76.17,1785099468974.606
0.184,-0.49,-0.549,114.17,20.87,-84.81,1785099468981.2688
0.213,-0.489,-0.593,120.27,23.87,-88.72,1785099468991.3289
0.266,-0.446,-0.589,122.17,25.24,-91.71,1785099469004.6248
0.291,-0.435,-0.583,118.78,25.85,-94.12,1785099469010.523
0.266,-0.459,-0.592,107.3,27.71,-97.93,1785099469021.3042
0.207,-0.478,-0.575,90.3,30.61,-102.79,1785099469034.601
0.146,-0.518,-0.565,76.66,34.82,-106.69,1785099469040.5122
0.103,-0.542,-0.54,68.88,40.71,-109.53,1785099469051.29
0.118,-0.529,-0.508,68.3,45.41,-109.71,1785099469064.502
0.176,-0.493,-0.463,74.83,48.59,-106.48,1785099469070.601
0.247,-0.46,-0.42,84.14,49.04,-101.96,1785099469081.274
0.247,-0.46,-0.42,88.81,46.57,-98.24,1785099469094.465
0.293,-0.421,-0.391,88.56,43.95,-94.7,1785099469100.621
0.289,-0.393,-0.392,85.76,42.97,-91.13,1785099469111.0981
0.234,-0.377,-0.392,82.22,42.91,-87.47,1785099469121.5579
0.161,-0.37,-0.404,82.22,42.91,-87.47,1785099469134.8748
0.106,-0.393,-0.425,80.9,45.38,-84.44,1785099469140.747
0.086,-0.414,-0.414,81.12,50.02,-81.58,1785099469151.368
0.128,-0.389,-0.375,82.49,54.66,-76.14,1785099469165.301
0.261,-0.347,-0.307,86.95,58.93,-66.16,1785099469170.822
0.404,-0.333,-0.199,93.36,59.6,-53.9,1785099469181.017
0.499,-0.332,-0.14,97.93,54.66,-41.87,1785099469191.641
0.532,-0.321,-0.129,98.85,47.67,-29.3,1785099469204.853
0.508,-0.303,-0.121,94.91,39.98,-14.95,1785099469210.9648
0.456,-0.292,-0.133,88.14,31.22,0.09,1785099469221.208
0.407,-0.281,-0.144,78.74,22.89,14.31,1785099469234.512
0.38,-0.299,-0.138,68.85,16.36,27.44,1785099469240.5132
0.375,-0.351,-0.114,62.01,11.14,39.58,1785099469251.314
0.397,-0.443,-0.089,60.79,6.35,51.48,1785099469261.464
0.451,-0.547,-0.106,65.71,2.14,63.08,1785099469274.71
0.505,-0.584,-0.151,73.92,-0.7,77.61,1785099469280.252
0.574,-0.547,-0.192,83.44,-3.42,98.36,1785099469291.1082
0.629,-0.489,-0.207,91.13,-8.73,122.71,1785099469301.6052
0.626,-0.46,-0.219,91.43,-16.88,145.24,1785099469314.812
0.579,-0.459,-0.25,82.37,-25.61,163.82,1785099469320.79
0.541,-0.476,-0.285,68.94,-31.98,180.18,1785099469331.38
0.541,-0.52,-0.314,55.6,-35.07,195.23,1785099469344.655
0.576,-0.58,-0.354,44.22,-36.47,208.26,1785099469350.755
0.615,-0.68,-0.401,37.97,-37.02,219.95,1785099469361.532
0.621,-0.774,-0.448,33.66,-39.22,229.41,1785099469374.749
0.592,-0.803,-0.482,25.64,-45.5,238.99,1785099469380.6938
0.548,-0.77,-0.485,13.37,-55.67,251.41,1785099469391.4812
0.503,-0.77,-0.466,0.06,-68.03,263.59,1785099469404.6763
0.461,-0.872,-0.446,-13.21,-80.87,269.33,1785099469411.026
0.407,-1.079,-0.499,-25.94,-93.94,266.76,1785099469421.366
0.358,-1.247,-0.674,-42.21,-105.38,260.93,1785099469434.6628
0.321,-1.24,-0.824,-63.78,-111.15,261.15,1785099469440.594
0.303,-1.143,-0.898,-83.77,-112.89,269.78,1785099469451.5999
0.291,-1.024,-0.926,-102.51,-113.25,276.8,1785099469464.827
0.244,-0.923,-0.878,-120.55,-114.23,278.73,1785099469470.774
0.158,-0.993,-0.826,-129.58,-120.4,280.22,1785099469484.202
0.113,-1.216,-0.825,-124.85,-127.38,270.76,1785099469490.5688
0.055,-1.413,-0.826,-116.95,-126.26,242.74,1785099469501.52
-0.058,-1.416,-0.786,-103.21,-126.62,217.6,1785099469514.9187
-0.104,-1.361,-0.749,-77.39,-123.14,207.71,1785099469520.931
-0.076,-1.271,-0.766,-51.24,-123.14,209.08,1785099469534.2969
-0.04,-1.107,-0.748,-33.3,-129.7,211.77,1785099469540.162
-0.002,-0.989,-0.765,-23.13,-139.32,213.78,1785099469551.6858
0.01,-0.899,-0.832,-21.67,-145.18,210.61,1785099469564.666
-0.06,-0.857,-0.899,-28.02,-139.9,202.06,1785099469570.827
-0.194,-0.954,-0.968,-46.82,-132.88,194.31,1785099469581.6938
-0.346,-1.076,-0.999,-75.35,-132.82,187.87,1785099469594.885
-0.417,-1.079,-0.945,-104.13,-134.37,179.88,1785099469600.7869
-0.501,-1.075,-0.859,-116.55,-130.71,177.53,1785099469614.301
-0.398,-1.101,-0.78,-110.42,-129.18,177.8,1785099469620.4521
-0.488,-0.98,-0.678,-97.48,-126.65,163.43,1785099469631.5032
-0.489,-0.904,-0.65,-79.44,-131.05,158.36,1785099469644.777
-0.482,-0.901,-0.7,-60.27,-132.63,152.81,1785099469651.191
-0.574,-0.901,-0.763,-45.35,-128.33,142.16,1785099469664.235
-0.682,-0.888,-0.777,-36.29,-123.97,136.36,1785099469670.249
-0.797,-0.842,-0.745,-29.97,-119.48,135.84,1785099469681.159
-0.801,-0.806,-0.731,-25.82,-116.18,138.19,1785099469694.422
-0.808,-0.738,-0.658,-24.93,-110.2,134.4,1785099469700.434
-0.8,-0.735,-0.59,-22.92,-106.33,130.56,1785099469711.356
-0.803,-0.753,-0.532,-17.27,-103.34,124.21,1785099469724.618
-0.837,-0.735,-0.557,-12.15,-104.89,120.55,1785099469730.736
-0.852,-0.713,-0.606,-15.23,-105.53,121.04,1785099469741.617
-0.872,-0.693,-0.609,-14.95,-100.83,119.66,1785099469754.893
-0.915,-0.679,-0.605,-2.41,-93.14,117.1,1785099469760.771
-0.939,-0.684,-0.639,14.44,-86.46,116.18,1785099469771.601
-0.966,-0.651,-0.634,24.14,-79.07,114.08,1785099469784.937
-0.956,-0.6,-0.587,27.47,-71.93,113.16,1785099469790.977
-0.912,-0.562,-0.529,29.69,-64.46,112.52,1785099469801.553
-0.891,-0.531,-0.493,30.12,-58.17,109.2,1785099469814.789
-0.893,-0.495,-0.478,28.08,-52.19,103.82,1785099469820.7942
-0.888,-0.487,-0.492,25.97,-46.6,98.88,1785099469831.415
-0.916,-0.499,-0.511,21.85,-42.79,93.69,1785099469844.678
-0.973,-0.448,-0.467,14.04,-41.26,89.72,1785099469850.865
-1.009,-0.376,-0.444,10.83,-40.38,93.3,1785099469861.0981
-0.984,-0.327,-0.443,12.51,-39.77,100.41,1785099469874.3958
-0.937,-0.295,-0.423,13.98,-39.0,101.63,1785099469880.372
-0.913,-0.302,-0.411,15.11,-34.94,96.74,1785099469891.01
-0.931,-0.332,-0.414,14.5,-30.15,89.33,1785099469901.585
-0.957,-0.358,-0.411,12.94,-26.73,83.22,1785099469914.842
-0.967,-0.36,-0.391,13.12,-23.77,77.12,1785099469920.888
-0.96,-0.319,-0.334,16.36,-20.36,72.05,1785099469931.356
-0.926,-0.258,-0.281,24.57,-18.46,70.01,1785099469944.743
-0.902,-0.206,-0.296,35.13,-17.88,66.77,1785099469950.783
-0.911,-0.157,-0.344,40.68,-16.21,61.86,1785099469961.115
-0.929,-0.164,-0.369,40.38,-14.04,56.15,1785099469971.695
-0.946,-0.225,-0.386,36.71,-12.67,48.46,1785099469985.0293
-0.949,-0.273,-0.404,32.14,-10.44,40.86,1785099469990.847
-0.941,-0.292,-0.407,28.96,-7.57,36.44,1785099470001.37
-0.927,-0.295,-0.396,26.58,-4.97,33.91,1785099470014.573
-0.918,-0.268,-0.374,21.67,-3.78,31.34,1785099470021.562
-0.913,-0.24,-0.358,15.53,-3.02,27.77,1785099470030.598
-0.919,-0.195,-0.337,8.7,-2.69,23.53,1785099470041.2341
-0.911,-0.169,-0.328,2.9,-2.84,21.0,1785099470051.705
-0.905,-0.18,-0.329,-2.2,-2.93,18.1,1785099470064.711
-0.902,-0.192,-0.335,-7.97,-2.11,13.95,1785099470070.6492
-0.898,-0.235,-0.314,-11.96,-0.37,10.28,1785099470081.0151
-0.9,-0.313,-0.253,-15.08,-1.01,3.36,1785099470091.388
-0.906,-0.356,-0.226,-16.6,-3.08,-4.88,1785099470104.643
-0.907,-0.355,-0.235,-13.49,-3.69,-8.0,1785099470110.647
-0.914,-0.3,-0.234,-7.54,-3.69,-7.08,1785099470120.498
-0.916,-0.239,-0.253,1.31,-4.58,-3.39,1785099470130.8757
-0.918,-0.245,-0.304,9.61,-4.97,-0.73,1785099470141.263
-0.942,-0.279,-0.354,12.63,-3.63,-2.04,1785099470154.53
-0.95,-0.314,-0.381,12.94,-2.11,-2.01,1785099470160.38
-0.89,-0.378,-0.404,19.1,1.59,1.16,1785099470170.503
-0.863,-0.351,-0.347,29.3,6.2,0.58,1785099470180.9438
-0.892,-0.302,-0.262,48.62,11.35,4.91,1785099470191.2388
-0.878,-0.311,-0.3,69.67,10.44,11.72,1785099470204.595
-0.884,-0.2,-0.323,72.21,6.04,9.19,1785099470210.5168
-0.828,-0.137,-0.346,64.39,4.64,8.36,1785099470220.816
-0.79,-0.158,-0.359,51.09,6.71,3.72,1785099470231.3281
-0.836,-0.192,-0.349,33.66,8.24,-4.36,1785099470244.684
-0.875,-0.256,-0.344,17.82,7.66,-7.75,1785099470250.178
-0.888,-0.314,-0.344,6.01,8.0,-10.19,1785099470260.229
-0.903,-0.337,-0.341,-1.4,9.74,-12.48,1785099470271.046
-0.91,-0.334,-0.341,-4.91,10.9,-12.45,1785099470281.488
-0.906,-0.331,-0.355,-6.1,11.51,-11.6,1785099470294.734
-0.914,-0.331,-0.365,-7.66,11.63,-12.02,1785099470300.6777
-0.932,-0.325,-0.363,-10.35,10.99,-12.76,1785099470310.956
-0.943,-0.337,-0.382,-12.05,10.07,-12.79,1785099470324.321
-0.97,-0.35,-0.423,-15.75,8.39,-14.22,1785099470330.2131
-0.979,-0.35,-0.469,-23.01,7.78,-16.42,1785099470341.0051
-0.975,-0.346,-0.495,-32.65,10.16,-18.19,1785099470351.278
-0.952,-0.345,-0.488,-43.21,12.79,-19.9,1785099470364.767
-0.952,-0.345,-0.488,-54.17,13.49,-21.73,1785099470370.465
-0.927,-0.354,-0.488,-65.46,15.02,-23.53,1785099470380.9631
-0.903,-0.383,-0.504,-75.9,17.67,-27.31,1785099470391.767
-0.886,-0.419,-0.51,-83.56,21.06,-31.89,1785099470404.581
-0.87,-0.429,-0.487,-84.44,25.73,-36.38,1785099470410.5571
-0.85,-0.428,-0.451,-84.44,25.73,-36.38,1785099470421.254
-0.841,-0.423,-0.432,-78.01,30.27,-42.42,1785099470434.387
-0.85,-0.408,-0.432,-67.35,33.75,-49.35,1785099470440.0562
-0.872,-0.394,-0.444,-54.84,36.71,-55.57,1785099470451.293
-0.896,-0.384,-0.474,-42.51,39.77,-60.24,1785099470461.615
-0.911,-0.366,-0.503,-32.56,42.57,-63.26,1785099470474.931
-0.917,-0.355,-0.531,-25.67,44.68,-64.85,1785099470480.813
-0.913,-0.345,-0.546,-22.52,46.39,-66.53,1785099470491.2078
-0.915,-0.342,-0.563,-22.03,47.98,-68.73,1785099470504.737
-0.922,-0.342,-0.568,-23.07,49.99,-70.68,1785099470510.5889
-0.935,-0.342,-0.554,-23.07,51.91,-71.44,1785099470520.8608
-0.953,-0.361,-0.54,-19.35,53.1,-71.11,1785099470531.7231
-0.956,-0.381,-0.532,-13.15,53.83,-70.59,1785099470544.9111
-0.947,-0.394,-0.523,-6.38,54.6,-70.01,1785099470551.2021
-0.927,-0.393,-0.525,-1.31,55.12,-69.64,1785099470561.185
-0.901,-0.379,-0.542,0.82,55.3,-69.09,1785099470574.412
-0.877,-0.353,-0.564,-0.55,55.39,-68.91,1785099470580.305
-0.854,-0.337,-0.6,-4.39,56.06,-69.46,1785099470591.9219
-0.847,-0.337,-0.621,-9.4,57.53,-71.02,1785099470601.071
-0.857,-0.368,-0.633,-12.97,59.08,-72.73,1785099470614.4631
-0.896,-0.419,-0.635,-13.82,60.27,-73.76,1785099470620.3342
-0.946,-0.458,-0.629,-12.45,60.95,-73.27,1785099470631.193
-0.971,-0.49,-0.648,-9.19,61.53,-71.23,1785099470641.4248
-0.977,-0.502,-0.678,-6.44,63.33,-69.03,1785099470654.728
-0.966,-0.497,-0.688,-5.95,65.55,-66.53,1785099470660.6082
-0.935,-0.498,-0.689,-6.1,67.54,-64.58,1785099470671.078
-0.904,-0.497,-0.693,-7.17,68.94,-64.91,1785099470681.444
-0.884,-0.485,-0.696,-8.51,69.83,-66.07,1785099470694.696
-0.883,-0.473,-0.705,-9.13,70.56,-67.54,1785099470700.678
-0.895,-0.476,-0.706,-9.25,71.69,-69.61,1785099470710.924
-0.904,-0.496,-0.713,-9.58,73.12,-72.33,1785099470721.432
-0.902,-0.518,-0.722,-9.43,74.83,-75.08,1785099470734.802
-0.898,-0.537,-0.746,-8.39,76.72,-77.27,1785099470740.474
-0.891,-0.542,-0.755,-7.75,79.07,-78.46,1785099470751.147
-0.874,-0.552,-0.751,-6.41,81.15,-79.17,1785099470762.4487
-0.857,-0.561,-0.742,-3.57,82.74,-79.65,1785099470775.0552
-0.846,-0.564,-0.744,0.52,83.47,-80.14,1785099470780.3909
-0.834,-0.559,-0.757,5.1,84.11,-80.72,1785099470790.9373
-0.818,-0.541,-0.781,7.72,85.39,-81.85,1785099470801.177
-0.796,-0.518,-0.79,6.16,87.41,-82.83,1785099470814.466
-0.782,-0.504,-0.774,1.19,88.66,-83.38,1785099470820.94
-0.774,-0.508,-0.756,-5.01,88.75,-83.38,1785099470830.782
-0.771,-0.527,-0.752,-9.4,88.14,-82.92,1785099470841.4841
-0.762,-0.563,-0.763,-10.35,87.92,-82.25,1785099470854.848
-0.743,-0.596,-0.769,-9.19,88.38,-82.43,1785099470860.638
-0.712,-0.596,-0.771,-8.27,89.08,-82.37,1785099470871.234
-0.673,-0.586,-0.794,-7.39,89.97,-81.64,1785099470881.533
-0.65,-0.568,-0.804,-7.69,90.95,-80.57,1785099470894.808
-0.641,-0.559,-0.805,-9.49,91.07,-78.92,1785099470900.817
-0.627,-0.561,-0.822,-12.18,91.01,-77.61,1785099470911.256
-0.618,-0.577,-0.818,-14.95,91.28,-77.46,1785099470924.352
-0.609,-0.592,-0.802,-16.97,91.31,-78.43,1785099470930.318
-0.582,-0.605,-0.806,-16.88,91.37,-79.47,1785099470940.8472
-0.545,-0.603,-0.811,-16.08,92.2,-80.02,1785099470951.2551
-0.511,-0.59,-0.83,-15.69,93.14,-79.9,1785099470964.712
-0.493,-0.573,-0.849,-16.72,94.3,-79.17,1785099470970.577
-0.479,-0.574,-0.843,-18.46,95.31,-78.43,1785099470981.172
-0.467,-0.584,-0.83,-20.14,95.34,-79.13,1785099470994.448
-0.456,-0.589,-0.806,-20.81,94.94,-80.11,1785099471000.5498
-0.43,-0.59,-0.795,-19.65,94.39,-80.39,1785099471010.867
-0.402,-0.578,-0.8,-17.61,93.94,-80.32,1785099471021.524
-0.374,-0.566,-0.807,-15.87,93.39,-79.68,1785099471034.93
-0.357,-0.551,-0.821,-14.62,92.78,-79.1,1785099471040.71
-0.331,-0.55,-0.845,-13.73,92.72,-78.34,1785099471051.39
-0.3,-0.551,-0.862,-14.19,93.39,-78.37,1785099471064.401
-0.282,-0.541,-0.844,-14.98,93.81,-78.68,1785099471070.4807
-0.262,-0.539,-0.814,-14.22,94.03,-78.1,1785099471080.9421
-0.231,-0.544,-0.793,-11.63,93.69,-77.06,1785099471091.561
-0.197,-0.549,-0.786,-7.9,92.78,-75.66,1785099471104.8179
-0.161,-0.546,-0.803,-4.15,92.04,-73.43,1785099471110.6738
-0.135,-0.545,-0.817,-1.92,91.98,-71.5,1785099471121.0789
-0.126,-0.532,-0.828,-2.69,91.28,-70.47,1785099471131.5278
-0.105,-0.511,-0.847,-7.2,90.18,-69.98,1785099471144.843
-0.083,-0.501,-0.837,-13.82,89.72,-70.04,1785099471150.927
-0.06,-0.5,-0.823,-19.41,89.18,-70.35,1785099471161.292
-0.042,-0.5,-0.793,-22.25,88.99,-70.16,1785099471174.459
-0.031,-0.514,-0.773,-21.12,88.6,-69.0,1785099471180.5042
-0.026,-0.528,-0.757,-17.3,88.53,-67.72,1785099471190.943
-0.02,-0.529,-0.767,-11.9,87.53,-66.23,1785099471201.7322
0.015,-0.519,-0.807,-7.93,86.49,-64.52,1785099471214.7388
0.053,-0.494,-0.832,-8.82,86.09,-63.66,1785099471220.6
0.078,-0.48,-0.837,-14.01,85.67,-63.17,1785099471231.0872
0.094,-0.481,-0.817,-21.49,84.99,-63.02,1785099471241.647
0.096,-0.477,-0.784,-28.11,83.77,-63.6,1785099471254.98
0.102,-0.461,-0.756,-31.01,82.49,-63.54,1785099471260.8408
0.122,-0.447,-0.757,-30.88,81.76,-62.9,1785099471271.162
0.144,-0.439,-0.755,-30.73,81.82,-62.35,1785099471284.592
0.159,-0.451,-0.754,-30.52,81.64,-61.92,1785099471290.56
0.17,-0.47,-0.755,-30.46,81.3,-61.62,1785099471301.111
0.183,-0.466,-0.736,-30.52,81.15,-60.46,1785099471314.334
0.207,-0.458,-0.706,-28.38,80.63,-58.57,1785099471320.2551
0.228,-0.441,-0.705,-24.14,79.1,-57.56,1785099471330.996
0.257,-0.41,-0.727,-20.87,77.7,-57.01,1785099471341.441
0.277,-0.392,-0.754,-20.75,76.33,-57.41,1785099471354.666
0.311,-0.37,-0.822,-26.7,74.37,-59.45,1785099471360.6348
0.336,-0.336,-0.837,-39.74,73.27,-62.38,1785099471371.125
0.341,-0.326,-0.814,-53.96,73.18,-64.64,1785099471384.394
0.325,-0.333,-0.745,-63.78,74.19,-66.01,1785099471390.7148
0.309,-0.343,-0.669,-63.33,74.62,-65.95,1785099471400.846
0.316,-0.327,-0.606,-51.94,74.47,-64.27,1785099471411.49
0.33,-0.299,-0.574,-32.62,73.92,-61.19,1785099471424.722
0.366,-0.284,-0.59,-12.39,73.79,-57.19,1785099471430.845
0.396,-0.268,-0.586,1.37,73.58,-54.38,1785099471441.108
0.407,-0.254,-0.58,7.45,71.5,-51.85,1785099471451.691
0.436,-0.23,-0.604,6.32,68.82,-48.31,1785099471464.9248
0.463,-0.209,-0.596,-0.34,66.87,-44.28,1785099471470.4158
0.456,-0.203,-0.554,-9.16,64.94,-40.07,1785099471481.1133
0.442,-0.208,-0.511,-15.69,62.84,-35.98,1785099471494.4219
0.436,-0.213,-0.477,-17.52,59.94,-32.44,1785099471500.313
0.455,-0.189,-0.435,-14.71,56.98,-28.78,1785099471510.963
0.504,-0.17,-0.446,-7.26,54.29,-24.87,1785099471521.3599
0.554,-0.155,-0.464,-0.61,52.74,-22.55,1785099471534.6619
0.57,-0.154,-0.462,2.81,51.21,-21.12,1785099471540.5388
0.568,-0.171,-0.465,4.03,49.07,-19.38,1785099471550.877
0.567,-0.187,-0.467,3.11,46.36,-17.61,1785099471561.3481
0.574,-0.189,-0.481,0.67,43.34,-16.57,1785099471574.636
0.592,-0.182,-0.497,-3.11,41.23,-16.17,1785099471580.491
0.6,-0.177,-0.477,-7.14,40.35,-16.33,1785099471590.83
0.604,-0.183,-0.435,-7.81,39.52,-16.54,1785099471601.4343
0.607,-0.195,-0.393,-2.5,37.84,-16.05,1785099471614.615
0.62,-0.193,-0.368,8.18,35.19,-14.5,1785099471620.597
0.643,-0.189,-0.369,21.85,32.5,-12.21,1785099471630.964
0.668,-0.188,-0.407,32.84,29.76,-10.62,1785099471641.5762
0.683,-0.172,-0.457,35.16,27.31,-10.62,1785099471654.798
0.683,-0.172,-0.457,28.78,25.45,-11.32,1785099471660.726
0.689,-0.156,-0.495,17.27,24.51,-11.6,1785099471671.2861
0.688,-0.155,-0.494,6.71,23.32,-10.9,1785099471684.623
0.684,-0.173,-0.443,2.2,20.75,-9.7,1785099471690.6172
0.671,-0.204,-0.384,4.18,17.37,-8.12,1785099471700.598
0.668,-0.217,-0.359,4.18,17.37,-8.12,1785099471710.941
0.691,-0.217,-0.384,10.99,14.25,-6.29,1785099471721.514
0.717,-0.193,-0.427,16.21,11.72,-5.43,1785099471734.905
0.731,-0.178,-0.475,16.88,10.1,-5.28,1785099471740.8618
0.729,-0.183,-0.485,11.87,9.0,-5.86,1785099471750.9062
0.713,-0.203,-0.469,4.06,6.99,-7.05,1785099471761.292
0.711,-0.224,-0.462,-2.59,4.27,-8.42,1785099471771.73
0.717,-0.231,-0.468,-6.07,1.4,-10.01,1785099471785.0251
0.729,-0.213,-0.486,-7.84,-0.92,-11.23,1785099471790.84
0.73,-0.193,-0.481,-9.16,-1.92,-12.05,1785099471800.895
0.715,-0.196,-0.457,-9.22,-2.66,-12.73,1785099471811.0771
0.7,-0.214,-0.438,-7.11,-4.12,-13.58,1785099471824.633
0.703,-0.235,-0.439,-1.37,-6.01,-13.92,1785099471830.3882
0.714,-0.249,-0.453,6.41,-7.6,-13.61,1785099471840.499
0.722,-0.243,-0.48,12.85,-8.88,-13.09,1785099471851.1062
0.733,-0.234,-0.516,16.3,-9.77,-12.27,1785099471861.597
0.736,-0.231,-0.543,15.9,-10.16,-11.87,1785099471874.851
0.731,-0.247,-0.558,13.52,-10.22,-12.18,1785099471880.814
0.722,-0.257,-0.548,10.01,-10.44,-11.9,1785099471891.317
0.722,-0.262,-0.531,10.01,-10.56,-10.01,1785099471904.64
0.724,-0.261,-0.513,14.65,-10.56,-7.9,1785099471910.6118
0.716,-0.249,-0.505,20.94,-10.86,-6.38,1785099471920.871
