ax,ay,az,gx,gy,gz,timestamp_ms
0.559,-0.587,-0.35,72.63,5.4,65.34,1785099554492.568
0.497,-0.617,-0.305,59.14,5.89,72.42,1785099554492.81
0.509,-0.652,-0.23,54.84,5.4,80.29,1785099554493.052
0.583,-0.686,-0.185,59.11,3.81,88.96,1785099554493.288
0.684,-0.717,-0.15,70.8,2.04,100.28,1785099554493.529
0.766,-0.761,-0.15,86.28,-0.95,114.99,1785099554493.776
0.796,-0.794,-0.225,99.03,-4.03,128.88,1785099554494.024
0.766,-0.781,-0.309,100.22,-7.51,140.81,1785099554494.262
0.727,-0.746,-0.392,87.65,-12.48,151.01,1785099554494.505
0.706,-0.717,-0.457,64.21,-16.24,158.54,1785099554494.7441
0.706,-0.717,-0.457,36.81,-18.16,164.65,1785099554494.975
0.724,-0.724,-0.447,13.4,-20.14,170.02,1785099554495.194
0.738,-0.803,-0.396,-1.68,-24.48,175.94,1785099554495.415
0.699,-0.909,-0.322,-3.88,-31.25,183.08,1785099554495.6318
0.649,-1.012,-0.298,-3.88,-31.25,183.08,1785099554495.8457
0.601,-1.067,-0.353,2.2,-37.32,189.12,1785099554496.0818
0.565,-1.051,-0.399,9.34,-40.65,195.47,1785099554496.3022
0.578,-1.037,-0.43,16.42,-43.18,202.73,1785099554496.5288
0.602,-1.027,-0.435,21.42,-45.41,206.98,1785099554496.757
0.598,-1.06,-0.402,26.15,-46.45,209.97,1785099554496.9768
0.559,-1.168,-0.361,34.27,-47.58,211.34,1785099554497.196
0.475,-1.242,-0.331,42.63,-48.8,208.41,1785099554497.4111
0.391,-1.249,-0.328,52.55,-47.52,207.16,1785099554497.626
0.35,-1.226,-0.405,63.75,-43.37,209.39,1785099554497.8408
0.333,-1.177,-0.491,69.28,-37.81,209.91,1785099554498.058
0.337,-1.169,-0.59,66.9,-33.05,206.58,1785099554498.2742
0.349,-1.143,-0.617,51.61,-26.76,200.66,1785099554498.496
0.335,-1.127,-0.541,29.82,-19.78,195.14,1785099554498.7148
0.301,-1.18,-0.451,12.15,-14.1,188.45,1785099554498.934
0.231,-1.246,-0.375,1.53,-11.17,180.94,1785099554499.147
0.19,-1.23,-0.304,-3.45,-12.18,179.91,1785099554499.365
0.174,-1.102,-0.279,-2.53,-12.91,182.2,1785099554499.588
0.219,-0.995,-0.314,-3.54,-11.47,186.65,1785099554499.823
0.183,-0.879,-0.304,-15.35,-10.96,183.45,1785099554500.051
0.129,-0.932,-0.271,-33.36,-12.85,180.76,1785099554500.309
0.068,-1.098,-0.259,-51.7,-17.49,173.16,1785099554500.528
-0.028,-1.263,-0.224,-64.06,-23.35,163.61,1785099554500.741
-0.066,-1.363,-0.186,-61.07,-28.69,159.92,1785099554500.9812
-0.086,-1.358,-0.196,-42.97,-31.1,158.06,1785099554501.205
-0.096,-1.236,-0.235,-17.52,-30.0,153.36,1785099554501.485
-0.114,-1.123,-0.322,2.23,-28.44,150.55,1785099554501.7358
-0.096,-1.006,-0.381,10.74,-24.78,148.32,1785099554501.962
-0.178,-0.915,-0.43,2.96,-24.75,144.17,1785099554502.1792
-0.197,-0.937,-0.437,-15.96,-27.22,145.45,1785099554502.3967
-0.238,-1.033,-0.395,-35.86,-25.09,137.85,1785099554502.6492
-0.324,-1.161,-0.376,-55.33,-22.95,127.14,1785099554502.885
-0.368,-1.186,-0.328,-72.33,-23.96,121.8,1785099554503.1208
-0.364,-1.126,-0.262,-78.49,-24.69,121.4,1785099554503.343
-0.336,-1.054,-0.276,-77.67,-25.12,121.4,1785099554503.551
-0.392,-0.952,-0.331,-83.16,-28.29,118.23,1785099554503.764
-0.376,-0.856,-0.351,-93.72,-32.11,118.17,1785099554503.9758
-0.428,-0.79,-0.385,-100.65,-31.37,112.95,1785099554504.1821
-0.461,-0.852,-0.431,-104.56,-32.99,112.98,1785099554504.4092
-0.468,-0.914,-0.435,-109.35,-35.55,109.93,1785099554504.644
-0.548,-0.904,-0.41,-110.66,-34.42,102.76,1785099554504.862
-0.557,-0.937,-0.386,-103.73,-33.88,104.68,1785099554505.086
-0.587,-0.933,-0.339,-89.88,-34.88,105.47,1785099554505.3171
-0.588,-0.921,-0.321,-71.02,-35.62,106.02,1785099554505.5317
-0.635,-0.872,-0.304,-51.76,-35.68,103.73,1785099554505.7358
-0.666,-0.845,-0.296,-32.23,-35.71,103.98,1785099554505.9478
-0.655,-0.818,-0.298,-14.95,-36.87,103.64,1785099554506.16
-0.691,-0.758,-0.31,-3.85,-38.06,100.65,1785099554506.3691
-0.711,-0.724,-0.339,1.8,-39.67,101.05,1785099554506.572
-0.733,-0.732,-0.365,1.95,-40.65,100.01,1785099554506.785
-0.766,-0.713,-0.376,-2.2,-41.11,96.44,1785099554506.994
-0.786,-0.713,-0.376,-6.47,-41.02,94.82,1785099554507.193
-0.795,-0.718,-0.384,-10.99,-41.17,94.15,1785099554507.4128
-0.793,-0.698,-0.383,-16.33,-41.11,93.78,1785099554507.62
-0.78,-0.666,-0.382,-20.08,-39.19,91.13,1785099554507.8242
-0.806,-0.644,-0.407,-24.05,-37.11,86.58,1785099554508.0352
-0.841,-0.642,-0.418,-30.46,-36.23,83.9,1785099554508.255
-0.861,-0.634,-0.411,-37.39,-35.83,82.13,1785099554508.45
-0.858,-0.633,-0.391,-39.89,-33.94,81.61,1785099554508.644
-0.843,-0.623,-0.35,-34.21,-29.57,79.26,1785099554508.843
-0.842,-0.614,-0.329,-22.13,-26.22,75.23,1785099554509.045
-0.84,-0.598,-0.333,-9.7,-24.6,70.83,1785099554509.239
-0.846,-0.584,-0.338,-0.03,-22.74,67.42,1785099554509.433
-0.855,-0.569,-0.353,5.95,-20.63,65.71,1785099554509.629
-0.863,-0.558,-0.375,8.18,-18.46,65.74,1785099554509.8318
-0.866,-0.54,-0.384,7.32,-16.33,66.19,1785099554510.018
-0.868,-0.513,-0.387,4.3,-14.71,65.13,1785099554510.2249
-0.87,-0.496,-0.384,0.82,-13.06,62.47,1785099554510.4219
-0.873,-0.489,-0.361,-1.74,-12.02,59.54,1785099554510.616
-0.874,-0.496,-0.336,-1.56,-11.44,56.86,1785099554510.836
-0.882,-0.469,-0.313,-1.13,-11.6,55.42,1785099554511.028
-0.863,-0.433,-0.289,-2.26,-12.3,56.58,1785099554511.2178
-0.85,-0.428,-0.294,-0.82,-11.84,55.57,1785099554511.4019
-0.87,-0.436,-0.323,4.36,-10.83,52.92,1785099554511.5918
-0.879,-0.473,-0.336,11.69,-10.41,50.97,1785099554511.785
-0.872,-0.475,-0.339,15.81,-10.28,46.85,1785099554511.971
-0.867,-0.45,-0.33,17.73,-9.09,42.97,1785099554512.164
-0.865,-0.44,-0.323,21.33,-6.59,40.62,1785099554512.3572
-0.885,-0.437,-0.331,24.48,-4.46,38.3,1785099554512.548
-0.896,-0.426,-0.328,24.84,-3.85,37.81,1785099554512.733
-0.887,-0.422,-0.321,24.9,-3.78,38.27,1785099554512.924
-0.854,-0.402,-0.326,24.57,-2.2,35.04,1785099554513.116
-0.9,-0.362,-0.332,19.81,-3.33,30.3,1785099554513.3052
-0.886,-0.381,-0.311,15.26,-4.3,30.82,1785099554513.53
-0.872,-0.41,-0.301,14.01,-3.78,29.24,1785099554513.738
-0.872,-0.41,-0.303,14.04,-4.39,26.15,1785099554513.928
-0.866,-0.405,-0.305,14.71,-4.97,23.87,1785099554514.111
-0.87,-0.402,-0.312,14.65,-4.58,21.55,1785099554514.2988
-0.875,-0.394,-0.31,13.4,-3.81,19.47,1785099554514.509
-0.882,-0.394,-0.312,12.33,-3.2,17.55,1785099554514.7048
-0.882,-0.391,-0.31,11.23,-3.11,16.08,1785099554514.89
-0.876,-0.384,-0.302,9.7,-2.78,14.89,1785099554515.0771
-0.865,-0.388,-0.299,8.21,-1.98,14.1,1785099554515.2632
-0.859,-0.391,-0.292,7.05,-1.22,11.87,1785099554515.4402
-0.863,-0.396,-0.286,7.2,-0.92,9.55,1785099554515.6199
-0.861,-0.392,-0.296,7.63,-0.79,8.12,1785099554515.806
-0.86,-0.379,-0.301,7.29,-0.61,7.02,1785099554515.9832
-0.861,-0.375,-0.3,6.59,-0.27,5.68,1785099554516.166
-0.864,-0.377,-0.298,5.89,0.18,4.0,1785099554516.345
-0.872,-0.382,-0.292,5.34,0.46,2.5,1785099554516.527
-0.876,-0.392,-0.279,5.19,0.21,1.71,1785099554516.703
-0.875,-0.389,-0.277,5.46,-0.4,0.82,1785099554516.881
-0.872,-0.378,-0.28,5.74,-0.49,0.09,1785099554517.0613
-0.869,-0.377,-0.277,5.46,-0.79,-0.79,1785099554517.237
-0.87,-0.378,-0.282,4.33,-0.92,-2.29,1785099554517.417
-0.866,-0.37,-0.28,2.41,-0.58,-2.93,1785099554517.598
-0.86,-0.362,-0.279,0.27,-0.64,-3.97,1785099554517.7769
-0.861,-0.358,-0.282,-2.38,-0.64,-5.28,1785099554517.951
-0.864,-0.353,-0.284,-5.55,-0.58,-6.41,1785099554518.1272
-0.869,-0.353,-0.278,-7.32,-0.89,-7.48,1785099554518.306
-0.867,-0.364,-0.28,-6.74,-0.76,-8.18,1785099554518.482
-0.876,-0.359,-0.267,-4.82,-0.27,-9.03,1785099554518.6611
-0.88,-0.34,-0.276,-2.17,-0.46,-9.25,1785099554518.839
-0.877,-0.338,-0.298,-0.95,0.15,-9.83,1785099554519.021
-0.884,-0.336,-0.304,-2.17,0.82,-10.83,1785099554519.201
-0.882,-0.339,-0.296,-4.24,0.98,-11.38,1785099554519.382
-0.881,-0.358,-0.285,-6.38,0.73,-12.24,1785099554519.564
-0.883,-0.361,-0.274,-8.94,-0.37,-11.99,1785099554519.746
-0.875,-0.364,-0.264,-10.13,-0.73,-10.86,1785099554519.927
-0.87,-0.363,-0.277,-9.98,-0.89,-10.53,1785099554520.109
-0.871,-0.347,-0.3,-10.62,-0.52,-10.56,1785099554520.286
-0.878,-0.325,-0.312,-12.18,-0.46,-10.01,1785099554520.459
-0.874,-0.315,-0.315,-14.07,-0.4,-9.8,1785099554520.6343
-0.878,-0.323,-0.303,-14.4,0.12,-10.16,1785099554520.8142
-0.883,-0.334,-0.284,-13.0,-0.24,-10.32,1785099554520.992
-0.883,-0.334,-0.284,-9.86,-1.28,-9.52,1785099554521.163
-0.885,-0.336,-0.263,-6.01,-2.56,-8.18,1785099554521.337
-0.885,-0.333,-0.254,-3.33,-3.11,-7.17,1785099554521.5098
-0.881,-0.33,-0.276,-3.17,-2.93,-6.99,1785099554521.6838
-0.881,-0.33,-0.293,-3.17,-2.93,-6.99,1785099554521.853
-0.884,-0.342,-0.304,-5.34,-2.81,-7.39,1785099554522.0261
-0.884,-0.357,-0.307,-8.36,-2.08,-7.66,1785099554522.2012
-0.891,-0.363,-0.297,-10.28,-1.34,-7.42,1785099554522.3733
-0.892,-0.366,-0.296,-9.95,-0.89,-6.32,1785099554522.547
-0.891,-0.363,-0.303,-8.45,-0.46,-5.92,1785099554522.7202
-0.895,-0.345,-0.306,-7.48,-0.31,-5.46,1785099554522.891
-0.892,-0.332,-0.309,-7.51,-0.24,-4.52,1785099554523.0588
-0.888,-0.325,-0.307,-9.0,-0.34,-4.09,1785099554523.232
-0.887,-0.319,-0.3,-11.96,-1.01,-4.15,1785099554523.4072
-0.887,-0.312,-0.304,-16.11,-1.77,-3.57,1785099554523.577
-0.883,-0.31,-0.303,-20.72,-1.89,-2.62,1785099554523.753
-0.882,-0.311,-0.3,-24.26,-2.04,-1.92,1785099554523.927
-0.88,-0.325,-0.303,-25.73,-1.83,-1.77,1785099554524.1038
-0.874,-0.345,-0.303,-24.2,-1.19,-1.77,1785099554524.275
-0.868,-0.381,-0.306,-18.01,-0.06,-2.41,1785099554524.4531
-0.879,-0.394,-0.307,-10.25,0.61,-3.2,1785099554524.6301
-0.887,-0.377,-0.311,-3.17,1.07,-2.47,1785099554524.802
-0.884,-0.361,-0.314,2.17,1.83,-1.1,1785099554524.976
-0.876,-0.345,-0.312,3.97,2.2,-0.7,1785099554525.149
-0.871,-0.33,-0.313,3.3,1.86,-0.73,1785099554525.32
-0.868,-0.321,-0.315,1.34,1.8,-0.85,1785099554525.5881
-0.869,-0.312,-0.319,-1.4,1.43,-1.04,1785099554525.8062
-0.859,-0.305,-0.317,-4.58,1.34,-1.37,1785099554526.009
-0.863,-0.298,-0.309,-7.93,1.19,-2.26,1785099554526.1921
-0.863,-0.312,-0.305,-10.83,0.37,-2.23,1785099554526.382
-0.863,-0.326,-0.292,-12.09,-0.31,-2.84,1785099554526.591
-0.869,-0.324,-0.296,-10.86,0.21,-2.78,1785099554526.951
-0.868,-0.319,-0.311,-13.49,-0.09,-2.29,1785099554527.114
-0.912,-0.221,-0.322,-4.15,-1.04,-0.98,1785099554527.3962
-0.909,-0.224,-0.321,-3.11,-0.43,-1.28,1785099554527.5579
-0.909,-0.22,-0.321,-2.47,-0.03,-1.65,1785099554531.8442
-0.906,-0.218,-0.321,-2.2,0.46,-1.83,1785099554542.202
-0.901,-0.216,-0.317,-1.65,1.07,-2.14,1785099554552.51
-0.9,-0.215,-0.316,-1.04,1.56,-2.75,1785099554565.757
-0.903,-0.211,-0.311,-0.64,2.04,-3.42,1785099554571.12
-0.906,-0.212,-0.307,-0.27,2.32,-3.66,1785099554581.47
-0.909,-0.215,-0.301,0.15,2.69,-3.81,1785099554591.885
-0.914,-0.215,-0.298,0.7,3.02,-3.91,1785099554602.2908
-0.913,-0.212,-0.293,1.74,3.23,-3.57,1785099554612.649
-0.91,-0.219,-0.292,3.27,3.27,-3.05,1785099554625.8938
-0.912,-0.214,-0.291,3.72,3.23,-2.75,1785099554631.3237
-0.907,-0.213,-0.291,3.97,2.93,-1.98,1785099554641.629
-0.902,-0.211,-0.29,3.48,2.56,-1.46,1785099554652.0122
-0.896,-0.21,-0.292,2.62,2.14,-1.07,1785099554662.387
-0.889,-0.208,-0.29,1.65,2.01,-0.73,1785099554672.79
-0.886,-0.211,-0.284,1.31,1.59,-0.37,1785099554686.14
-0.884,-0.21,-0.277,1.01,1.04,0.06,1785099554691.5122
-0.885,-0.213,-0.274,0.85,0.37,0.52,1785099554701.7788
-0.885,-0.211,-0.271,0.49,-0.31,1.04,1785099554712.0781
-0.886,-0.209,-0.272,-0.03,-1.04,1.4,1785099554722.536
-0.892,-0.21,-0.272,-0.64,-1.5,1.56,1785099554733.1682
-0.899,-0.208,-0.267,-1.22,-1.65,1.56,1785099554746.316
-0.907,-0.207,-0.256,-1.65,-1.95,1.68,1785099554752.099
-0.917,-0.204,-0.245,-1.65,-2.38,1.65,1785099554761.96
-0.932,-0.203,-0.234,-1.37,-2.72,1.53,1785099554772.388
-0.941,-0.201,-0.227,-1.19,-2.35,1.34,1785099554783.297
-0.946,-0.188,-0.217,-1.5,-1.8,1.34,1785099554793.11
-0.947,-0.169,-0.208,-1.92,-2.14,1.95,1785099554806.3518
-0.939,-0.138,-0.203,-3.6,-3.17,3.78,1785099554812.002
-0.916,-0.119,-0.209,-5.77,-4.91,6.13,1785099554822.039
-0.905,-0.109,-0.22,-10.16,-6.35,7.51,1785099554833.006
-0.906,-0.092,-0.23,-17.76,-7.87,9.09,1785099554842.973
-0.902,-0.078,-0.233,-27.31,-9.58,11.47,1785099554856.4438
-0.899,-0.099,-0.249,-37.02,-11.11,12.88,1785099554862.139
-0.913,-0.086,-0.261,-50.69,-12.45,13.67,1785099554872.6243
-0.923,-0.083,-0.259,-64.82,-14.28,15.44,1785099554886.156
-0.934,-0.11,-0.261,-76.78,-16.42,16.05,1785099554891.8
-0.949,-0.113,-0.258,-88.93,-18.68,15.81,1785099554902.34
-0.955,-0.125,-0.249,-97.57,-21.06,16.51,1785099554913.03
-0.956,-0.162,-0.247,-99.64,-23.32,16.79,1785099554926.187
-0.962,-0.191,-0.248,-96.32,-25.36,16.42,1785099554931.78
-0.976,-0.202,-0.248,-89.05,-27.19,16.39,1785099554942.7268
-0.982,-0.206,-0.253,-78.74,-28.5,16.85,1785099554955.9172
-0.985,-0.208,-0.254,-67.48,-28.99,17.09,1785099554961.8052
-0.968,-0.22,-0.264,-56.7,-29.45,16.79,1785099554972.273
-0.988,-0.199,-0.254,-46.66,-28.44,14.62,1785099554983.183
-0.993,-0.227,-0.267,-34.21,-26.95,14.98,1785099554996.272
-0.989,-0.249,-0.268,-24.26,-29.11,12.88,1785099555002.26
-0.955,-0.273,-0.253,-13.31,-29.79,9.77,1785099555012.625
-0.933,-0.284,-0.267,0.64,-28.11,7.45,1785099555023.114
-0.928,-0.263,-0.286,15.81,-26.46,7.51,1785099555036.641
-0.928,-0.257,-0.307,31.43,-24.14,8.76,1785099555041.91
-0.923,-0.264,-0.33,44.62,-20.97,8.76,1785099555052.5608
-0.908,-0.268,-0.337,54.45,-17.88,7.81,1785099555063.134
-0.884,-0.275,-0.333,62.99,-14.98,6.9,1785099555076.3572
-0.864,-0.276,-0.332,71.08,-12.54,5.71,1785099555082.513
-0.849,-0.257,-0.342,77.39,-10.9,5.04,1785099555092.535
-0.845,-0.22,-0.357,79.38,-9.31,4.52,1785099555103.005
-0.841,-0.19,-0.374,75.93,-7.72,3.36,1785099555119.642
-0.84,-0.157,-0.381,67.45,-5.92,0.64,1785099555121.8838
-0.839,-0.159,-0.397,56.7,-4.94,0.09,1785099555132.125
-0.818,-0.179,-0.417,46.24,-2.29,0.43,1785099555143.992
-0.834,-0.178,-0.435,34.49,0.03,-1.07,1785099555153.1628
-0.845,-0.183,-0.439,21.55,1.07,-1.04,1785099555166.469
-0.847,-0.207,-0.436,9.49,1.53,-0.15,1785099555172.149
-0.846,-0.235,-0.422,0.82,2.26,-0.52,1785099555182.171
-0.855,-0.27,-0.414,-1.95,4.06,-0.49,1785099555192.499
-0.879,-0.289,-0.418,-0.73,5.34,0.34,1785099555202.877
-0.903,-0.273,-0.426,0.89,5.52,2.29,1785099555216.5771
-0.912,-0.226,-0.466,-0.58,5.68,5.28,1785099555221.7742
-0.92,-0.183,-0.498,-7.42,7.45,8.03,1785099555231.812
-0.932,-0.176,-0.522,-19.62,10.47,9.55,1785099555242.372
-0.954,-0.19,-0.512,-35.52,13.79,9.28,1785099555252.9521
-0.974,-0.215,-0.483,-50.66,16.36,8.03,1785099555266.195
-0.974,-0.256,-0.459,-61.04,18.19,6.23,1785099555271.91
-0.977,-0.294,-0.455,-66.71,18.95,3.23,1785099555282.465
-0.98,-0.31,-0.453,-68.79,19.56,0.06,1785099555292.9092
-0.982,-0.317,-0.458,-65.77,21.03,-3.81,1785099555306.148
-0.979,-0.338,-0.479,-57.62,23.83,-9.34,1785099555312.072
-0.979,-0.338,-0.479,-48.77,26.98,-16.57,1785099555322.4548
-0.99,-0.306,-0.505,-45.87,29.6,-20.26,1785099555333.2168
-1.006,-0.21,-0.536,-50.66,32.96,-22.86,1785099555346.407
-0.955,-0.282,-0.543,-52.58,35.68,-31.62,1785099555352.418
-0.933,-0.327,-0.539,-46.94,38.3,-37.32,1785099555362.867
-0.921,-0.357,-0.538,-46.94,38.3,-37.32,1785099555376.06
-0.9,-0.33,-0.55,-37.14,41.9,-39.61,1785099555381.8108
-0.902,-0.287,-0.563,-31.16,45.99,-41.23,1785099555392.524
-0.909,-0.265,-0.572,-30.67,49.81,-43.79,1785099555405.808
-0.909,-0.258,-0.558,-33.69,53.44,-45.35,1785099555411.7273
-0.899,-0.277,-0.542,-35.0,56.83,-45.78,1785099555422.282
-0.882,-0.3,-0.554,-31.95,59.91,-46.02,1785099555432.9788
-0.871,-0.299,-0.594,-27.41,63.02,-45.69,1785099555446.595
-0.874,-0.292,-0.636,-24.81,66.65,-44.71,1785099555452.3142
-0.883,-0.293,-0.662,-24.29,70.96,-43.58,1785099555462.609
-0.904,-0.303,-0.662,-24.05,74.89,-42.48,1785099555475.9512
-0.937,-0.311,-0.622,-22.68,78.07,-40.99,1785099555481.7979
-0.975,-0.317,-0.567,-17.3,80.2,-38.0,1785099555492.388
-1.002,-0.312,-0.528,-8.51,81.51,-32.5,1785099555502.8638
-1.021,-0.292,-0.506,-0.31,81.88,-26.0,1785099555516.756
-1.034,-0.291,-0.504,5.07,81.51,-20.69,1785099555521.8352
-1.024,-0.327,-0.538,7.6,82.28,-17.03,1785099555532.324
-0.999,-0.367,-0.569,7.26,84.96,-15.78,1785099555542.8413
-0.968,-0.389,-0.576,6.13,88.53,-15.32,1785099555556.08
-0.937,-0.412,-0.558,6.26,91.53,-16.27,1785099555561.933
-0.91,-0.433,-0.541,7.75,93.05,-19.99,1785099555572.29
-0.889,-0.43,-0.522,10.68,93.45,-26.18,1785099555583.124
-0.888,-0.407,-0.512,15.9,92.41,-33.75,1785099555596.246
-0.9,-0.369,-0.535,23.01,90.76,-42.45,1785099555602.208
-0.919,-0.313,-0.583,29.33,89.69,-51.0,1785099555612.602
-0.949,-0.266,-0.622,33.08,89.88,-58.08,1785099555625.875
-0.965,-0.282,-0.662,35.07,90.12,-64.42,1785099555631.8562
-0.971,-0.327,-0.692,34.58,90.03,-71.69,1785099555642.3318
-0.97,-0.363,-0.728,33.17,89.79,-76.17,1785099555653.016
-0.969,-0.4,-0.785,31.83,89.51,-77.55,1785099555666.255
-0.964,-0.427,-0.828,27.74,89.75,-78.04,1785099555672.2468
-0.941,-0.437,-0.855,20.87,90.24,-77.67,1785099555682.9473
-0.893,-0.437,-0.883,12.24,91.01,-76.05,1785099555696.1228
-0.846,-0.44,-0.912,2.04,91.37,-73.73,1785099555701.942
-0.808,-0.449,-0.955,-9.74,91.77,-72.36,1785099555712.189
-0.793,-0.451,-0.981,-22.28,93.05,-72.3,1785099555722.893
-0.792,-0.449,-0.998,-32.2,95.22,-72.51,1785099555736.2822
-0.799,-0.464,-0.973,-36.1,98.94,-72.39,1785099555742.075
-0.794,-0.499,-0.931,-31.98,103.0,-72.57,1785099555752.863
-0.776,-0.546,-0.915,-22.1,107.06,-73.92,1785099555766.2468
-0.765,-0.574,-0.925,-11.96,110.63,-76.05,1785099555771.893
-0.752,-0.581,-0.958,-4.58,113.71,-76.82,1785099555782.818
-0.758,-0.558,-0.981,-1.77,116.21,-76.66,1785099555795.765
-0.765,-0.53,-0.992,-1.68,117.86,-76.85,1785099555801.7861
-0.771,-0.518,-0.995,-1.83,118.78,-78.34,1785099555812.0562
-0.763,-0.502,-0.997,-2.56,118.87,-80.9,1785099555822.857
-0.734,-0.499,-1.001,-3.08,119.79,-82.37,1785099555836.264
-0.712,-0.508,-1.002,-4.12,120.98,-82.19,1785099555842.133
-0.693,-0.512,-1.005,-8.36,121.68,-81.03,1785099555852.619
-0.669,-0.525,-0.984,-14.86,121.86,-80.39,1785099555865.865
-0.648,-0.523,-0.974,-22.03,121.34,-80.26,1785099555871.584
-0.64,-0.494,-0.965,-29.08,120.24,-79.2,1785099555882.7952
-0.6,-0.491,-0.949,-32.07,120.37,-77.76,1785099555895.781
-0.587,-0.475,-0.929,-31.92,123.02,-80.6,1785099555901.7798
-0.579,-0.482,-0.94,-30.64,122.04,-79.93,1785099555912.3381
-0.548,-0.484,-0.943,-30.03,120.18,-77.36,1785099555925.813
-0.508,-0.472,-0.918,-27.01,123.08,-75.35,1785099555931.6868
-0.49,-0.472,-0.904,-20.72,129.34,-75.32,1785099555942.514
-0.495,-0.47,-0.917,-17.58,129.31,-76.17,1785099555955.7603
-0.477,-0.454,-0.913,-20.36,126.62,-75.41,1785099555961.677
-0.441,-0.431,-0.892,-24.87,125.43,-73.43,1785099555972.467
-0.41,-0.4,-0.869,-28.29,124.61,-70.96,1785099555985.6582
-0.372,-0.367,-0.828,-29.18,124.21,-68.91,1785099555991.4292
-0.342,-0.333,-0.787,-27.95,124.0,-68.73,1785099556002.44
-0.317,-0.299,-0.744,-25.09,124.18,-67.63,1785099556013.176
-0.297,-0.286,-0.715,-20.11,124.42,-64.42,1785099556026.466
-0.272,-0.29,-0.705,-13.82,123.2,-59.3,1785099556032.401
-0.244,-0.283,-0.71,-8.82,120.33,-53.5,1785099556043.0642
-0.206,-0.268,-0.714,-4.88,117.74,-46.66,1785099556056.3042
-0.165,-0.256,-0.702,-2.17,115.57,-39.92,1785099556062.0852
-0.12,-0.271,-0.696,0.21,112.74,-34.7,1785099556072.741
-0.089,-0.292,-0.673,1.07,109.44,-32.04,1785099556086.187
-0.074,-0.3,-0.644,1.86,106.42,-29.88,1785099556091.913
-0.056,-0.298,-0.635,3.63,103.0,-26.52,1785099556102.47
-0.034,-0.284,-0.628,5.1,98.88,-23.87,1785099556112.9758
-0.017,-0.258,-0.626,4.61,95.65,-23.68,1785099556126.2368
0.005,-0.238,-0.621,1.46,93.63,-25.61,1785099556132.0598
0.042,-0.254,-0.616,-2.96,91.83,-29.21,1785099556142.4639
0.067,-0.258,-0.613,-9.13,89.48,-34.49,1785099556152.986
0.087,-0.24,-0.584,-15.2,86.15,-37.6,1785099556166.88
0.115,-0.214,-0.554,-18.13,81.91,-37.39,1785099556171.839
0.147,-0.191,-0.557,-17.46,77.73,-35.89,1785099556182.82
0.183,-0.19,-0.585,-15.72,74.74,-34.58,1785099556195.916
0.193,-0.198,-0.6,-16.63,71.84,-34.24,1785099556201.92
0.186,-0.189,-0.599,-20.08,68.61,-33.36,1785099556212.372
0.194,-0.19,-0.601,-23.01,65.55,-29.27,1785099556223.051
0.245,-0.228,-0.587,-23.47,63.91,-25.61,1785099556236.4932
0.281,-0.257,-0.561,-23.93,61.68,-24.41,1785099556242.2231
0.298,-0.257,-0.525,-22.58,58.63,-22.31,1785099556252.7969
0.305,-0.232,-0.505,-18.31,54.69,-19.68,1785099556266.1812
0.309,-0.189,-0.527,-12.91,50.42,-17.37,1785099556271.9512
0.344,-0.165,-0.595,-9.8,47.46,-15.63,1785099556282.433
0.386,-0.159,-0.655,-14.04,46.02,-16.69,1785099556293.021
0.4,-0.161,-0.673,-24.81,44.74,-18.95,1785099556306.232
0.392,-0.174,-0.646,-35.86,43.37,-19.56,1785099556312.171
0.375,-0.204,-0.592,-40.89,41.6,-18.49,1785099556322.743
0.36,-0.231,-0.552,-37.11,38.88,-16.11,1785099556336.083
0.374,-0.247,-0.535,-25.51,36.04,-12.85,1785099556341.812
0.405,-0.244,-0.565,-10.8,33.23,-10.01,1785099556352.517
0.45,-0.247,-0.62,1.53,32.01,-7.97,1785099556362.9
0.471,-0.224,-0.669,6.56,31.04,-7.72,1785099556376.1138
0.466,-0.198,-0.692,6.26,29.85,-5.98,1785099556382.029
0.444,-0.197,-0.683,3.48,28.17,-2.56,1785099556392.058
0.444,-0.208,-0.674,1.04,26.15,1.37,1785099556402.517
0.471,-0.242,-0.661,0.82,24.78,3.17,1785099556412.991
0.498,-0.27,-0.644,0.89,23.41,1.46,1785099556426.2432
0.519,-0.289,-0.643,1.53,21.85,-1.34,1785099556432.093
0.529,-0.301,-0.647,2.08,20.2,-3.39,1785099556442.143
0.531,-0.304,-0.664,2.08,18.74,-4.97,1785099556452.747
0.515,-0.305,-0.664,1.65,17.7,-7.63,1785099556463.1738
0.486,-0.267,-0.666,-0.03,15.44,-10.35,1785099556476.516
0.485,-0.226,-0.684,-0.67,13.49,-10.16,1785099556482.411
0.504,-0.235,-0.692,-0.27,12.85,-9.7,1785099556492.4988
0.506,-0.252,-0.679,-1.31,12.85,-11.26,1785099556503.0662
0.502,-0.279,-0.651,-0.85,13.28,-12.21,1785099556516.433
0.506,-0.316,-0.633,2.62,12.7,-12.76,1785099556522.217
0.515,-0.333,-0.64,6.59,10.5,-14.07,1785099556532.6099
0.515,-0.327,-0.655,10.13,7.6,-15.72,1785099556543.03
0.509,-0.309,-0.666,12.54,4.73,-18.13,1785099556556.309
0.502,-0.283,-0.678,14.28,3.08,-21.45,1785099556562.155
0.486,-0.264,-0.678,16.85,3.36,-25.94,1785099556572.4868
0.469,-0.245,-0.664,20.45,4.85,-30.61,1785099556583.082
0.462,-0.237,-0.673,25.36,6.71,-34.36,1785099556596.271
0.463,-0.232,-0.69,28.47,8.45,-37.9,1785099556602.269
0.463,-0.232,-0.69,25.64,10.5,-41.93,1785099556612.624
0.47,-0.225,-0.738,13.67,15.2,-46.57,1785099556625.8582
0.476,-0.202,-0.791,-3.94,22.86,-51.55,1785099556633.0151
0.447,-0.185,-0.781,-16.17,30.7,-56.86,1785099556642.2278
0.407,-0.253,-0.724,-16.79,38.61,-64.33,1785099556652.916
0.37,-0.367,-0.66,-16.79,38.61,-64.33,1785099556666.368
0.313,-0.447,-0.564,-3.42,45.93,-73.12,1785099556672.0378
0.256,-0.478,-0.483,24.87,49.81,-79.29,1785099556682.698
0.221,-0.421,-0.446,61.98,50.6,-82.77,1785099556693.114
0.204,-0.307,-0.478,98.21,51.15,-83.68,1785099556706.323
0.2,-0.188,-0.531,121.07,53.25,-83.96,1785099556712.258
0.198,-0.117,-0.542,124.33,55.6,-86.86,1785099556722.9978
0.184,-0.094,-0.576,110.29,57.34,-92.62,1785099556736.3992
0.167,-0.125,-0.575,86.98,61.56,-98.97,1785099556742.1948
0.13,-0.214,-0.545,65.71,64.7,-104.98,1785099556752.909
0.122,-0.292,-0.534,51.58,65.95,-109.47,1785099556766.289
0.135,-0.33,-0.513,45.66,67.05,-110.32,1785099556771.828
0.128,-0.347,-0.481,48.04,67.75,-108.37,1785099556783.026
0.122,-0.345,-0.455,55.54,67.84,-104.19,1785099556796.08
0.14,-0.323,-0.422,66.04,67.38,-97.84,1785099556802.041
0.181,-0.287,-0.416,79.35,65.22,-90.43,1785099556812.6199
0.23,-0.24,-0.404,92.07,62.29,-82.31,1785099556826.0159
0.236,-0.195,-0.372,101.69,58.17,-74.07,1785099556831.807
0.205,-0.185,-0.358,107.7,53.56,-65.86,1785099556842.546
0.181,-0.237,-0.347,113.35,50.9,-58.23,1785099556855.783
0.175,-0.326,-0.327,121.68,49.84,-52.58,1785099556861.6782
0.203,-0.406,-0.307,134.59,49.04,-46.54,1785099556872.469
0.262,-0.448,-0.279,154.09,47.73,-35.98,1785099556885.835
0.345,-0.495,-0.233,183.72,44.43,-21.18,1785099556891.341
0.428,-0.583,-0.218,220.53,36.41,-8.7,1785099556902.4219
0.474,-0.659,-0.244,256.94,25.57,-0.46,1785099556912.759
0.494,-0.715,-0.366,282.75,14.4,7.51,1785099556926.2222
0.512,-0.526,-0.426,281.04,6.99,21.64,1785099556932.087
0.578,-0.351,-0.437,266.79,1.28,44.07,1785099556942.7158
0.653,-0.31,-0.487,242.13,-2.2,62.41,1785099556955.957
0.651,-0.335,-0.468,208.56,0.24,73.18,1785099556961.833
0.595,-0.415,-0.425,181.19,3.51,83.07,1785099556972.398
0.588,-0.439,-0.438,156.9,4.21,96.01,1785099556983.209
0.646,-0.391,-0.4,128.79,3.3,114.63,1785099556996.2937
0.759,-0.417,-0.286,101.57,-1.19,134.1,1785099557001.838
0.837,-0.535,-0.169,86.18,-6.23,148.72,1785099557012.817
0.807,-0.659,-0.083,81.97,-13.43,163.18,1785099557026.154
0.753,-0.746,-0.108,85.76,-22.55,182.81,1785099557032.1438
0.735,-0.782,-0.223,92.41,-30.76,204.14,1785099557042.906
0.752,-0.782,-0.341,94.27,-38.7,223.0,1785099557056.156
0.766,-0.803,-0.468,85.3,-47.88,236.98,1785099557061.685
0.727,-0.821,-0.558,64.12,-57.31,246.68,1785099557072.75
0.664,-0.859,-0.562,40.93,-66.26,255.47,1785099557086.175
0.628,-0.976,-0.571,26.95,-74.77,262.73,1785099557092.063
0.593,-1.1,-0.608,21.64,-81.33,266.49,1785099557102.8599
0.585,-1.184,-0.714,24.08,-84.93,269.23,1785099557116.3499
0.604,-1.208,-0.834,30.52,-83.44,271.61,1785099557122.0322
0.596,-1.19,-0.884,33.88,-78.52,272.71,1785099557132.994
0.552,-1.146,-0.873,27.86,-73.0,271.19,1785099557146.092
0.485,-1.118,-0.829,9.67,-68.79,267.56,1785099557151.89
0.416,-1.147,-0.761,-17.21,-66.5,261.64,1785099557163.7812
0.356,-1.292,-0.671,-43.09,-66.29,253.24,1785099557175.9382
0.291,-1.492,-0.591,-60.21,-68.39,242.13,1785099557181.469
0.315,-1.588,-0.545,-68.36,-75.87,236.61,1785099557192.394
0.302,-1.327,-0.523,-67.81,-81.48,227.91,1785099557205.9377
0.257,-1.033,-0.602,-67.57,-80.48,227.18,1785099557211.7979
0.25,-0.846,-0.758,-89.24,-85.63,231.73,1785099557222.5708
0.146,-0.668,-0.854,-142.67,-98.3,227.67,1785099557235.894
0.052,-0.626,-0.899,-207.59,-106.94,225.29,1785099557241.75
0.028,-0.75,-0.925,-260.51,-108.34,214.48,1785099557253.0889
-0.02,-1.062,-0.947,-284.01,-107.12,184.91,1785099557266.118
-0.114,-1.35,-0.902,-276.65,-108.28,153.39,1785099557272.1099
-0.255,-1.346,-0.78,-242.47,-112.4,142.19,1785099557285.982
-0.295,-1.088,-0.71,-188.79,-117.77,158.3,1785099557291.878
-0.232,-0.822,-0.732,-133.49,-118.53,174.69,1785099557303.1099
-0.267,-0.767,-0.767,-92.1,-111.91,171.88,1785099557316.6553
-0.275,-0.818,-0.825,-72.6,-112.67,162.27,1785099557321.987
-0.371,-0.814,-0.835,-70.74,-108.46,143.38,1785099557335.886
-0.467,-0.94,-0.789,-68.24,-99.64,126.9,1785099557341.687
-0.488,-1.206,-0.737,-47.91,-96.29,119.08,1785099557352.521
-0.526,-1.283,-0.619,-8.12,-92.1,112.67,1785099557363.146
-0.565,-1.201,-0.572,44.25,-88.11,116.67,1785099557376.5781
-0.494,-0.999,-0.609,89.14,-82.67,126.16,1785099557382.386
-0.492,-0.728,-0.705,102.66,-76.78,127.41,1785099557395.632
-0.497,-0.575,-0.791,78.92,-73.76,123.66,1785099557401.597
-0.554,-0.584,-0.846,30.0,-74.25,112.34,1785099557412.4548
-0.613,-0.644,-0.829,-24.14,-70.99,98.61,1785099557422.7632
-0.65,-0.739,-0.76,-63.91,-65.28,89.42,1785099557436.5251
-0.675,-0.8,-0.661,-81.42,-60.88,84.08,1785099557441.949
-0.703,-0.807,-0.58,-76.97,-59.3,82.34,1785099557452.657
-0.728,-0.788,-0.517,-57.19,-58.84,82.19,1785099557466.104
-0.736,-0.728,-0.459,-31.5,-58.72,79.29,1785099557471.562
-0.764,-0.676,-0.422,-4.21,-56.86,76.94,1785099557482.4163
-0.75,-0.642,-0.425,18.13,-59.21,75.93,1785099557493.061
-0.755,-0.573,-0.409,31.07,-60.4,73.43,1785099557506.2092
-0.756,-0.551,-0.45,39.52,-59.72,73.24,1785099557512.2139
-0.794,-0.586,-0.49,43.0,-57.65,69.8,1785099557522.775
-0.853,-0.573,-0.514,40.68,-54.93,65.46,1785099557536.203
-0.865,-0.55,-0.546,34.42,-51.12,64.82,1785099557541.949
-0.852,-0.532,-0.564,22.98,-46.66,62.32,1785099557552.521
-0.854,-0.54,-0.553,7.69,-42.33,53.87,1785099557563.0222
-0.851,-0.558,-0.517,-8.88,-41.38,43.43,1785099557576.257
-0.83,-0.573,-0.462,-20.45,-39.4,33.94,1785099557582.2458
-0.828,-0.562,-0.429,-25.45,-36.81,26.61,1785099557592.6777
-0.826,-0.542,-0.399,-25.48,-36.99,23.87,1785099557605.723
-0.814,-0.529,-0.38,-19.56,-38.94,24.02,1785099557611.5999
-0.812,-0.503,-0.383,-9.61,-40.99,24.75,1785099557622.2432
-0.809,-0.474,-0.411,1.53,-42.94,27.5,1785099557632.946
-0.805,-0.445,-0.448,11.32,-43.4,30.43,1785099557646.112
-0.806,-0.411,-0.485,17.52,-42.12,31.77,1785099557652.1047
-0.803,-0.377,-0.51,20.02,-39.31,31.95,1785099557662.532
-0.806,-0.351,-0.517,19.35,-36.13,31.71,1785099557673.177
-0.821,-0.328,-0.511,15.38,-33.91,31.86,1785099557686.475
-0.831,-0.31,-0.494,9.28,-32.78,33.42,1785099557692.396
-0.831,-0.296,-0.477,1.98,-31.59,35.55,1785099557702.78
-0.834,-0.275,-0.453,-6.47,-30.67,37.35,1785099557716.0771
-0.833,-0.265,-0.422,-15.29,-30.24,39.03,1785099557721.884
-0.838,-0.283,-0.402,-21.85,-29.54,39.09,1785099557732.248
-0.853,-0.289,-0.371,-26.58,-29.6,38.54,1785099557742.931
-0.867,-0.284,-0.342,-28.72,-31.16,39.31,1785099557756.2
-0.873,-0.297,-0.346,-27.62,-32.81,40.25,1785099557762.0962
-0.875,-0.339,-0.37,-25.21,-32.2,37.97,1785099557772.703
-0.88,-0.399,-0.405,-21.82,-29.08,31.59,1785099557786.1062
-0.881,-0.441,-0.42,-17.88,-24.35,23.68,1785099557791.837
-0.881,-0.464,-0.416,-13.55,-19.1,15.63,1785099557802.423
-0.886,-0.472,-0.395,-9.34,-15.08,7.93,1785099557812.833
-0.884,-0.47,-0.383,-4.79,-12.97,2.14,1785099557826.2021
-0.891,-0.444,-0.387,-1.95,-11.9,-1.62,1785099557831.9412
-0.901,-0.408,-0.394,-0.46,-11.23,-3.45,1785099557842.0042
-0.902,-0.38,-0.406,1.13,-10.35,-4.33,1785099557852.4102
-0.892,-0.341,-0.414,1.34,-9.67,-3.75,1785099557862.9592
-0.871,-0.313,-0.419,0.7,-8.58,-0.98,1785099557876.092
-0.877,-0.306,-0.424,-1.71,-7.72,2.14,1785099557881.731
-0.862,-0.304,-0.432,-6.71,-9.31,5.25,1785099557891.7297
-0.862,-0.304,-0.432,-12.02,-8.64,6.62,1785099557902.2551
-0.835,-0.287,-0.418,-10.93,-3.45,8.45,1785099557912.4648
-0.813,-0.294,-0.38,-6.65,-2.41,10.5,1785099557925.968
-0.835,-0.3,-0.375,-4.88,-4.64,14.19,1785099557931.754
-0.848,-0.264,-0.339,-4.88,-4.64,14.19,1785099557941.88
-0.833,-0.253,-0.316,-0.64,-4.49,19.38,1785099557952.47
-0.837,-0.241,-0.311,2.9,-4.85,22.68,1785099557962.83
-0.84,-0.228,-0.306,4.36,-6.1,24.51,1785099557976.1091
-0.843,-0.225,-0.311,4.12,-6.44,25.39,1785099557982.063
-0.849,-0.236,-0.315,3.66,-6.65,26.03,1785099557991.999
-0.855,-0.249,-0.316,4.0,-7.11,26.49,1785099558002.501
-0.866,-0.25,-0.311,6.13,-7.23,27.38,1785099558012.9521
-0.876,-0.244,-0.309,10.01,-8.0,28.63,1785099558026.4102
-0.878,-0.232,-0.295,14.5,-8.94,29.21,1785099558032.23
-0.888,-0.218,-0.276,18.8,-10.65,29.3,1785099558042.523
-0.901,-0.217,-0.275,21.73,-13.34,29.69,1785099558053.162
-0.912,-0.219,-0.297,22.13,-16.36,29.82,1785099558066.5989
-0.906,-0.236,-0.332,20.2,-18.8,30.24,1785099558072.336
-0.9,-0.26,-0.357,17.09,-19.71,30.12,1785099558082.952
-0.905,-0.256,-0.37,12.51,-19.75,31.01,1785099558096.087
-0.88,-0.244,-0.386,5.28,-19.5,32.81,1785099558102.263
-0.858,-0.232,-0.379,-4.61,-18.34,31.65,1785099558112.3892
-0.854,-0.22,-0.36,-15.38,-16.72,29.6,1785099558122.967
-0.865,-0.225,-0.344,-25.94,-16.72,26.89,1785099558136.3762
-0.876,-0.235,-0.327,-36.07,-17.94,23.68,1785099558142.188
-0.863,-0.251,-0.319,-43.64,-18.89,21.52,1785099558152.673
-0.862,-0.274,-0.328,-47.91,-19.5,18.83,1785099558166.139
-0.886,-0.29,-0.342,-50.17,-19.38,16.14,1785099558171.931
-0.9,-0.303,-0.347,-51.03,-18.34,14.56,1785099558182.552
-0.903,-0.309,-0.335,-50.66,-16.69,12.73,1785099558193.0671
-0.914,-0.323,-0.3,-49.07,-16.33,10.41,1785099558206.443
-0.915,-0.343,-0.289,-47.73,-19.38,8.27,1785099558212.2612
-0.905,-0.351,-0.317,-48.65,-23.93,6.04,1785099558222.8423
-0.885,-0.328,-0.402,-52.46,-27.77,4.61,1785099558233.207
-0.853,-0.314,-0.521,-57.83,-27.65,3.51,1785099558246.52
-0.852,-0.334,-0.612,-63.94,-22.25,0.37,1785099558252.3489
-0.875,-0.372,-0.659,-70.28,-13.89,-4.79,1785099558262.588
-0.906,-0.399,-0.652,-76.27,-4.18,-9.89,1785099558272.969
-0.935,-0.416,-0.586,-80.2,5.04,-12.82,1785099558286.304
-0.949,-0.443,-0.503,-80.84,12.33,-14.98,1785099558292.199
-0.959,-0.464,-0.433,-78.65,16.48,-18.07,1785099558302.6938
-0.945,-0.481,-0.424,-72.63,18.46,-20.57,1785099558316.042
-0.924,-0.479,-0.457,-63.3,21.3,-23.13,1785099558321.87
-0.904,-0.451,-0.503,-51.06,25.67,-26.25,1785099558332.3
-0.888,-0.416,-0.533,-36.62,31.95,-30.03,1785099558343.096
-0.879,-0.388,-0.542,-21.06,38.85,-35.37,1785099558356.333
-0.883,-0.358,-0.545,-7.11,44.56,-41.11,1785099558362.209
-0.891,-0.335,-0.543,3.33,49.07,-45.38,1785099558372.608
-0.9,-0.344,-0.554,10.62,52.1,-48.65,1785099558385.959
-0.904,-0.368,-0.578,14.37,54.26,-52.67,1785099558391.743
-0.905,-0.379,-0.606,15.72,56.43,-55.45,1785099558402.294
-0.905,-0.372,-0.616,15.56,58.66,-56.25,1785099558412.898
-0.907,-0.354,-0.624,14.16,60.21,-56.06,1785099558426.292
-0.909,-0.342,-0.627,10.8,61.62,-55.64,1785099558432.23
-0.917,-0.346,-0.635,5.1,63.17,-56.09,1785099558442.51
-0.92,-0.351,-0.639,-3.11,64.52,-57.16,1785099558453.102
-0.925,-0.354,-0.656,-12.57,65.52,-58.23,1785099558466.403
-0.94,-0.348,-0.68,-23.1,66.53,-58.47,1785099558471.873
-0.949,-0.357,-0.694,-33.05,68.06,-57.77,1785099558482.83
-0.948,-0.388,-0.691,-41.08,69.46,-57.53,1785099558496.1182
-0.945,-0.434,-0.676,-46.82,70.38,-58.17,1785099558502.0908
-0.933,-0.485,-0.676,-49.59,71.17,-59.79,1785099558512.49
-0.914,-0.514,-0.694,-49.78,72.33,-62.2,1785099558523.2441
-0.901,-0.517,-0.726,-49.65,74.83,-64.73,1785099558536.485
-0.908,-0.497,-0.727,-51.0,78.89,-68.06,1785099558542.388
-0.925,-0.48,-0.703,-53.01,82.98,-72.3,1785099558552.875
-0.958,-0.474,-0.658,-54.48,86.89,-77.88,1785099558566.0757
-0.997,-0.482,-0.588,-54.26,89.02,-83.83,1785099558571.728
-1.002,-0.474,-0.573,-52.74,88.93,-87.8,1785099558582.596
-0.956,-0.463,-0.624,-48.77,90.82,-89.05,1785099558595.826
-0.924,-0.477,-0.692,-40.59,95.07,-90.06,1785099558601.412
-0.93,-0.502,-0.707,-28.75,99.89,-91.34,1785099558611.963
-0.938,-0.516,-0.691,-14.04,102.69,-91.16,1785099558622.7178
-0.933,-0.512,-0.699,1.46,104.25,-89.91,1785099558635.978
-0.928,-0.495,-0.697,14.71,106.6,-87.92,1785099558641.727
-0.923,-0.481,-0.683,24.96,107.64,-85.94,1785099558652.576
-0.903,-0.462,-0.722,30.4,106.63,-84.2,1785099558665.8308
-0.88,-0.447,-0.773,30.52,105.72,-82.13,1785099558672.131
-0.864,-0.444,-0.813,26.83,104.74,-79.87,1785099558682.58
-0.85,-0.441,-0.832,20.66,104.22,-76.97,1785099558695.77
-0.842,-0.448,-0.82,14.31,103.98,-73.37,1785099558701.617
-0.815,-0.457,-0.818,8.58,102.88,-70.31,1785099558712.76
-0.775,-0.45,-0.835,1.89,101.32,-67.96,1785099558725.9773
-0.749,-0.442,-0.836,-5.52,100.56,-66.1,1785099558731.9172
-0.737,-0.447,-0.835,-12.7,99.98,-65.74,1785099558742.4253
-0.733,-0.454,-0.837,-19.38,99.25,-66.04,1785099558753.0398
-0.718,-0.485,-0.87,-23.56,98.82,-66.59,1785099558766.45
-0.691,-0.505,-0.896,-25.76,99.31,-66.87,1785099558772.3
-0.663,-0.518,-0.89,-25.48,100.31,-65.65,1785099558782.91
-0.639,-0.532,-0.862,-22.95,101.17,-64.0,1785099558796.1228
-0.604,-0.539,-0.838,-18.95,101.29,-63.54,1785099558802.1497
-0.561,-0.525,-0.85,-14.89,101.08,-63.72,1785099558812.8408
-0.529,-0.491,-0.905,-13.76,100.99,-63.97,1785099558826.065
-0.501,-0.455,-0.975,-17.85,102.36,-64.18,1785099558832.0872
-0.495,-0.442,-0.997,-26.73,104.65,-64.88,1785099558842.823
-0.506,-0.465,-0.973,-36.13,106.11,-66.53,1785099558856.069
-0.526,-0.504,-0.916,-40.1,106.88,-67.6,1785099558861.982
-0.52,-0.53,-0.88,-36.41,107.33,-66.41,1785099558872.661
-0.495,-0.534,-0.875,-26.76,108.1,-63.63,1785099558886.0303
-0.465,-0.528,-0.875,-16.3,108.83,-60.82,1785099558891.9612
-0.42,-0.506,-0.902,-9.0,109.5,-59.66,1785099558902.73
-0.392,-0.476,-0.906,-5.58,110.48,-60.18,1785099558915.9832
-0.374,-0.45,-0.889,-6.59,110.26,-60.64,1785099558921.3882
-0.345,-0.437,-0.878,-10.8,108.8,-60.95,1785099558932.2441
-0.321,-0.442,-0.861,-15.29,107.33,-60.85,1785099558943.357
-0.297,-0.451,-0.857,-19.2,106.36,-60.06,1785099558956.438
-0.264,-0.455,-0.857,-21.64,106.14,-58.57,1785099558962.384
-0.242,-0.462,-0.86,-22.34,106.2,-56.98,1785099558973.155
-0.211,-0.464,-0.888,-23.8,105.53,-55.39,1785099558986.5908
-0.184,-0.455,-0.897,-28.72,105.04,-53.65,1785099558991.9731
-0.156,-0.444,-0.897,-36.04,104.13,-51.39,1785099559003.1382
-0.127,-0.442,-0.879,-41.93,103.34,-48.65,1785099559016.4558
-0.115,-0.449,-0.843,-43.12,103.0,-46.3,1785099559022.722
-0.113,-0.461,-0.815,-39.12,102.33,-46.17,1785099559033.213
-0.105,-0.456,-0.798,-32.11,100.96,-47.49,1785099559046.355
-0.074,-0.439,-0.797,-24.41,99.61,-47.36,1785099559052.3838
-0.029,-0.422,-0.829,-19.75,98.57,-47.21,1785099559062.72
0.007,-0.402,-0.866,-22.0,98.3,-47.36,1785099559076.0588
0.031,-0.396,-0.882,-28.9,97.93,-47.27,1785099559082.0742
0.039,-0.397,-0.883,-36.62,97.63,-48.13,1785099559092.545
0.047,-0.394,-0.862,-41.44,98.21,-49.2,1785099559103.199
0.043,-0.387,-0.822,-40.13,98.48,-49.23,1785099559116.6433
0.053,-0.374,-0.771,-32.93,97.99,-47.15,1785099559122.3792
0.089,-0.37,-0.784,-21.3,96.47,-44.04,1785099559133.0627
0.125,-0.364,-0.839,-11.17,96.01,-41.81,1785099559146.252
0.141,-0.344,-0.859,-7.9,96.38,-39.67,1785099559152.2368
0.159,-0.324,-0.876,-10.47,96.26,-37.84,1785099559162.529
0.179,-0.331,-0.869,-17.12,96.5,-36.01,1785099559173.18
0.179,-0.331,-0.869,-24.35,96.32,-33.51,1785099559186.393
0.194,-0.345,-0.829,-27.01,95.1,-30.21,1785099559192.336
0.213,-0.353,-0.783,-24.63,93.54,-26.76,1785099559202.9
0.234,-0.356,-0.741,-20.81,91.1,-23.83,1785099559216.1711
0.254,-0.33,-0.717,-17.46,88.63,-21.49,1785099559222.1172
0.285,-0.3,-0.694,-17.46,88.63,-21.49,1785099559232.4639
0.311,-0.283,-0.695,-16.72,86.0,-20.75,1785099559245.7832
0.333,-0.271,-0.711,-20.69,84.02,-21.79,1785099559251.769
0.342,-0.258,-0.686,-27.01,83.04,-23.16,1785099559262.2412
0.332,-0.244,-0.598,-30.49,81.91,-23.8,1785099559272.888
0.318,-0.199,-0.439,-26.18,79.1,-23.04,1785099559286.171
0.316,-0.128,-0.258,-10.8,72.97,-19.78,1785099559292.0918
0.37,-0.072,-0.192,14.07,66.04,-15.17,1785099559302.609
0.481,-0.137,-0.31,43.21,67.05,-15.35,1785099559316.0078
0.548,-0.315,-0.451,65.46,75.62,-27.86,1785099559321.822
0.517,-0.511,-0.483,76.94,80.6,-46.14,1785099559332.406
0.479,-0.644,-0.471,86.0,79.65,-56.58,1785099559342.935
0.463,-0.656,-0.478,96.47,76.78,-56.12,1785099559356.3972
0.452,-0.56,-0.492,108.8,73.61,-48.43,1785099559362.06
0.445,-0.429,-0.518,120.85,68.67,-39.64,1785099559372.8362
0.461,-0.312,-0.558,127.48,62.14,-33.3,1785099559386.245
0.468,-0.218,-0.579,126.1,56.79,-31.1,1785099559392.0332
0.454,-0.13,-0.59,118.35,52.55,-31.04,1785099559402.8262
0.448,-0.089,-0.589,106.27,48.89,-28.72,1785099559416.179
0.442,-0.094,-0.569,90.49,44.77,-27.07,1785099559422.009
0.442,-0.105,-0.556,72.02,39.64,-26.73,1785099559432.623
0.454,-0.116,-0.548,52.77,34.73,-26.37,1785099559445.823
