ax,ay,az,gx,gy,gz,timestamp_ms
0.601,-0.306,-0.741,40.13,16.94,-42.09,1785099604184.3728
0.601,-0.321,-0.743,46.6,19.71,-43.61,1785099604184.632
0.586,-0.325,-0.739,52.49,22.89,-45.41,1785099604184.938
0.57,-0.309,-0.724,57.07,25.06,-47.18,1785099604185.2422
0.557,-0.287,-0.714,60.3,25.85,-48.65,1785099604185.536
0.552,-0.262,-0.719,60.49,26.31,-49.9,1785099604185.8162
0.545,-0.248,-0.713,56.79,27.28,-51.36,1785099604186.07
0.533,-0.262,-0.706,51.7,29.15,-53.04,1785099604186.324
0.528,-0.28,-0.706,46.78,32.53,-55.12,1785099604186.566
0.528,-0.292,-0.696,44.19,37.42,-56.49,1785099604186.809
0.534,-0.297,-0.667,45.56,41.99,-56.55,1785099604187.053
0.546,-0.302,-0.636,50.33,45.08,-56.09,1785099604187.296
0.559,-0.312,-0.613,56.73,46.82,-56.28,1785099604187.5369
0.551,-0.301,-0.589,61.56,47.64,-57.07,1785099604187.785
0.516,-0.279,-0.569,64.42,47.82,-56.89,1785099604188.031
0.482,-0.267,-0.57,66.19,48.77,-56.31,1785099604188.274
0.466,-0.261,-0.562,66.23,51.09,-55.97,1785099604188.524
0.483,-0.255,-0.554,65.03,53.65,-55.85,1785099604188.7722
0.536,-0.255,-0.559,63.6,56.03,-56.31,1785099604189.018
0.586,-0.249,-0.535,61.37,58.23,-56.25,1785099604189.2559
0.597,-0.243,-0.489,59.14,59.45,-54.93,1785099604189.501
0.561,-0.239,-0.45,57.95,59.63,-52.86,1785099604189.7441
0.496,-0.237,-0.413,58.08,60.0,-50.39,1785099604189.9897
0.448,-0.233,-0.386,59.63,60.64,-47.82,1785099604190.238
0.44,-0.23,-0.372,62.65,61.37,-44.92,1785099604190.483
0.466,-0.224,-0.356,64.55,61.37,-42.24,1785099604190.7231
0.529,-0.211,-0.347,65.28,59.72,-39.92,1785099604190.969
0.596,-0.191,-0.336,64.24,56.86,-37.51,1785099604191.218
0.622,-0.165,-0.316,62.11,54.29,-33.27,1785099604191.458
0.599,-0.152,-0.296,60.76,52.77,-27.04,1785099604191.7021
0.548,-0.161,-0.292,60.98,52.28,-20.23,1785099604191.927
0.481,-0.17,-0.288,61.49,52.89,-13.7,1785099604192.1458
0.429,-0.178,-0.257,63.2,53.53,-7.2,1785099604192.3662
0.43,-0.208,-0.238,67.17,52.71,-0.73,1785099604192.587
0.495,-0.242,-0.249,70.5,51.03,4.3,1785099604192.802
0.586,-0.242,-0.263,71.11,48.8,8.85,1785099604193.023
0.667,-0.221,-0.257,70.16,45.17,14.92,1785099604193.2449
0.71,-0.198,-0.243,67.08,39.31,22.74,1785099604193.4668
0.7,-0.183,-0.223,61.43,32.75,32.07,1785099604193.686
0.634,-0.203,-0.189,54.14,26.34,42.09,1785099604193.9102
0.54,-0.237,-0.149,46.45,19.75,52.03,1785099604194.1309
0.47,-0.286,-0.116,41.81,13.03,61.65,1785099604194.352
0.439,-0.357,-0.095,42.85,6.2,70.59,1785099604194.5679
0.449,-0.439,-0.117,49.1,-0.73,78.13,1785099604194.789
0.517,-0.477,-0.201,56.92,-7.35,85.33,1785099604195.009
0.627,-0.449,-0.279,64.18,-11.63,95.95,1785099604195.2278
0.74,-0.391,-0.329,69.49,-16.27,111.67,1785099604195.4507
0.812,-0.348,-0.354,69.67,-22.49,128.91,1785099604195.677
0.792,-0.336,-0.342,62.9,-30.55,144.87,1785099604195.901
0.701,-0.379,-0.305,51.27,-39.52,158.39,1785099604196.1238
0.576,-0.469,-0.277,37.17,-49.53,167.67,1785099604196.3442
0.484,-0.533,-0.277,22.16,-60.06,173.71,1785099604196.5662
0.473,-0.59,-0.317,10.83,-70.19,179.42,1785099604196.791
0.508,-0.626,-0.395,2.38,-78.89,184.61,1785099604197.0452
0.541,-0.635,-0.447,-3.33,-86.34,190.44,1785099604197.2969
0.541,-0.662,-0.472,-4.76,-94.91,198.25,1785099604197.5469
0.5,-0.672,-0.487,-4.15,-105.56,207.68,1785099604197.8171
0.451,-0.65,-0.484,-1.01,-117.47,219.61,1785099604198.055
0.435,-0.66,-0.492,7.54,-128.79,232.55,1785099604198.2998
0.426,-0.735,-0.525,18.01,-137.61,240.7,1785099604198.538
0.391,-0.87,-0.588,26.22,-143.5,240.79,1785099604198.76
0.325,-1.027,-0.69,30.18,-146.79,234.02,1785099604198.9707
0.325,-1.027,-0.69,26.43,-148.5,227.55,1785099604199.1921
0.244,-1.086,-0.796,15.5,-149.17,231.12,1785099604199.414
0.179,-0.991,-0.845,2.32,-149.57,244.76,1785099604199.631
0.18,-0.848,-0.818,-11.17,-150.3,256.23,1785099604199.848
0.201,-0.725,-0.766,-21.58,-150.94,261.7,1785099604200.0662
0.196,-0.669,-0.72,-21.58,-150.94,261.7,1785099604200.285
0.151,-0.779,-0.699,-27.47,-151.19,259.8,1785099604200.5159
0.052,-0.985,-0.697,-34.42,-152.2,248.24,1785099604200.734
-0.06,-1.142,-0.722,-42.51,-154.45,233.8,1785099604200.958
-0.135,-1.184,-0.77,-47.64,-156.8,225.41,1785099604201.177
-0.144,-1.153,-0.808,-45.75,-158.27,225.62,1785099604201.3892
-0.12,-1.14,-0.833,-36.84,-158.76,228.19,1785099604201.607
-0.137,-1.135,-0.895,-29.48,-158.88,228.46,1785099604201.8271
-0.186,-1.108,-0.94,-29.45,-157.08,228.58,1785099604202.048
-0.225,-1.095,-0.954,-34.7,-153.81,224.34,1785099604202.283
-0.277,-1.135,-0.947,-42.18,-148.66,210.21,1785099604202.505
-0.379,-1.202,-0.889,-49.23,-142.86,193.82,1785099604202.728
-0.421,-1.259,-0.808,-45.96,-139.41,186.41,1785099604202.943
-0.421,-1.275,-0.768,-28.75,-139.62,183.26,1785099604203.155
-0.434,-1.264,-0.783,-5.04,-138.62,178.08,1785099604203.375
-0.49,-1.21,-0.804,10.38,-136.36,171.45,1785099604203.593
-0.539,-1.089,-0.79,11.41,-135.14,167.64,1785099604203.8
-0.521,-1.002,-0.782,6.1,-131.53,165.38,1785099604204.0068
-0.498,-0.933,-0.775,-4.0,-124.91,155.61,1785099604204.2173
-0.537,-0.867,-0.773,-19.2,-119.63,143.01,1785099604204.426
-0.566,-0.913,-0.791,-34.33,-117.65,136.78,1785099604204.629
-0.607,-0.969,-0.792,-50.81,-116.61,130.22,1785099604204.8398
-0.685,-0.981,-0.756,-64.3,-114.23,125.64,1785099604205.049
-0.721,-0.987,-0.714,-66.9,-112.0,126.16,1785099604205.254
-0.727,-0.936,-0.663,-56.09,-109.41,123.33,1785099604205.454
-0.726,-0.844,-0.642,-43.15,-106.27,116.25,1785099604205.663
-0.717,-0.802,-0.6,-35.34,-101.11,107.06,1785099604205.873
-0.735,-0.829,-0.561,-23.44,-97.84,97.78,1785099604206.071
-0.746,-0.849,-0.54,-8.33,-96.77,90.55,1785099604206.272
-0.77,-0.803,-0.529,6.01,-94.42,83.93,1785099604206.476
-0.786,-0.739,-0.522,17.88,-89.57,83.04,1785099604206.681
-0.791,-0.671,-0.534,22.89,-86.25,85.12,1785099604206.874
-0.796,-0.626,-0.527,19.53,-83.13,87.13,1785099604207.0771
-0.811,-0.611,-0.527,16.48,-80.02,87.19,1785099604207.2793
-0.831,-0.631,-0.529,15.14,-76.63,85.39,1785099604207.4739
-0.871,-0.587,-0.52,14.83,-72.85,82.95,1785099604207.677
-0.874,-0.521,-0.527,13.15,-68.3,85.3,1785099604207.883
-0.876,-0.452,-0.524,2.5,-61.8,87.65,1785099604208.09
-0.894,-0.421,-0.514,-13.67,-55.85,87.5,1785099604208.291
-0.909,-0.402,-0.493,-30.37,-49.41,84.72,1785099604208.495
-0.921,-0.414,-0.47,-46.88,-43.28,80.36,1785099604208.698
-0.937,-0.412,-0.447,-60.3,-36.65,73.79,1785099604208.8918
-0.94,-0.433,-0.428,-69.19,-30.06,67.29,1785099604209.095
-0.927,-0.464,-0.404,-74.53,-23.04,59.18,1785099604209.3
-0.931,-0.477,-0.377,-75.26,-16.54,50.42,1785099604209.503
-0.924,-0.494,-0.353,-70.31,-11.08,43.06,1785099604209.6948
-0.928,-0.482,-0.335,-61.07,-6.68,34.94,1785099604209.909
-0.925,-0.466,-0.326,-49.23,-2.99,28.26,1785099604210.104
-0.928,-0.44,-0.314,-37.11,0.31,22.34,1785099604210.294
-0.934,-0.411,-0.316,-25.42,2.04,17.18,1785099604210.512
-0.924,-0.39,-0.321,-13.89,3.57,13.06,1785099604210.7048
-0.928,-0.368,-0.332,-2.23,5.4,8.12,1785099604210.8958
-0.931,-0.342,-0.35,7.75,7.54,2.72,1785099604211.0952
-0.939,-0.313,-0.361,14.19,9.16,-2.62,1785099604211.285
-0.93,-0.293,-0.365,17.58,10.44,-7.23,1785099604211.479
-0.918,-0.291,-0.365,18.59,11.6,-10.74,1785099604211.669
-0.905,-0.293,-0.36,17.94,12.24,-14.34,1785099604211.8662
-0.901,-0.29,-0.354,16.54,12.39,-17.4,1785099604212.0618
-0.9,-0.285,-0.355,13.55,12.12,-19.32,1785099604212.252
-0.895,-0.273,-0.352,6.99,11.66,-21.06,1785099604212.446
-0.895,-0.276,-0.343,0.55,11.02,-22.37,1785099604212.658
-0.887,-0.272,-0.336,-5.95,10.25,-22.34,1785099604212.855
-0.883,-0.271,-0.327,-12.12,9.77,-21.91,1785099604213.0408
-0.878,-0.276,-0.322,-16.33,9.34,-21.03,1785099604213.2358
-0.879,-0.277,-0.314,-19.26,8.85,-20.05,1785099604213.4248
-0.879,-0.288,-0.308,-20.36,8.24,-19.17,1785099604213.608
-0.876,-0.292,-0.306,-18.71,7.42,-17.91,1785099604213.7979
-0.87,-0.298,-0.304,-15.02,6.93,-16.69,1785099604213.988
-0.873,-0.279,-0.311,-10.8,6.16,-15.05,1785099604214.176
-0.865,-0.271,-0.315,-8.3,5.28,-11.96,1785099604214.3628
-0.86,-0.262,-0.314,-7.08,4.61,-9.98,1785099604214.556
-0.856,-0.263,-0.314,-7.02,3.94,-8.18,1785099604214.746
-0.856,-0.272,-0.31,-6.38,3.11,-6.62,1785099604214.929
-0.858,-0.285,-0.306,-4.97,2.38,-5.37,1785099604215.1191
-0.864,-0.28,-0.304,-3.17,1.25,-4.15,1785099604215.31
-0.858,-0.277,-0.308,-2.66,0.37,-1.98,1785099604215.507
-0.86,-0.27,-0.314,-3.08,-0.21,-0.73,1785099604215.6868
-0.862,-0.271,-0.31,-4.12,-0.79,0.27,1785099604215.868
-0.861,-0.281,-0.311,-5.22,-1.25,1.04,1785099604216.0452
-0.87,-0.293,-0.306,-5.4,-1.71,1.71,1785099604216.2239
-0.874,-0.3,-0.305,-4.18,-2.17,2.38,1785099604216.401
-0.879,-0.299,-0.312,-2.72,-2.2,3.05,1785099604216.5771
-0.88,-0.298,-0.315,-2.56,-2.32,3.91,1785099604216.753
-0.879,-0.301,-0.313,-2.84,-2.53,4.61,1785099604216.9302
-0.877,-0.301,-0.313,-2.81,-2.99,5.1,1785099604217.1099
-0.876,-0.3,-0.313,-3.05,-3.14,5.07,1785099604217.283
-0.874,-0.3,-0.313,-3.45,-3.36,4.79,1785099604217.4639
-0.874,-0.307,-0.316,-3.48,-3.39,4.85,1785099604217.643
-0.882,-0.305,-0.322,-3.69,-3.57,3.81,1785099604217.819
-0.88,-0.299,-0.327,-4.85,-3.72,2.29,1785099604218.001
-0.874,-0.307,-0.328,-5.83,-3.45,1.53,1785099604218.185
-0.875,-0.309,-0.33,-6.56,-3.3,0.49,1785099604218.3628
-0.878,-0.305,-0.333,-7.05,-3.23,-0.18,1785099604218.545
-0.878,-0.305,-0.331,-7.05,-3.08,-0.76,1785099604218.729
-0.877,-0.305,-0.33,-6.96,-3.02,-1.43,1785099604218.9077
-0.874,-0.307,-0.336,-6.93,-2.96,-2.14,1785099604219.0862
-0.877,-0.306,-0.343,-6.68,-2.44,-2.9,1785099604219.265
-0.88,-0.298,-0.34,-7.08,-2.01,-3.17,1785099604219.444
-0.878,-0.293,-0.337,-7.39,-2.01,-3.05,1785099604219.6191
-0.873,-0.297,-0.338,-7.08,-1.8,-3.48,1785099604219.7927
-0.876,-0.301,-0.341,-6.38,-1.37,-4.27,1785099604219.9712
-0.879,-0.299,-0.345,-5.4,-1.04,-4.61,1785099604220.146
-0.876,-0.291,-0.35,-4.73,-0.46,-4.85,1785099604220.5388
-0.874,-0.291,-0.351,-5.04,-0.03,-4.61,1785099604220.717
-0.892,-0.269,-0.295,11.84,-3.51,17.43,1785099604221.068
-0.897,-0.271,-0.293,11.54,-3.51,17.06,1785099604221.257
-0.898,-0.273,-0.291,11.57,-3.48,17.18,1785099604223.5342
-0.898,-0.273,-0.291,11.63,-3.45,17.27,1785099604236.6973
-0.897,-0.276,-0.294,11.44,-3.39,17.3,1785099604242.335
-0.897,-0.274,-0.295,11.11,-3.33,17.37,1785099604252.886
-0.896,-0.27,-0.294,10.74,-3.42,17.52,1785099604263.467
-0.895,-0.268,-0.292,10.32,-3.42,17.27,1785099604276.704
-0.896,-0.267,-0.295,10.32,-3.42,17.27,1785099604282.351
-0.902,-0.265,-0.301,9.8,-3.2,16.97,1785099604292.804
-0.905,-0.266,-0.308,9.37,-3.14,16.94,1785099604303.288
-0.905,-0.27,-0.309,9.06,-2.99,16.63,1785099604316.527
-0.902,-0.271,-0.302,8.27,-2.93,15.66,1785099604322.1409
-0.894,-0.264,-0.302,6.29,-3.11,14.86,1785099604332.491
-0.891,-0.26,-0.3,4.58,-3.11,14.4,1785099604342.9592
-0.895,-0.258,-0.292,3.2,-3.45,13.76,1785099604353.4248
-0.898,-0.252,-0.294,1.65,-4.21,13.61,1785099604366.697
-0.903,-0.245,-0.303,0.52,-4.64,14.65,1785099604372.338
-0.91,-0.244,-0.305,-0.82,-4.76,15.81,1785099604382.6921
-0.922,-0.245,-0.302,-2.75,-4.76,16.27,1785099604393.147
-0.936,-0.242,-0.292,-4.3,-4.55,17.09,1785099604403.645
-0.936,-0.235,-0.283,-4.27,-4.55,18.74,1785099604416.908
-0.93,-0.228,-0.275,-2.87,-4.64,20.17,1785099604422.668
-0.918,-0.223,-0.273,-1.28,-4.79,20.91,1785099604432.9531
-0.907,-0.216,-0.281,-0.27,-4.85,21.06,1785099604443.449
-0.9,-0.198,-0.285,-0.61,-4.91,21.15,1785099604453.8848
-0.891,-0.183,-0.286,-1.83,-5.34,21.73,1785099604467.17
-0.883,-0.179,-0.286,-4.09,-5.74,21.55,1785099604472.4788
-0.881,-0.186,-0.292,-7.23,-6.32,20.66,1785099604483.0898
-0.88,-0.194,-0.294,-10.5,-6.68,19.2,1785099604493.685
-0.88,-0.199,-0.292,-13.15,-7.11,17.55,1785099604506.9631
-0.879,-0.207,-0.293,-15.59,-7.66,16.17,1785099604512.9312
-0.878,-0.216,-0.297,-17.91,-8.33,14.47,1785099604523.1118
-0.882,-0.225,-0.309,-20.23,-8.94,12.88,1785099604533.9258
-0.885,-0.235,-0.321,-22.83,-9.34,11.29,1785099604546.955
-0.893,-0.245,-0.328,-25.76,-9.25,9.46,1785099604553.02
-0.9,-0.256,-0.329,-28.29,-8.94,8.15,1785099604562.93
-0.912,-0.255,-0.318,-29.91,-8.88,7.35,1785099604573.3708
-0.915,-0.253,-0.317,-29.91,-8.94,7.84,1785099604583.906
-0.911,-0.262,-0.332,-29.02,-8.64,8.3,1785099604597.091
-0.914,-0.272,-0.349,-29.05,-8.18,7.72,1785099604602.9912
-0.918,-0.272,-0.359,-30.27,-7.57,7.57,1785099604613.014
-0.911,-0.274,-0.362,-31.4,-6.62,8.21,1785099604623.5679
-0.905,-0.275,-0.362,-31.28,-5.89,8.64,1785099604636.8481
-0.903,-0.271,-0.361,-30.67,-5.34,8.61,1785099604642.5999
-0.902,-0.268,-0.374,-29.88,-4.61,8.21,1785099604652.753
-0.905,-0.264,-0.386,-29.66,-3.78,6.99,1785099604663.03
-0.903,-0.259,-0.423,-30.06,-3.51,5.86,1785099604673.589
-0.88,-0.255,-0.518,-32.47,-3.27,5.34,1785099604686.7622
-0.849,-0.248,-0.643,-39.58,-1.22,4.15,1785099604692.7
-0.843,-0.252,-0.704,-50.6,3.36,2.29,1785099604702.813
-0.866,-0.293,-0.667,-60.52,8.73,0.03,1785099604713.521
-0.892,-0.358,-0.598,-63.91,12.91,-3.75,1785099604723.885
-0.908,-0.4,-0.538,-59.27,15.81,-8.42,1785099604737.0989
-0.902,-0.392,-0.504,-48.49,18.98,-11.41,1785099604742.978
-0.892,-0.372,-0.507,-33.75,23.59,-13.89,1785099604753.482
-0.905,-0.364,-0.491,-19.26,29.36,-18.28,1785099604766.795
-0.952,-0.343,-0.439,-3.39,30.95,-23.56,1785099604772.602
-0.921,-0.35,-0.514,23.87,36.01,-22.1,1785099604783.224
-0.918,-0.372,-0.557,44.47,45.99,-23.93,1785099604793.746
-0.907,-0.351,-0.603,40.96,49.5,-33.94,1785099604806.962
-0.945,-0.26,-0.565,14.98,49.93,-41.81,1785099604812.8938
-0.927,-0.338,-0.539,-1.59,52.22,-40.89,1785099604823.4119
-0.924,-0.42,-0.536,-9.06,53.87,-46.21,1785099604833.945
-0.942,-0.413,-0.535,-10.41,55.67,-51.0,1785099604847.167
-0.925,-0.387,-0.553,-6.01,57.37,-51.33,1785099604853.205
-0.903,-0.349,-0.583,-1.62,59.24,-53.16,1785099604863.78
-0.896,-0.314,-0.611,0.46,61.62,-55.33,1785099604876.678
-0.899,-0.306,-0.629,-1.5,64.58,-56.76,1785099604882.491
-0.918,-0.33,-0.616,-7.84,66.93,-58.66,1785099604892.7651
-0.942,-0.359,-0.596,-13.98,68.0,-59.94,1785099604903.5781
-0.955,-0.394,-0.596,-15.47,69.7,-58.81,1785099604916.8809
-0.969,-0.413,-0.604,-15.17,71.84,-57.83,1785099604922.714
-0.978,-0.41,-0.619,-14.65,73.85,-56.95,1785099604933.315
-0.969,-0.406,-0.647,-14.22,76.54,-55.6,1785099604944.0278
-0.949,-0.396,-0.659,-15.11,79.74,-54.32,1785099604957.1519
-0.939,-0.396,-0.659,-16.11,82.09,-53.99,1785099604963.017
-0.94,-0.42,-0.663,-15.9,83.65,-55.15,1785099604973.6152
-0.962,-0.447,-0.677,-14.59,84.54,-57.25,1785099604986.858
-0.974,-0.464,-0.723,-13.73,85.21,-59.3,1785099604992.717
-0.94,-0.474,-0.824,-16.57,86.18,-61.95,1785099605003.2717
-0.89,-0.465,-0.937,-26.18,89.14,-66.68,1785099605014.139
-0.893,-0.451,-0.962,-40.53,93.23,-71.44,1785099605027.1821
-0.921,-0.474,-0.921,-52.64,96.68,-74.77,1785099605033.213
-0.942,-0.51,-0.847,-58.57,99.98,-77.33,1785099605043.608
-0.949,-0.551,-0.779,-55.06,102.3,-79.68,1785099605056.8772
-0.952,-0.575,-0.76,-43.76,103.92,-81.51,1785099605062.816
-0.952,-0.584,-0.793,-29.33,105.75,-82.19,1785099605073.77
-0.951,-0.573,-0.838,-16.75,108.43,-82.74,1785099605086.856
-0.937,-0.564,-0.873,-7.48,111.42,-83.22,1785099605092.748
-0.916,-0.542,-0.912,-2.01,114.11,-83.71,1785099605103.415
-0.903,-0.52,-0.934,-0.4,116.21,-83.96,1785099605116.7969
-0.886,-0.515,-0.965,-1.71,118.29,-84.54,1785099605122.47
-0.89,-0.521,-0.95,-5.16,120.67,-85.09,1785099605133.175
-0.892,-0.532,-0.936,-8.51,121.43,-85.45,1785099605143.748
-0.895,-0.53,-0.922,-10.77,121.89,-86.06,1785099605157.061
-0.888,-0.516,-0.923,-11.47,122.17,-86.43,1785099605165.006
-0.869,-0.499,-0.932,-12.36,122.93,-86.73,1785099605173.707
-0.838,-0.489,-0.944,-14.62,124.18,-87.62,1785099605186.948
-0.808,-0.493,-0.957,-18.04,125.52,-89.33,1785099605192.659
-0.785,-0.495,-0.966,-22.19,126.83,-91.07,1785099605203.688
-0.776,-0.495,-0.947,-24.84,128.06,-91.71,1785099605216.922
-0.768,-0.502,-0.931,-24.23,129.22,-91.49,1785099605222.8843
-0.754,-0.493,-0.917,-21.06,130.44,-90.67,1785099605233.6462
-0.725,-0.472,-0.925,-16.11,131.17,-88.9,1785099605246.752
-0.691,-0.454,-0.948,-11.87,131.75,-87.31,1785099605252.854
-0.655,-0.445,-0.968,-11.35,132.11,-86.37,1785099605263.6118
-0.631,-0.44,-0.97,-16.08,132.51,-85.6,1785099605276.8582
-0.615,-0.434,-0.957,-24.05,132.27,-84.44,1785099605282.803
-0.607,-0.431,-0.92,-32.56,132.02,-82.83,1785099605293.545
-0.586,-0.42,-0.884,-38.58,131.66,-80.66,1785099605306.7898
-0.556,-0.417,-0.875,-39.77,131.26,-78.55,1785099605312.7283
-0.521,-0.409,-0.87,-37.9,131.32,-76.69,1785099605323.549
-0.48,-0.4,-0.874,-34.52,131.72,-75.08,1785099605336.766
-0.448,-0.387,-0.861,-29.97,132.36,-73.55,1785099605342.7688
-0.423,-0.381,-0.84,-25.27,132.18,-71.9,1785099605353.5217
-0.408,-0.381,-0.815,-21.7,131.11,-70.41,1785099605366.7688
-0.398,-0.387,-0.815,-19.87,128.54,-69.19,1785099605372.702
-0.387,-0.391,-0.853,-22.1,125.13,-68.18,1785099605383.491
-0.373,-0.368,-0.924,-30.55,121.22,-68.21,1785099605396.697
-0.347,-0.344,-0.994,-43.61,118.05,-68.67,1785099605402.5059
-0.307,-0.322,-1.023,-59.18,116.15,-69.64,1785099605413.508
-0.251,-0.296,-1.023,-73.73,115.05,-70.65,1785099605426.734
-0.177,-0.29,-1.009,-83.13,114.41,-71.32,1785099605432.8142
-0.12,-0.3,-0.977,-87.56,114.05,-71.6,1785099605443.397
-0.089,-0.306,-0.932,-87.8,113.8,-69.52,1785099605456.663
-0.058,-0.321,-0.886,-83.25,113.71,-64.88,1785099605462.6848
-0.033,-0.317,-0.825,-76.24,113.13,-59.11,1785099605473.4458
-0.004,-0.312,-0.803,-67.23,112.31,-52.92,1785099605486.5122
0.035,-0.307,-0.787,-58.35,113.01,-47.15,1785099605492.2231
0.052,-0.292,-0.729,-50.45,114.41,-41.38,1785099605503.402
0.043,-0.281,-0.664,-40.74,115.33,-35.65,1785099605516.716
0.043,-0.281,-0.664,-28.93,115.54,-30.34,1785099605522.562
0.044,-0.268,-0.619,-16.3,114.72,-25.73,1785099605533.3838
0.066,-0.248,-0.602,-5.68,113.5,-22.49,1785099605544.041
0.091,-0.224,-0.594,0.52,111.73,-20.87,1785099605557.209
0.099,-0.207,-0.575,0.52,111.73,-20.87,1785099605563.157
0.107,-0.191,-0.558,1.65,108.55,-19.47,1785099605573.647
0.126,-0.172,-0.541,-0.49,104.56,-18.1,1785099605586.893
0.145,-0.152,-0.523,-3.69,100.16,-16.66,1785099605592.778
0.159,-0.129,-0.496,-6.53,95.8,-14.92,1785099605603.246
0.173,-0.108,-0.474,-8.24,91.22,-12.3,1785099605613.8508
0.193,-0.09,-0.452,-8.12,86.67,-9.22,1785099605627.0369
0.213,-0.097,-0.435,-5.34,82.49,-5.83,1785099605632.992
0.236,-0.116,-0.437,-2.35,78.49,-3.14,1785099605642.9539
0.264,-0.133,-0.431,-0.76,74.56,-0.82,1785099605653.465
0.295,-0.144,-0.424,0.34,70.01,1.95,1785099605664.0342
0.328,-0.147,-0.426,0.73,65.55,4.03,1785099605677.1682
0.357,-0.152,-0.427,0.46,60.98,5.04,1785099605683.2422
0.384,-0.162,-0.427,-0.95,55.73,4.58,1785099605693.091
0.414,-0.164,-0.438,-3.48,50.36,2.04,1785099605703.61
0.443,-0.148,-0.447,-7.23,45.44,-2.08,1785099605716.861
0.457,-0.114,-0.447,-10.71,40.47,-5.83,1785099605722.445
0.47,-0.083,-0.473,-12.05,35.43,-8.61,1785099605733.08
0.502,-0.052,-0.507,-12.51,31.56,-10.32,1785099605743.5781
0.529,-0.042,-0.527,-11.38,29.27,-11.51,1785099605756.9038
0.536,-0.062,-0.538,-8.0,28.69,-12.15,1785099605762.804
0.521,-0.092,-0.522,-2.75,28.14,-12.15,1785099605773.149
0.509,-0.122,-0.513,4.18,26.43,-11.23,1785099605783.7498
0.52,-0.153,-0.526,10.96,24.08,-9.58,1785099605796.845
0.542,-0.146,-0.552,13.21,21.18,-8.33,1785099605802.96
0.56,-0.104,-0.573,11.32,18.56,-5.77,1785099605813.128
0.575,-0.084,-0.6,8.7,16.82,-2.08,1785099605823.603
0.588,-0.083,-0.61,3.27,15.38,-0.46,1785099605836.823
0.58,-0.085,-0.591,-3.63,13.73,-1.1,1785099605842.6199
0.563,-0.102,-0.578,-7.2,11.93,-1.95,1785099605852.741
0.572,-0.13,-0.587,-5.68,10.77,-2.69,1785099605863.482
0.584,-0.162,-0.605,-1.1,10.25,-4.09,1785099605873.7039
0.581,-0.173,-0.618,3.11,9.43,-6.44,1785099605886.934
0.575,-0.166,-0.622,6.99,8.21,-7.57,1785099605892.545
0.574,-0.171,-0.633,11.26,6.96,-7.6,1785099605902.699
0.577,-0.174,-0.648,13.98,5.55,-8.39,1785099605913.579
0.569,-0.165,-0.667,14.19,4.49,-9.8,1785099605923.6382
0.567,-0.171,-0.693,12.97,4.3,-11.54,1785099605936.9158
0.561,-0.177,-0.69,9.7,4.36,-14.4,1785099605942.785
0.549,-0.184,-0.679,6.38,3.88,-17.85,1785099605952.943
0.526,-0.179,-0.646,4.24,2.38,-21.18,1785099605963.3323
0.516,-0.165,-0.663,4.88,0.06,-23.44,1785099605974.034
0.52,-0.138,-0.684,7.66,-0.76,-24.78,1785099605987.1511
0.541,-0.142,-0.721,12.48,-1.28,-26.4,1785099605992.974
0.551,-0.167,-0.767,17.3,-1.07,-29.39,1785099606003.2031
0.552,-0.188,-0.814,23.16,0.76,-31.01,1785099606013.771
0.557,-0.197,-0.852,32.26,4.39,-30.64,1785099606027.045
0.552,-0.181,-0.865,42.91,7.32,-29.45,1785099606033.249
0.544,-0.143,-0.831,52.37,10.47,-26.76,1785099606043.297
0.535,-0.119,-0.735,61.16,13.73,-22.74,1785099606053.962
0.54,-0.142,-0.669,71.57,15.69,-19.53,1785099606067.167
0.548,-0.167,-0.643,80.54,16.08,-18.56,1785099606072.824
0.568,-0.158,-0.636,86.46,14.53,-17.37,1785099606083.758
0.615,-0.136,-0.679,89.3,11.6,-15.23,1785099606096.9548
0.665,-0.117,-0.726,86.89,10.13,-14.65,1785099606102.9902
0.677,-0.122,-0.774,78.07,10.07,-17.43,1785099606113.4321
0.65,-0.159,-0.816,64.0,11.75,-22.61,1785099606126.598
0.596,-0.211,-0.788,48.49,15.32,-27.95,1785099606132.676
0.547,-0.267,-0.714,39.37,18.83,-31.4,1785099606143.085
0.544,-0.314,-0.666,40.04,20.33,-32.26,1785099606153.864
0.577,-0.329,-0.645,47.46,20.11,-31.04,1785099606166.925
0.599,-0.32,-0.639,56.4,19.65,-28.96,1785099606172.5813
0.586,-0.318,-0.663,62.38,20.33,-27.71,1785099606183.5562
0.522,-0.33,-0.66,62.44,22.55,-29.33,1785099606196.678
0.448,-0.337,-0.639,59.24,25.39,-32.07,1785099606202.287
0.4,-0.342,-0.62,56.61,28.84,-34.58,1785099606213.1309
0.437,-0.34,-0.639,54.99,33.2,-36.96,1785099606223.745
0.548,-0.328,-0.666,51.64,38.3,-39.37,1785099606236.976
0.627,-0.318,-0.651,45.41,42.42,-41.96,1785099606242.903
0.621,-0.333,-0.638,39.52,45.78,-44.77,1785099606253.4832
0.524,-0.375,-0.596,36.9,50.08,-48.62,1785099606266.73
0.394,-0.414,-0.542,39.92,54.66,-52.71,1785099606272.658
0.3,-0.445,-0.496,51.15,59.66,-55.64,1785099606283.166
0.296,-0.458,-0.46,67.72,64.24,-56.89,1785099606293.782
0.364,-0.42,-0.444,83.9,66.56,-56.31,1785099606307.0369
0.447,-0.339,-0.447,93.51,66.5,-54.48,1785099606312.9932
0.492,-0.269,-0.446,91.83,65.8,-54.05,1785099606323.5042
0.505,-0.248,-0.443,79.38,66.04,-55.79,1785099606336.7888
0.503,-0.283,-0.42,62.35,68.58,-58.69,1785099606343.987
0.473,-0.353,-0.381,47.52,73.15,-62.75,1785099606353.2058
0.413,-0.419,-0.333,41.14,78.62,-65.77,1785099606363.919
0.365,-0.447,-0.295,45.14,83.29,-65.1,1785099606378.13
0.35,-0.431,-0.264,56.4,85.88,-60.49,1785099606383.615
0.401,-0.394,-0.255,70.71,86.37,-53.74,1785099606393.514
0.498,-0.355,-0.258,81.0,85.15,-48.31,1785099606406.8867
0.58,-0.299,-0.229,81.61,81.7,-45.23,1785099606412.7468
0.624,-0.276,-0.209,75.38,75.87,-42.91,1785099606423.33
0.605,-0.284,-0.219,65.68,70.22,-41.23,1785099606433.913
0.538,-0.281,-0.206,55.88,67.11,-38.48,1785099606447.1628
0.483,-0.297,-0.174,51.7,64.12,-32.96,1785099606453.1572
0.461,-0.328,-0.169,52.95,58.81,-27.68,1785099606463.624
0.506,-0.318,-0.177,54.96,51.33,-24.23,1785099606476.9531
0.668,-0.279,-0.191,55.33,42.7,-20.48,1785099606482.85
0.858,-0.243,-0.181,50.42,34.18,-16.17,1785099606493.354
0.966,-0.209,-0.15,41.29,26.0,-9.58,1785099606503.886
0.993,-0.184,-0.142,32.17,17.15,1.92,1785099606517.234
0.928,-0.198,-0.157,25.21,9.03,16.33,1785099606523.0168
0.803,-0.203,-0.168,18.95,2.56,29.97,1785099606533.377
0.704,-0.221,-0.147,16.39,-2.93,42.97,1785099606544.031
0.664,-0.267,-0.121,17.52,-11.26,53.96,1785099606557.154
0.664,-0.282,-0.12,19.1,-22.77,62.41,1785099606562.7039
0.696,-0.274,-0.131,21.97,-35.52,72.66,1785099606573.548
0.751,-0.272,-0.167,25.82,-48.46,85.09,1785099606586.84
0.819,-0.287,-0.207,30.43,-58.81,98.18,1785099606592.749
0.866,-0.356,-0.231,38.7,-65.77,110.6,1785099606603.434
0.855,-0.435,-0.285,46.51,-72.7,121.43,1785099606616.731
0.783,-0.465,-0.36,52.13,-80.39,133.82,1785099606622.603
0.723,-0.454,-0.409,55.82,-87.01,149.05,1785099606633.4321
0.693,-0.411,-0.445,54.81,-93.26,164.37,1785099606646.676
0.685,-0.412,-0.456,49.29,-99.86,177.1,1785099606652.6248
0.663,-0.462,-0.444,40.25,-107.58,183.42,1785099606663.996
0.668,-0.581,-0.435,34.24,-114.9,185.37,1785099606676.7039
0.684,-0.758,-0.457,34.94,-121.37,184.85,1785099606682.879
0.665,-0.818,-0.482,37.72,-127.78,186.83,1785099606693.949
0.648,-0.785,-0.548,46.45,-134.31,197.52,1785099606706.9448
0.644,-0.727,-0.656,59.42,-137.97,212.32,1785099606712.838
0.629,-0.759,-0.779,68.15,-137.73,220.47,1785099606723.868
0.548,-0.843,-0.861,60.76,-135.26,216.22,1785099606737.118
0.421,-0.905,-0.88,37.11,-133.58,209.02,1785099606743.1099
0.361,-0.954,-0.851,9.46,-131.14,207.74,1785099606754.186
0.373,-1.005,-0.791,-10.44,-127.72,209.11,1785099606767.294
0.42,-1.022,-0.792,-18.89,-125.64,211.25,1785099606773.1897
0.478,-0.954,-0.873,-17.61,-122.07,215.89,1785099606786.72
0.508,-0.868,-0.891,-8.76,-113.59,221.93,1785099606792.633
0.508,-0.868,-0.891,1.1,-103.79,223.36,1785099606803.5022
0.477,-0.851,-0.86,3.11,-96.16,220.28,1785099606816.791
0.398,-0.863,-0.808,-0.55,-92.29,220.13,1785099606822.649
0.307,-0.866,-0.732,-1.43,-91.95,223.21,1785099606833.214
0.287,-0.939,-0.69,-3.45,-91.95,217.05,1785099606843.7869
0.332,-0.973,-0.668,-3.45,-91.95,217.05,1785099606857.043
0.222,-0.892,-0.638,-10.35,-85.09,200.14,1785099606862.9539
0.175,-0.911,-0.712,-16.75,-86.0,198.52,1785099606873.5527
0.114,-0.911,-0.759,-26.95,-91.46,196.26,1785099606886.968
0.067,-0.863,-0.764,-35.95,-96.04,196.84,1785099606892.9
0.073,-0.915,-0.759,-31.86,-96.5,201.24,1785099606903.872
0.063,-0.971,-0.714,-17.67,-95.46,199.04,1785099606916.9668
0.021,-0.922,-0.65,3.45,-92.62,192.27,1785099606922.914
-0.014,-0.889,-0.644,28.78,-89.75,190.22,1785099606934.0989
-0.034,-0.93,-0.713,43.61,-88.35,189.06,1785099606946.8547
-0.11,-0.976,-0.792,33.6,-87.01,182.47,1785099606952.7822
-0.199,-0.956,-0.815,-0.55,-86.49,172.83,1785099606963.52
-0.307,-0.89,-0.801,-46.3,-87.59,164.74,1785099606976.746
-0.359,-0.861,-0.753,-89.88,-91.98,162.66,1785099606982.904
-0.317,-0.868,-0.681,-120.12,-96.19,160.28,1785099606993.6409
-0.36,-0.841,-0.578,-129.06,-98.33,150.12,1785099607006.757
-0.349,-0.902,-0.574,-115.6,-105.14,144.35,1785099607012.6829
-0.391,-1.015,-0.67,-92.62,-109.53,132.54,1785099607023.9602
-0.501,-1.028,-0.778,-75.29,-109.59,118.78,1785099607037.088
-0.616,-0.98,-0.875,-65.0,-108.52,115.63,1785099607043.0168
-0.669,-0.907,-0.909,-67.87,-108.52,115.97,1785099607054.1492
-0.704,-0.824,-0.866,-83.04,-102.05,113.86,1785099607067.283
-0.658,-0.803,-0.817,-102.24,-96.65,110.93,1785099607073.193
-0.645,-0.747,-0.722,-123.11,-95.0,101.47,1785099607086.5762
-0.653,-0.722,-0.64,-134.89,-93.72,96.04,1785099607092.675
-0.663,-0.772,-0.651,-133.82,-94.24,92.78,1785099607103.538
-0.729,-0.815,-0.646,-125.06,-93.51,84.75,1785099607116.822
-0.783,-0.806,-0.625,-107.18,-91.25,77.43,1785099607122.654
-0.807,-0.772,-0.639,-80.81,-88.78,73.09,1785099607133.436
-0.806,-0.723,-0.62,-52.77,-82.52,67.35,1785099607144.135
-0.837,-0.651,-0.592,-28.05,-74.13,60.52,1785099607157.283
-0.925,-0.602,-0.575,-10.1,-70.96,60.43,1785099607163.1602
-0.918,-0.614,-0.566,0.92,-75.26,70.04,1785099607173.8958
-0.828,-0.576,-0.536,8.42,-73.03,74.13,1785099607186.816
-0.803,-0.49,-0.529,15.69,-65.74,71.23,1785099607192.821
-0.812,-0.43,-0.532,21.55,-60.3,69.31,1785099607203.1948
-0.829,-0.38,-0.526,22.37,-56.28,68.61,1785099607213.8892
-0.85,-0.341,-0.507,20.26,-53.47,69.03,1785099607227.093
-0.856,-0.331,-0.485,19.71,-51.36,71.14,1785099607233.047
-0.853,-0.344,-0.464,23.01,-48.46,73.31,1785099607243.5342
-0.853,-0.343,-0.451,28.53,-44.53,73.85,1785099607257.01
-0.858,-0.322,-0.434,33.51,-40.38,73.85,1785099607262.751
-0.862,-0.314,-0.427,38.48,-37.63,73.7,1785099607273.273
-0.872,-0.306,-0.42,41.14,-36.5,73.61,1785099607284.09
-0.873,-0.302,-0.412,43.0,-35.71,73.98,1785099607297.0261
-0.874,-0.309,-0.416,46.21,-34.42,73.92,1785099607302.753
-0.893,-0.303,-0.421,49.17,-33.17,73.67,1785099607313.493
-0.91,-0.297,-0.428,50.75,-32.59,74.1,1785099607326.8682
-0.908,-0.283,-0.438,50.08,-31.86,74.31,1785099607332.7688
-0.906,-0.264,-0.441,47.0,-31.16,73.95,1785099607343.3909
-0.907,-0.248,-0.45,41.72,-30.82,73.12,1785099607353.995
-0.912,-0.234,-0.451,33.66,-30.88,71.38,1785099607367.231
-0.91,-0.22,-0.445,23.65,-31.07,69.49,1785099607373.3618
-0.915,-0.215,-0.444,13.21,-30.64,66.1,1785099607383.84
-0.922,-0.219,-0.439,3.17,-31.01,62.87,1785099607396.8582
-0.924,-0.237,-0.425,-3.81,-31.95,60.18,1785099607402.871
-0.926,-0.262,-0.418,-7.17,-33.17,57.86,1785099607413.092
-0.921,-0.277,-0.418,-8.55,-33.27,56.31,1785099607423.72
-0.913,-0.285,-0.424,-8.85,-32.81,54.14,1785099607436.8901
-0.914,-0.282,-0.434,-9.28,-32.07,51.3,1785099607442.859
-0.918,-0.275,-0.436,-10.16,-30.79,48.74,1785099607453.207
-0.917,-0.274,-0.44,-11.11,-28.99,46.66,1785099607464.0962
-0.91,-0.277,-0.445,-12.51,-27.16,44.22,1785099607477.096
-0.902,-0.265,-0.44,-15.47,-25.85,41.17,1785099607482.7551
-0.891,-0.255,-0.434,-19.71,-24.72,38.06,1785099607493.6362
-0.871,-0.25,-0.425,-24.48,-23.1,34.55,1785099607506.829
-0.847,-0.256,-0.409,-28.14,-20.36,29.73,1785099607512.7512
-0.826,-0.276,-0.393,-29.02,-17.58,24.69,1785099607523.327
-0.814,-0.294,-0.381,-26.31,-16.05,19.29,1785099607533.9258
-0.822,-0.287,-0.382,-22.13,-16.42,14.04,1785099607547.149
-0.834,-0.272,-0.401,-18.16,-17.09,9.8,1785099607553.25
-0.839,-0.262,-0.421,-15.69,-16.14,6.41,1785099607563.6658
-0.842,-0.264,-0.424,-13.79,-14.25,3.6,1785099607574.046
-0.846,-0.274,-0.429,-11.66,-12.27,1.37,1785099607587.2341
-0.845,-0.272,-0.424,-10.77,-10.56,-0.31,1785099607593.0837
-0.836,-0.266,-0.413,-11.14,-9.49,-1.31,1785099607603.362
-0.822,-0.263,-0.398,-12.73,-8.24,-2.11,1785099607613.7788
-0.806,-0.272,-0.381,-14.37,-7.29,-3.36,1785099607627.064
-0.799,-0.282,-0.365,-15.5,-6.81,-5.46,1785099607632.944
-0.803,-0.291,-0.359,-15.66,-6.26,-7.48,1785099607643.028
-0.82,-0.295,-0.356,-13.92,-6.26,-9.16,1785099607653.3088
-0.845,-0.294,-0.363,-10.86,-6.74,-10.44,1785099607666.782
-0.856,-0.292,-0.377,-8.09,-7.51,-10.68,1785099607672.7832
-0.852,-0.289,-0.386,-6.53,-8.67,-10.71,1785099607682.822
-0.837,-0.284,-0.413,-6.81,-8.82,-10.77,1785099607693.179
-0.821,-0.266,-0.431,-9.61,-6.9,-11.05,1785099607703.711
-0.81,-0.253,-0.434,-12.05,-4.18,-10.96,1785099607716.943
-0.806,-0.26,-0.422,-12.97,-1.22,-11.08,1785099607722.823
-0.806,-0.278,-0.391,-12.18,1.07,-11.84,1785099607733.175
-0.814,-0.296,-0.348,-9.89,1.89,-12.76,1785099607743.7388
-0.839,-0.296,-0.335,-7.81,0.09,-12.76,1785099607756.8262
-0.865,-0.275,-0.385,-9.4,-3.27,-11.96,1785099607762.623
-0.881,-0.241,-0.46,-17.73,-6.32,-10.13,1785099607772.841
-0.891,-0.22,-0.525,-31.01,-7.87,-8.24,1785099607783.391
-0.904,-0.232,-0.58,-43.67,-8.36,-6.93,1785099607793.777
-0.908,-0.248,-0.639,-52.25,-5.95,-5.16,1785099607807.0242
-0.985,-0.295,-0.57,-56.86,-1.83,-3.94,1785099607812.8572
-1.102,-0.339,-0.265,-47.33,-4.21,-2.44,1785099607822.992
-1.02,-0.447,-0.405,-3.6,-6.62,8.12,1785099607833.423
-0.952,-0.359,-0.592,24.96,7.78,13.61,1785099607843.895
-1.123,-0.211,-0.463,4.39,11.17,7.23,1785099607857.44
-1.107,-0.288,-0.396,-21.27,9.52,4.58,1785099607862.967
-0.928,-0.441,-0.49,-27.74,16.45,-1.5,1785099607873.2832
-0.998,-0.418,-0.462,-38.27,21.36,-18.01,1785099607884.196
-1.036,-0.391,-0.474,-41.47,26.25,-21.0,1785099607897.1301
-0.972,-0.406,-0.514,-34.76,33.23,-22.28,1785099607903.0508
-0.962,-0.388,-0.562,-26.52,36.71,-32.41,1785099607913.595
-0.974,-0.326,-0.6,-20.26,40.93,-40.59,1785099607926.789
-0.972,-0.29,-0.595,-14.65,46.94,-44.56,1785099607932.878
-0.979,-0.285,-0.589,-10.1,50.94,-50.36,1785099607943.267
-0.97,-0.285,-0.613,-8.58,54.29,-56.92,1785099607953.826
-0.963,-0.29,-0.61,-11.41,57.44,-62.69,1785099607967.1838
-0.965,-0.304,-0.604,-14.22,58.66,-66.77,1785099607973.143
-0.954,-0.321,-0.643,-14.04,60.58,-68.94,1785099607983.66
-0.942,-0.324,-0.679,-14.28,63.36,-71.54,1785099607996.776
-0.928,-0.308,-0.713,-18.1,65.46,-73.37,1785099608002.6892
-0.908,-0.293,-0.749,-25.3,67.66,-73.73,1785099608013.1309
-0.898,-0.29,-0.76,-35.19,70.68,-73.34,1785099608023.879
-0.904,-0.296,-0.748,-45.81,74.04,-72.08,1785099608037.1157
-0.917,-0.328,-0.712,-53.32,77.7,-70.31,1785099608043.003
-0.937,-0.376,-0.672,-55.91,80.63,-69.03,1785099608053.571
-0.961,-0.416,-0.653,-54.6,82.28,-67.72,1785099608066.873
-0.992,-0.437,-0.664,-50.97,83.04,-65.92,1785099608072.726
-1.017,-0.446,-0.696,-47.52,83.96,-63.54,1785099608083.324
-1.017,-0.446,-0.696,-46.21,86.37,-61.34,1785099608093.906
-1.026,-0.438,-0.721,-46.36,89.69,-60.58,1785099608107.004
-1.033,-0.427,-0.7,-47.09,92.07,-61.62,1785099608112.8708
-1.034,-0.423,-0.682,-49.59,94.58,-64.58,1785099608123.6292
-1.012,-0.409,-0.696,-53.04,97.38,-68.27,1785099608137.032
-0.976,-0.389,-0.732,-53.04,97.38,-68.27,1785099608142.824
-0.959,-0.384,-0.755,-55.42,100.5,-71.66,1785099608153.4478
-0.983,-0.385,-0.752,-57.22,101.72,-74.07,1785099608166.744
-1.019,-0.387,-0.768,-59.3,100.71,-75.47,1785099608172.6248
-1.035,-0.387,-0.784,-62.14,99.86,-74.74,1785099608183.338
-1.012,-0.397,-0.794,-62.84,100.44,-72.45,1785099608193.9058
-0.969,-0.406,-0.792,-59.88,103.06,-69.77,1785099608207.289
-0.93,-0.402,-0.776,-53.47,105.81,-66.44,1785099608213.382
-0.899,-0.401,-0.774,-44.86,107.88,-63.51,1785099608224.295
-0.871,-0.389,-0.777,-37.63,109.44,-62.53,1785099608237.216
-0.86,-0.371,-0.774,-33.39,110.35,-63.05,1785099608243.135
-0.854,-0.361,-0.797,-33.81,110.32,-64.42,1785099608253.9258
-0.833,-0.344,-0.842,-38.54,111.3,-66.81,1785099608267.195
-0.817,-0.331,-0.854,-43.34,113.22,-68.03,1785099608273.231
-0.791,-0.337,-0.867,-44.83,115.05,-68.39,1785099608284.066
-0.769,-0.341,-0.882,-42.82,117.31,-68.61,1785099608297.193
-0.771,-0.349,-0.877,-38.0,119.08,-67.17,1785099608303.0989
-0.789,-0.36,-0.861,-31.89,119.36,-65.34,1785099608313.7432
-0.796,-0.366,-0.845,-26.61,118.63,-64.06,1785099608327.123
-0.774,-0.359,-0.852,-22.46,117.83,-62.84,1785099608333.29
-0.74,-0.34,-0.871,-19.84,117.68,-61.77,1785099608344.0269
-0.69,-0.318,-0.911,-19.01,117.89,-60.67,1785099608357.093
-0.64,-0.297,-0.937,-20.02,119.17,-59.91,1785099608363.033
-0.605,-0.29,-0.94,-21.42,119.6,-59.42,1785099608373.7048
-0.587,-0.293,-0.935,-23.38,118.96,-59.08,1785099608387.029
-0.582,-0.311,-0.914,-25.12,117.92,-58.66,1785099608393.125
-0.563,-0.329,-0.919,-26.4,116.52,-58.35,1785099608403.918
-0.548,-0.322,-0.9,-27.86,116.09,-58.08,1785099608417.021
-0.516,-0.317,-0.908,-28.57,115.33,-57.74,1785099608422.969
-0.469,-0.291,-0.934,-29.94,115.39,-58.75,1785099608433.651
-0.438,-0.28,-0.921,-31.25,115.82,-59.14,1785099608449.625
-0.41,-0.287,-0.909,-32.5,115.7,-58.87,1785099608452.6301
-0.387,-0.294,-0.913,-32.9,115.88,-59.6,1785099608463.736
-0.379,-0.293,-0.923,-32.84,115.33,-60.27,1785099608476.97
-0.375,-0.282,-0.914,-34.27,114.51,-59.94,1785099608482.522
-0.356,-0.262,-0.907,-37.26,113.07,-58.02,1785099608493.715
-0.337,-0.242,-0.878,-40.83,111.55,-54.75,1785099608506.918
-0.31,-0.235,-0.845,-42.48,109.62,-51.03,1785099608512.883
-0.282,-0.242,-0.826,-40.99,107.82,-47.85,1785099608523.648
-0.255,-0.249,-0.828,-37.2,105.81,-45.56,1785099608536.9229
-0.222,-0.244,-0.832,-32.87,104.92,-43.52,1785099608542.961
-0.191,-0.232,-0.84,-28.81,104.5,-41.6,1785099608553.905
-0.164,-0.225,-0.855,-25.64,104.4,-40.28,1785099608566.89
-0.141,-0.22,-0.868,-23.62,104.8,-39.19,1785099608572.813
-0.117,-0.217,-0.87,-21.27,105.38,-37.81,1785099608583.631
-0.089,-0.221,-0.883,-17.73,105.69,-36.44,1785099608596.8462
-0.059,-0.221,-0.896,-14.65,105.75,-35.31,1785099608602.8582
-0.034,-0.213,-0.881,-12.51,105.44,-34.09,1785099608613.712
-0.021,-0.209,-0.863,-10.35,104.43,-32.96,1785099608626.7012
-0.014,-0.198,-0.842,-8.36,102.57,-31.77,1785099608632.916
0.001,-0.188,-0.832,-5.71,100.8,-30.37,1785099608643.418
0.019,-0.194,-0.823,-2.08,100.01,-29.69,1785099608654.004
0.03,-0.199,-0.821,1.77,99.55,-30.03,1785099608667.189
0.039,-0.189,-0.81,4.7,98.67,-30.61,1785099608673.1501
0.065,-0.175,-0.808,8.27,97.2,-30.06,1785099608683.531
0.098,-0.169,-0.805,14.59,95.98,-28.53,1785099608696.646
0.125,-0.171,-0.798,22.4,94.39,-26.89,1785099608702.689
0.146,-0.176,-0.794,28.6,92.35,-26.09,1785099608713.128
0.162,-0.17,-0.81,30.52,90.21,-26.09,1785099608723.766
0.189,-0.153,-0.805,27.04,88.41,-26.09,1785099608737.057
0.213,-0.137,-0.785,19.71,85.94,-26.09,1785099608742.951
0.233,-0.128,-0.757,11.41,83.19,-25.91,1785099608753.4739
0.249,-0.123,-0.738,3.42,79.71,-25.27,1785099608764.3972
0.278,-0.129,-0.745,-4.52,76.11,-24.72,1785099608777.442
0.302,-0.141,-0.756,-13.09,73.0,-25.54,1785099608783.375
0.31,-0.137,-0.756,-22.34,70.71,-26.49,1785099608793.8318
0.317,-0.133,-0.739,-29.6,69.7,-26.12,1785099608806.8962
0.325,-0.138,-0.712,-31.89,69.09,-25.12,1785099608812.875
0.334,-0.128,-0.679,-29.51,67.96,-23.83,1785099608823.3652
0.343,-0.109,-0.647,-23.16,65.98,-21.42,1785099608834.006
0.36,-0.104,-0.653,-14.86,63.72,-18.77,1785099608847.069
0.372,-0.102,-0.659,-8.82,61.77,-16.94,1785099608853.0427
0.372,-0.092,-0.641,-4.91,59.91,-14.77,1785099608863.599
0.37,-0.099,-0.629,-0.03,57.99,-11.35,1785099608876.771
0.374,-0.112,-0.63,5.28,56.18,-7.66,1785099608882.831
0.392,-0.113,-0.64,9.92,54.63,-4.3,1785099608892.8262
0.41,-0.103,-0.631,14.01,53.62,-1.31,1785099608903.332
0.421,-0.099,-0.607,18.31,52.4,1.89,1785099608914.1309
0.428,-0.103,-0.587,23.47,50.54,5.16,1785099608927.17
0.432,-0.102,-0.574,29.08,48.16,8.42,1785099608933.326
0.443,-0.107,-0.566,35.25,45.75,11.69,1785099608943.5078
0.46,-0.12,-0.562,40.28,43.73,13.89,1785099608956.754
0.485,-0.136,-0.558,42.3,41.96,14.53,1785099608962.6692
0.507,-0.146,-0.541,40.1,39.19,13.58,1785099608973.2869
0.525,-0.156,-0.526,35.52,35.55,11.9,1785099608984.04
0.538,-0.173,-0.534,29.54,31.46,9.58,1785099608997.038
0.545,-0.18,-0.527,22.06,27.74,6.53,1785099609003.0488
0.545,-0.186,-0.529,16.3,24.14,3.42,1785099609013.236
0.552,-0.179,-0.551,13.34,21.0,0.95,1785099609023.8198
0.573,-0.174,-0.58,13.34,19.01,-0.89,1785099609036.782
0.582,-0.172,-0.604,14.62,17.7,-2.99,1785099609042.4268
0.584,-0.182,-0.618,14.37,16.57,-5.04,1785099609053.287
0.585,-0.186,-0.621,10.65,14.8,-6.71,1785099609063.581
0.582,-0.175,-0.607,4.85,12.09,-6.62,1785099609076.8042
0.579,-0.197,-0.6,0.61,9.61,-5.37,1785099609082.6208
0.575,-0.228,-0.615,-3.54,7.11,-5.71,1785099609092.631
0.574,-0.237,-0.631,-7.97,5.16,-7.08,1785099609103.143
0.576,-0.219,-0.644,-10.25,3.42,-7.72,1785099609113.638
0.585,-0.193,-0.655,-9.22,2.29,-6.65,1785099609124.083
0.591,-0.176,-0.673,-5.52,1.89,-4.82,1785099609137.265
0.595,-0.173,-0.686,-0.55,2.14,-3.23,1785099609142.9087
