ax,ay,az,gx,gy,gz,timestamp_ms
0.628,-0.356,-0.728,-4.03,-1.13,-1.71,1785099416122.643
0.617,-0.37,-0.732,-7.35,-1.1,-2.53,1785099416122.9702
0.599,-0.368,-0.724,-10.53,-1.28,-2.72,1785099416123.231
0.599,-0.359,-0.714,-11.69,-1.5,-2.14,1785099416123.49
0.603,-0.353,-0.705,-10.28,-1.25,-1.56,1785099416123.752
0.604,-0.354,-0.7,-7.45,-1.19,-1.5,1785099416124.017
0.602,-0.353,-0.697,-5.16,-1.43,-1.89,1785099416124.262
0.603,-0.346,-0.701,-4.7,-1.89,-1.95,1785099416124.522
0.605,-0.339,-0.702,-5.28,-2.41,-1.71,1785099416124.8079
0.612,-0.331,-0.708,-7.39,-2.93,-1.89,1785099416125.106
0.622,-0.326,-0.725,-10.74,-3.17,-2.29,1785099416125.3918
0.625,-0.326,-0.737,-14.28,-2.78,-2.87,1785099416125.706
0.621,-0.33,-0.729,-17.18,-2.17,-3.42,1785099416125.975
0.611,-0.341,-0.72,-17.76,-1.65,-3.39,1785099416126.225
0.604,-0.358,-0.715,-14.89,-0.95,-2.69,1785099416126.496
0.593,-0.364,-0.702,-9.98,-0.85,-2.08,1785099416126.765
0.593,-0.347,-0.701,-4.88,-1.43,-1.31,1785099416127.014
0.609,-0.329,-0.719,-0.61,-1.62,-0.31,1785099416127.257
0.621,-0.319,-0.726,0.92,-1.25,-0.31,1785099416127.5188
0.62,-0.316,-0.722,-0.43,-1.1,-1.46,1785099416127.764
0.619,-0.316,-0.718,-3.45,-1.22,-2.23,1785099416128.0068
0.619,-0.329,-0.714,-5.4,-1.25,-2.32,1785099416128.2407
0.615,-0.335,-0.715,-6.38,-1.4,-2.23,1785099416128.4832
0.612,-0.329,-0.719,-6.84,-1.71,-1.98,1785099416128.73
0.609,-0.315,-0.723,-6.59,-1.68,-1.62,1785099416128.9658
0.605,-0.312,-0.722,-4.85,-1.56,-1.19,1785099416129.275
0.604,-0.315,-0.716,-1.22,-1.37,-1.16,1785099416129.516
0.607,-0.328,-0.724,3.78,-0.89,-1.89,1785099416129.751
0.602,-0.323,-0.717,7.87,-0.7,-2.99,1785099416129.998
0.597,-0.328,-0.72,12.48,-0.31,-3.48,1785099416130.2332
0.589,-0.342,-0.714,17.64,0.64,-4.43,1785099416130.464
0.583,-0.35,-0.713,22.58,1.22,-5.95,1785099416130.6748
0.58,-0.356,-0.709,28.02,1.89,-7.26,1785099416130.914
0.58,-0.355,-0.715,33.02,2.5,-8.73,1785099416131.1538
0.584,-0.355,-0.728,36.07,3.75,-10.93,1785099416131.373
0.575,-0.353,-0.712,36.87,4.7,-13.76,1785099416131.599
0.562,-0.354,-0.683,38.64,5.25,-15.93,1785099416131.834
0.553,-0.351,-0.665,44.62,5.77,-17.64,1785099416132.0571
0.539,-0.341,-0.642,54.57,6.23,-19.35,1785099416132.275
0.524,-0.329,-0.62,67.23,7.11,-20.81,1785099416132.4968
0.515,-0.335,-0.608,81.67,8.82,-22.77,1785099416132.719
0.505,-0.352,-0.603,95.28,11.05,-25.88,1785099416132.9392
0.487,-0.371,-0.593,106.94,13.15,-30.09,1785099416133.197
0.452,-0.379,-0.561,115.67,14.95,-34.49,1785099416133.447
0.405,-0.38,-0.51,123.26,15.78,-38.06,1785099416133.698
0.36,-0.381,-0.469,132.15,15.99,-41.35,1785099416133.933
0.341,-0.383,-0.453,142.77,17.06,-44.4,1785099416134.1619
0.371,-0.378,-0.47,152.9,18.1,-46.51,1785099416134.3901
0.429,-0.346,-0.476,158.45,18.07,-49.62,1785099416134.6099
0.459,-0.324,-0.455,159.37,17.12,-53.8,1785099416134.8428
0.455,-0.337,-0.451,156.68,16.91,-57.37,1785099416135.073
0.433,-0.367,-0.443,151.37,17.52,-61.34,1785099416135.303
0.406,-0.404,-0.416,145.82,17.76,-65.22,1785099416135.5251
0.364,-0.439,-0.372,141.61,17.18,-68.67,1785099416135.7778
0.334,-0.457,-0.362,139.04,15.5,-71.14,1785099416136.01
0.357,-0.445,-0.383,137.09,13.28,-71.57,1785099416136.2258
0.391,-0.403,-0.364,134.19,11.17,-70.04,1785099416136.4329
0.42,-0.371,-0.355,130.77,9.34,-67.17,1785099416136.6458
0.441,-0.368,-0.354,126.04,8.73,-64.21,1785099416136.864
0.433,-0.382,-0.345,119.51,9.09,-61.59,1785099416137.069
0.392,-0.411,-0.329,113.53,10.19,-59.02,1785099416137.2832
0.338,-0.424,-0.293,107.52,10.8,-56.03,1785099416137.4988
0.328,-0.43,-0.274,102.54,10.35,-51.18,1785099416137.7148
0.36,-0.425,-0.254,98.09,9.67,-45.56,1785099416137.917
0.416,-0.415,-0.245,94.76,10.13,-39.95,1785099416138.145
0.463,-0.425,-0.222,92.96,11.75,-34.18,1785099416138.3591
0.464,-0.443,-0.193,93.26,13.12,-28.69,1785099416138.5642
0.449,-0.471,-0.189,97.38,15.2,-22.55,1785099416138.7808
0.43,-0.487,-0.155,102.57,17.73,-16.27,1785099416138.998
0.424,-0.476,-0.134,108.19,18.77,-8.0,1785099416139.2122
0.439,-0.485,-0.126,114.66,18.46,1.65,1785099416139.4172
0.45,-0.51,-0.113,119.08,16.85,9.03,1785099416139.6338
0.439,-0.526,-0.128,119.33,15.9,15.38,1785099416139.8489
0.45,-0.523,-0.137,115.73,16.3,24.23,1785099416140.0671
0.45,-0.523,-0.137,111.0,17.21,34.18,1785099416140.299
0.481,-0.522,-0.144,106.94,18.95,43.09,1785099416140.553
0.521,-0.55,-0.152,101.44,21.36,49.87,1785099416140.789
0.557,-0.591,-0.149,93.42,23.16,57.77,1785099416141.039
0.556,-0.597,-0.118,93.42,23.16,57.77,1785099416141.275
0.533,-0.61,-0.097,88.14,24.69,68.64,1785099416141.4941
0.514,-0.632,-0.089,85.63,26.43,79.87,1785099416141.7249
0.485,-0.638,-0.063,83.19,28.78,90.91,1785099416141.955
0.463,-0.648,-0.029,81.21,30.34,103.21,1785099416142.166
0.488,-0.671,-0.045,79.47,29.82,115.85,1785099416142.372
0.562,-0.684,-0.091,77.7,29.76,128.45,1785099416142.575
0.642,-0.693,-0.083,76.02,31.01,141.82,1785099416142.7798
0.677,-0.713,-0.065,72.94,30.55,155.49,1785099416142.986
0.659,-0.75,-0.084,65.68,28.32,168.43,1785099416143.1858
0.599,-0.795,-0.097,52.95,25.42,180.18,1785099416143.393
0.531,-0.837,-0.091,36.01,20.57,192.11,1785099416143.625
0.483,-0.904,-0.102,17.18,13.03,203.25,1785099416143.828
0.46,-0.973,-0.153,-2.08,3.97,211.25,1785099416144.022
0.469,-1.012,-0.205,-18.22,-4.67,218.6,1785099416144.227
0.513,-1.051,-0.23,-27.68,-12.45,228.19,1785099416144.4358
0.544,-1.083,-0.243,-29.54,-20.42,237.37,1785099416144.64
0.537,-1.098,-0.244,-27.07,-29.57,245.25,1785099416144.838
0.484,-1.12,-0.259,-25.06,-39.31,251.26,1785099416145.0469
0.39,-1.162,-0.27,-26.52,-48.22,255.29,1785099416145.2532
0.302,-1.244,-0.321,-28.02,-54.54,257.7,1785099416145.449
0.208,-1.321,-0.4,-30.3,-59.3,256.78,1785099416145.652
0.124,-1.306,-0.458,-37.75,-62.62,254.77,1785099416145.8572
0.092,-1.316,-0.449,-44.59,-61.95,254.28,1785099416146.07
0.068,-1.395,-0.43,-49.84,-58.78,247.9,1785099416146.2678
0.003,-1.413,-0.382,-56.34,-55.76,236.92,1785099416146.475
-0.037,-1.362,-0.318,-59.14,-54.84,229.96,1785099416146.6802
-0.034,-1.34,-0.285,-55.18,-54.08,225.38,1785099416146.8867
-0.034,-1.327,-0.315,-50.81,-53.29,218.97,1785099416147.0872
-0.045,-1.238,-0.346,-51.21,-52.46,213.6,1785099416147.292
-0.071,-1.13,-0.37,-54.51,-54.96,211.68,1785099416147.499
-0.105,-1.113,-0.41,-60.27,-59.94,209.27,1785099416147.71
-0.135,-1.284,-0.453,-67.54,-64.12,204.69,1785099416147.922
-0.183,-1.497,-0.451,-72.6,-64.15,190.77,1785099416148.114
-0.273,-1.556,-0.399,-68.39,-60.0,171.42,1785099416148.308
-0.363,-1.451,-0.36,-48.59,-54.05,161.75,1785099416148.4958
-0.36,-1.313,-0.407,-21.21,-52.43,165.32,1785099416148.692
-0.333,-1.136,-0.45,-2.08,-50.78,168.74,1785099416148.886
-0.321,-0.971,-0.473,4.73,-46.17,171.7,1785099416149.0737
-0.348,-0.89,-0.5,0.06,-43.92,173.53,1785099416149.2678
-0.367,-0.858,-0.501,-18.31,-44.04,171.42,1785099416149.466
-0.417,-0.887,-0.466,-42.36,-41.38,162.85,1785099416149.718
-0.479,-1.046,-0.458,-64.12,-37.81,152.75,1785099416149.906
-0.499,-1.19,-0.416,-82.46,-37.66,142.12,1785099416150.126
-0.568,-1.171,-0.32,-85.39,-34.46,129.4,1785099416150.341
-0.578,-1.149,-0.313,-66.65,-31.68,128.91,1785099416150.5332
-0.612,-1.068,-0.323,-40.47,-30.06,127.69,1785099416150.7258
-0.636,-0.98,-0.346,-17.43,-29.66,129.98,1785099416150.924
-0.651,-0.889,-0.355,-1.43,-28.93,134.31,1785099416151.1208
-0.637,-0.791,-0.363,7.23,-29.18,137.67,1785099416151.309
-0.602,-0.73,-0.392,9.55,-28.63,135.47,1785099416151.5059
-0.623,-0.751,-0.451,3.08,-26.67,126.01,1785099416151.72
-0.67,-0.807,-0.476,-14.56,-22.95,113.71,1785099416151.921
-0.762,-0.833,-0.436,-33.27,-18.74,103.0,1785099416152.11
-0.838,-0.853,-0.374,-40.83,-16.45,100.34,1785099416152.311
-0.86,-0.875,-0.337,-36.77,-16.33,102.66,1785099416152.534
-0.865,-0.854,-0.313,-25.7,-15.47,103.27,1785099416152.7559
-0.847,-0.819,-0.319,-13.49,-14.25,102.11,1785099416153.0
-0.828,-0.743,-0.324,-8.12,-13.0,95.83,1785099416153.2202
-0.818,-0.672,-0.325,-9.58,-11.02,90.4,1785099416153.4111
-0.827,-0.626,-0.333,-14.47,-9.64,87.1,1785099416153.595
-0.829,-0.593,-0.334,-21.7,-10.53,85.18,1785099416153.789
-0.86,-0.565,-0.335,-28.02,-12.6,83.99,1785099416153.9788
-0.863,-0.56,-0.343,-32.04,-15.14,85.97,1785099416154.161
-0.876,-0.543,-0.343,-34.73,-16.33,86.28,1785099416154.349
-0.909,-0.534,-0.345,-36.71,-16.82,86.95,1785099416154.536
-0.924,-0.54,-0.36,-39.12,-18.4,89.48,1785099416154.725
-0.917,-0.527,-0.376,-42.54,-18.98,90.46,1785099416154.907
-0.913,-0.496,-0.367,-45.11,-17.37,89.24,1785099416155.0952
-0.923,-0.462,-0.351,-46.17,-15.78,86.86,1785099416155.284
-0.912,-0.44,-0.322,-47.09,-14.98,84.48,1785099416155.4648
-0.92,-0.411,-0.292,-48.37,-15.81,80.97,1785099416155.6558
-0.889,-0.405,-0.276,-47.36,-15.72,78.49,1785099416155.8442
-0.871,-0.406,-0.287,-45.17,-13.76,72.39,1785099416156.03
-0.894,-0.394,-0.299,-45.05,-13.4,64.42,1785099416156.211
-0.913,-0.409,-0.306,-45.5,-13.98,60.27,1785099416156.4019
-0.915,-0.442,-0.319,-44.01,-13.79,57.8,1785099416156.6091
-0.917,-0.446,-0.316,-40.96,-13.31,54.11,1785099416156.79
-0.916,-0.428,-0.299,-36.23,-12.51,50.42,1785099416156.982
-0.9,-0.417,-0.294,-29.85,-10.83,46.57,1785099416157.17
-0.904,-0.402,-0.296,-25.18,-9.4,41.11,1785099416157.357
-0.908,-0.388,-0.299,-22.52,-8.61,36.84,1785099416157.54
-0.908,-0.388,-0.307,-19.32,-7.48,33.42,1785099416157.727
-0.906,-0.384,-0.324,-15.14,-5.86,29.85,1785099416157.912
-0.909,-0.374,-0.33,-10.56,-4.18,26.61,1785099416158.088
-0.918,-0.36,-0.324,-5.86,-2.75,23.96,1785099416158.274
-0.925,-0.345,-0.318,-1.5,-1.8,22.06,1785099416158.456
-0.921,-0.338,-0.318,2.35,-0.76,20.48,1785099416158.632
-0.915,-0.344,-0.321,5.65,0.49,18.43,1785099416158.8071
-0.916,-0.354,-0.323,8.39,1.56,16.45,1785099416158.988
-0.906,-0.379,-0.328,15.56,3.33,13.92,1785099416159.342
-0.897,-0.378,-0.33,20.45,4.21,13.0,1785099416159.518
-0.912,-0.224,-0.307,2.17,-0.24,3.36,1785099416159.843
-0.91,-0.223,-0.31,2.26,0.0,3.27,1785099416160.017
-0.905,-0.217,-0.309,2.01,0.12,3.23,1785099416160.1929
-0.904,-0.215,-0.305,1.53,0.18,2.75,1785099416169.812
-0.91,-0.214,-0.304,0.92,0.12,2.08,1785099416180.157
-0.908,-0.213,-0.301,0.27,0.12,1.71,1785099416193.434
-0.911,-0.214,-0.301,0.06,0.27,1.07,1785099416198.8262
-0.913,-0.216,-0.299,0.0,0.21,0.73,1785099416209.0881
-0.907,-0.218,-0.296,0.37,0.27,0.85,1785099416219.505
-0.908,-0.218,-0.297,1.34,0.4,0.79,1785099416229.841
-0.907,-0.216,-0.301,1.98,0.24,1.13,1785099416240.2593
-0.903,-0.215,-0.3,2.11,0.37,1.37,1785099416253.508
-0.906,-0.213,-0.301,1.71,0.61,1.16,1785099416258.944
-0.904,-0.208,-0.299,0.95,0.43,1.4,1785099416269.1982
-0.901,-0.206,-0.297,0.52,0.43,1.46,1785099416279.594
-0.903,-0.206,-0.298,0.18,0.52,1.25,1785099416289.9539
-0.908,-0.207,-0.298,-0.4,0.34,0.85,1785099416300.369
-0.908,-0.207,-0.298,-0.85,0.34,0.76,1785099416313.615
-0.911,-0.208,-0.293,-0.64,0.21,0.98,1785099416319.0898
-0.913,-0.211,-0.292,0.0,0.15,1.01,1785099416329.325
-0.913,-0.214,-0.293,0.61,0.37,0.92,1785099416339.7278
-0.913,-0.214,-0.293,0.89,0.43,1.04,1785099416350.156
-0.912,-0.209,-0.293,0.89,0.43,1.04,1785099416360.4941
-0.906,-0.206,-0.293,0.92,0.34,1.37,1785099416373.848
-0.905,-0.208,-0.294,1.1,0.27,1.28,1785099416379.468
-0.908,-0.207,-0.293,1.13,0.18,0.98,1785099416389.525
-0.911,-0.205,-0.293,0.52,0.12,0.79,1785099416399.9512
-0.912,-0.21,-0.292,-0.24,0.06,0.31,1785099416410.287
-0.912,-0.206,-0.292,-0.95,0.09,0.06,1785099416420.699
-0.908,-0.207,-0.292,-0.98,-0.18,0.21,1785099416433.992
-0.905,-0.204,-0.289,-0.92,-0.55,0.52,1785099416439.7703
-0.905,-0.203,-0.29,-0.98,-0.82,0.73,1785099416449.685
-0.905,-0.2,-0.292,-1.1,-1.22,1.19,1785099416460.027
-0.902,-0.202,-0.294,-1.31,-1.59,2.35,1785099416470.403
-0.903,-0.209,-0.299,-1.83,-1.86,3.48,1785099416484.025
-0.902,-0.216,-0.309,-3.17,-2.41,4.61,1785099416488.917
-0.903,-0.216,-0.309,-5.71,-2.78,6.04,1785099416499.3223
-0.899,-0.216,-0.304,-8.73,-2.96,7.2,1785099416509.644
-0.89,-0.215,-0.297,-11.35,-3.36,8.67,1785099416520.213
-0.884,-0.214,-0.297,-12.85,-3.91,9.98,1785099416530.6182
-0.882,-0.217,-0.3,-13.89,-4.67,10.9,1785099416543.904
-0.886,-0.219,-0.302,-15.05,-5.16,11.32,1785099416549.8098
-0.889,-0.219,-0.303,-16.57,-5.34,11.51,1785099416560.051
-0.892,-0.22,-0.301,-17.82,-5.52,11.6,1785099416570.6858
-0.896,-0.212,-0.294,-18.89,-5.98,11.84,1785099416583.9622
-0.897,-0.2,-0.29,-18.92,-6.68,12.82,1785099416589.797
-0.898,-0.188,-0.292,-18.52,-7.14,13.55,1785099416600.373
-0.903,-0.189,-0.309,-18.8,-7.29,13.82,1785099416610.6802
-0.907,-0.191,-0.326,-20.57,-7.11,13.43,1785099416623.918
-0.912,-0.196,-0.336,-22.74,-6.74,13.03,1785099416629.7832
-0.918,-0.195,-0.331,-24.51,-6.26,13.18,1785099416640.11
-0.92,-0.182,-0.321,-24.99,-6.04,14.31,1785099416650.788
-0.923,-0.16,-0.322,-24.17,-6.29,16.14,1785099416663.885
-0.928,-0.145,-0.337,-23.22,-6.2,18.1,1785099416669.874
-0.938,-0.152,-0.356,-23.93,-5.43,18.22,1785099416679.97
-0.949,-0.165,-0.367,-26.4,-3.88,17.0,1785099416690.619
-0.952,-0.185,-0.364,-28.63,-1.92,15.96,1785099416703.938
-0.952,-0.201,-0.352,-28.84,-0.18,15.11,1785099416710.075
-0.952,-0.194,-0.336,-27.01,1.01,14.19,1785099416720.143
-0.944,-0.177,-0.326,-23.65,1.92,13.37,1785099416730.725
-0.938,-0.154,-0.326,-19.29,2.72,11.6,1785099416743.896
-0.931,-0.14,-0.333,-15.29,3.94,8.76,1785099416749.9631
-0.928,-0.143,-0.341,-11.57,5.31,5.34,1785099416759.9202
-0.93,-0.156,-0.346,-8.06,6.81,1.98,1785099416770.362
-0.925,-0.177,-0.349,-3.91,8.42,-1.01,1785099416780.71
-0.923,-0.203,-0.352,0.79,10.1,-3.88,1785099416793.8909
-0.924,-0.215,-0.349,5.13,11.38,-6.53,1785099416799.813
-0.922,-0.218,-0.355,9.61,12.21,-8.55,1785099416809.888
-0.922,-0.223,-0.358,13.15,13.12,-11.14,1785099416820.6348
-0.946,-0.246,-0.361,14.86,13.25,-14.4,1785099416834.036
-0.899,-0.268,-0.389,11.87,13.89,-19.14,1785099416839.81
-0.884,-0.244,-0.409,6.23,13.95,-23.8,1785099416850.441
-0.856,-0.228,-0.439,1.77,15.11,-25.33,1785099416860.728
-0.855,-0.193,-0.434,-2.59,16.91,-26.49,1785099416873.7368
-0.862,-0.193,-0.435,-5.74,17.7,-26.18,1785099416879.803
-0.89,-0.23,-0.42,-8.12,17.88,-26.4,1785099416890.111
-0.915,-0.279,-0.407,-6.59,18.34,-26.7,1785099416900.845
-0.919,-0.32,-0.407,-1.86,19.93,-25.91,1785099416913.9468
-0.916,-0.342,-0.4,1.46,20.97,-24.29,1785099416920.002
-0.886,-0.357,-0.446,2.14,21.39,-22.46,1785099416930.104
-0.884,-0.327,-0.472,-5.62,22.22,-22.98,1785099416940.723
-0.887,-0.34,-0.474,-14.37,23.62,-23.77,1785099416954.008
-0.879,-0.367,-0.463,-19.44,25.36,-27.31,1785099416959.8533
-0.869,-0.359,-0.453,-20.72,26.55,-31.1,1785099416970.441
-0.852,-0.334,-0.47,-18.56,27.16,-32.44,1785099416983.874
-0.852,-0.309,-0.503,-16.08,27.71,-33.69,1785099416989.6782
-0.878,-0.304,-0.532,-16.42,28.81,-35.8,1785099417000.692
-0.904,-0.329,-0.547,-20.11,30.21,-39.16,1785099417010.831
-0.913,-0.357,-0.555,-25.73,31.56,-42.91,1785099417023.993
-0.905,-0.371,-0.571,-31.4,33.2,-45.05,1785099417029.9158
-0.889,-0.374,-0.597,-37.14,35.07,-45.84,1785099417040.49
-0.864,-0.375,-0.636,-43.95,37.42,-46.42,1785099417053.8308
-0.849,-0.376,-0.655,-51.48,40.35,-47.43,1785099417059.763
-0.856,-0.385,-0.652,-57.65,43.15,-48.43,1785099417070.194
-0.868,-0.395,-0.644,-60.91,45.72,-48.98,1785099417083.801
-0.876,-0.396,-0.639,-60.58,48.34,-49.04,1785099417089.3389
-0.882,-0.398,-0.643,-57.44,51.03,-48.83,1785099417100.075
-0.887,-0.4,-0.661,-52.61,53.35,-49.2,1785099417110.4907
-0.896,-0.4,-0.694,-48.01,55.7,-49.41,1785099417123.842
-0.898,-0.403,-0.73,-44.53,58.57,-49.23,1785099417129.75
-0.894,-0.407,-0.751,-41.78,62.14,-48.59,1785099417140.2458
-0.894,-0.413,-0.741,-38.33,66.16,-48.34,1785099417153.2747
-0.899,-0.423,-0.72,-32.69,69.37,-48.52,1785099417159.204
-0.911,-0.427,-0.725,-26.09,71.54,-48.74,1785099417169.9463
-0.916,-0.421,-0.76,-21.09,73.76,-49.44,1785099417180.65
-0.916,-0.417,-0.804,-19.1,76.48,-50.69,1785099417193.781
-0.911,-0.429,-0.846,-18.89,79.93,-52.55,1785099417199.814
-0.902,-0.439,-0.866,-19.23,83.53,-54.84,1785099417210.3127
-0.89,-0.44,-0.869,-18.34,86.83,-56.73,1785099417223.5342
-0.887,-0.437,-0.867,-16.36,89.72,-58.32,1785099417229.562
-0.895,-0.432,-0.878,-14.74,92.26,-59.94,1785099417239.9941
-0.902,-0.436,-0.9,-14.28,95.28,-61.92,1785099417250.69
-0.9,-0.441,-0.912,-14.95,98.36,-63.88,1785099417263.883
-0.895,-0.434,-0.926,-15.78,101.69,-66.04,1785099417269.815
-0.888,-0.424,-0.909,-15.47,105.53,-66.87,1785099417280.52
-0.876,-0.424,-0.887,-11.69,108.22,-66.87,1785099417293.731
-0.866,-0.429,-0.882,-5.92,110.2,-66.47,1785099417300.0068
-0.864,-0.443,-0.885,0.82,112.03,-66.16,1785099417310.297
-0.866,-0.463,-0.904,7.11,113.68,-66.01,1785099417323.519
-0.861,-0.475,-0.933,10.53,115.48,-66.53,1785099417329.4402
-0.842,-0.468,-0.956,10.41,117.44,-66.71,1785099417340.1877
-0.81,-0.456,-0.977,6.93,119.33,-66.19,1785099417353.4392
-0.789,-0.444,-0.984,-0.06,120.64,-66.13,1785099417359.555
-0.789,-0.437,-0.962,-8.94,121.65,-66.23,1785099417369.8982
-0.797,-0.447,-0.924,-16.02,122.38,-66.62,1785099417380.626
-0.789,-0.477,-0.899,-17.88,123.23,-68.36,1785099417393.854
-0.769,-0.483,-0.899,-16.02,124.21,-70.47,1785099417399.816
-0.748,-0.47,-0.909,-12.82,125.25,-71.66,1785099417410.384
-0.723,-0.465,-0.939,-10.53,126.38,-72.57,1785099417423.842
-0.698,-0.454,-0.967,-11.41,127.54,-73.46,1785099417429.729
-0.672,-0.445,-0.967,-14.89,128.48,-73.67,1785099417440.522
-0.663,-0.446,-0.945,-17.82,129.09,-73.24,1785099417453.791
-0.669,-0.455,-0.902,-18.49,129.31,-72.91,1785099417459.7278
-0.665,-0.457,-0.851,-16.63,128.67,-72.36,1785099417470.51
-0.638,-0.448,-0.838,-12.67,127.72,-71.6,1785099417483.832
-0.601,-0.429,-0.863,-9.67,127.26,-71.11,1785099417489.397
-0.569,-0.41,-0.884,-10.01,127.02,-70.71,1785099417500.5388
-0.533,-0.405,-0.905,-14.25,126.62,-70.19,1785099417513.651
-0.491,-0.39,-0.929,-21.97,126.19,-69.83,1785099417519.768
-0.464,-0.381,-0.913,-29.69,126.32,-69.31,1785099417530.3638
-0.443,-0.387,-0.855,-35.07,126.32,-68.91,1785099417543.5789
-0.429,-0.396,-0.773,-34.52,125.31,-68.03,1785099417549.6042
-0.41,-0.409,-0.723,-26.31,123.2,-66.32,1785099417560.3142
-0.38,-0.403,-0.715,-13.86,121.04,-64.12,1785099417573.559
-0.344,-0.387,-0.738,-1.92,118.56,-61.74,1785099417579.452
-0.308,-0.37,-0.782,4.79,116.86,-60.09,1785099417590.078
-0.308,-0.37,-0.782,4.52,116.06,-59.45,1785099417601.2139
-0.284,-0.352,-0.792,-1.13,114.54,-59.54,1785099417614.034
-0.257,-0.339,-0.781,-8.58,112.83,-59.39,1785099417620.0881
-0.217,-0.326,-0.766,-14.19,110.84,-58.29,1785099417630.549
-0.179,-0.317,-0.74,-17.09,108.83,-56.7,1785099417643.861
-0.147,-0.317,-0.714,-17.09,108.83,-56.7,1785099417649.7742
-0.13,-0.326,-0.673,-16.51,106.66,-54.6,1785099417660.7249
-0.11,-0.344,-0.655,-11.93,103.64,-52.61,1785099417673.837
-0.087,-0.347,-0.646,-4.97,100.56,-50.84,1785099417679.77
-0.07,-0.329,-0.631,2.08,97.42,-48.4,1785099417690.191
-0.04,-0.317,-0.637,8.18,94.49,-45.81,1785099417700.9028
-0.002,-0.301,-0.641,10.71,92.17,-44.19,1785099417714.0312
0.041,-0.297,-0.643,10.07,89.63,-43.15,1785099417720.307
0.088,-0.297,-0.656,7.32,87.34,-42.42,1785099417730.414
0.132,-0.312,-0.656,4.7,85.02,-42.36,1785099417743.4912
0.134,-0.294,-0.621,2.44,82.09,-43.73,1785099417749.623
0.127,-0.272,-0.592,2.41,78.55,-43.46,1785099417759.802
0.129,-0.258,-0.593,4.7,75.53,-42.57,1785099417770.416
0.13,-0.235,-0.573,6.04,72.39,-41.38,1785099417783.805
0.157,-0.212,-0.567,7.32,68.7,-38.45,1785099417789.523
0.203,-0.207,-0.566,8.67,65.49,-35.28,1785099417800.0068
0.237,-0.211,-0.574,9.19,61.74,-32.99,1785099417810.329
0.248,-0.196,-0.574,8.27,58.41,-30.43,1785099417823.6558
0.253,-0.201,-0.573,7.84,55.54,-27.16,1785099417829.533
0.248,-0.212,-0.569,6.62,52.64,-24.84,1785099417839.8608
0.25,-0.219,-0.574,4.94,49.71,-22.98,1785099417850.796
0.27,-0.233,-0.582,3.54,47.03,-21.27,1785099417863.6182
0.293,-0.235,-0.583,2.04,44.34,-20.11,1785099417869.66
0.312,-0.222,-0.592,0.55,41.47,-18.62,1785099417879.6968
0.33,-0.221,-0.594,-1.04,39.28,-16.69,1785099417890.197
0.345,-0.225,-0.597,-2.84,36.96,-15.72,1785099417903.7703
0.364,-0.229,-0.599,-3.85,34.64,-15.14,1785099417909.538
0.372,-0.24,-0.586,-1.77,32.38,-14.86,1785099417919.8699
0.375,-0.247,-0.584,2.69,29.73,-14.44,1785099417930.398
0.382,-0.252,-0.596,8.09,27.22,-14.01,1785099417943.6
0.391,-0.248,-0.616,12.27,24.75,-13.92,1785099417949.6008
0.403,-0.244,-0.653,13.49,22.46,-14.07,1785099417960.069
0.415,-0.235,-0.666,8.91,20.51,-14.86,1785099417970.594
0.426,-0.243,-0.673,1.34,18.04,-15.9,1785099417983.9868
0.446,-0.261,-0.696,-6.26,16.21,-16.45,1785099417989.738
0.456,-0.266,-0.693,-12.94,15.08,-16.63,1785099418000.226
0.446,-0.268,-0.673,-15.75,13.73,-15.99,1785099418010.7363
0.429,-0.282,-0.654,-13.55,12.09,-14.89,1785099418024.062
0.422,-0.287,-0.646,-8.61,10.07,-14.5,1785099418029.9202
0.438,-0.287,-0.661,-2.2,8.36,-14.92,1785099418040.1863
0.47,-0.281,-0.712,2.78,7.05,-16.27,1785099418052.1228
0.505,-0.263,-0.77,2.26,6.71,-18.68,1785099418064.069
0.516,-0.243,-0.791,-2.93,7.2,-21.55,1785099418069.916
0.492,-0.237,-0.774,-7.39,8.15,-23.77,1785099418079.9941
0.449,-0.233,-0.733,-7.14,8.36,-25.48,1785099418090.385
0.418,-0.224,-0.703,-0.18,7.45,-26.98,1785099418101.476
0.408,-0.209,-0.689,10.96,6.87,-27.65,1785099418113.945
0.413,-0.2,-0.684,22.77,6.65,-27.92,1785099418120.0918
0.415,-0.208,-0.676,31.77,6.07,-28.84,1785099418130.371
0.411,-0.235,-0.661,36.62,5.37,-29.73,1785099418140.9421
0.417,-0.265,-0.66,39.98,5.43,-29.94,1785099418153.881
0.422,-0.273,-0.658,45.26,7.17,-28.84,1785099418159.709
0.43,-0.259,-0.666,56.09,9.98,-25.57,1785099418170.326
0.441,-0.267,-0.679,72.82,13.67,-21.55,1785099418183.664
0.427,-0.297,-0.683,90.95,17.15,-19.38,1785099418189.54
0.375,-0.322,-0.677,107.46,19.75,-19.78,1785099418200.1292
0.328,-0.348,-0.652,121.34,21.85,-20.6,1785099418210.763
0.308,-0.375,-0.617,131.84,23.56,-20.69,1785099418223.978
0.328,-0.392,-0.595,137.55,25.67,-20.23,1785099418229.836
0.342,-0.38,-0.577,136.48,28.6,-21.12,1785099418240.735
0.318,-0.368,-0.559,129.7,31.89,-24.38,1785099418254.026
0.259,-0.386,-0.529,118.84,35.22,-31.95,1785099418260.278
0.177,-0.399,-0.505,106.85,37.87,-42.7,1785099418270.74
0.14,-0.403,-0.506,98.27,40.41,-51.45,1785099418283.9648
0.147,-0.407,-0.476,93.97,42.6,-56.76,1785099418289.824
0.161,-0.415,-0.461,93.02,43.4,-60.4,1785099418300.4602
0.17,-0.408,-0.453,93.75,46.24,-63.39,1785099418313.61
0.189,-0.399,-0.428,95.34,51.27,-65.07,1785099418319.7341
0.217,-0.403,-0.415,97.35,55.7,-65.65,1785099418330.106
0.221,-0.39,-0.403,96.16,58.32,-66.29,1785099418340.7402
0.207,-0.384,-0.384,92.35,58.6,-65.86,1785099418353.7632
0.165,-0.41,-0.344,86.12,56.83,-64.67,1785099418359.597
0.095,-0.432,-0.315,77.12,52.86,-64.52,1785099418370.434
0.044,-0.455,-0.325,69.73,49.07,-64.58,1785099418383.882
0.035,-0.451,-0.314,63.26,48.55,-61.4,1785099418389.642
0.08,-0.425,-0.254,58.08,49.96,-52.4,1785099418400.1868
0.163,-0.423,-0.194,56.49,49.32,-40.25,1785099418410.767
0.261,-0.431,-0.163,56.37,45.56,-28.57,1785099418424.0288
0.319,-0.437,-0.151,56.15,39.03,-17.98,1785099418429.971
0.316,-0.455,-0.165,55.57,30.27,-8.24,1785099418440.5
0.275,-0.464,-0.179,52.86,20.91,0.37,1785099418453.64
0.246,-0.46,-0.174,48.52,11.41,9.92,1785099418459.542
0.278,-0.469,-0.198,44.31,2.29,21.12,1785099418469.824
0.335,-0.475,-0.218,40.19,-4.33,33.57,1785099418480.4102
0.378,-0.507,-0.215,39.7,-10.56,47.52,1785099418493.66
0.411,-0.574,-0.218,44.53,-17.12,60.12,1785099418499.743
0.423,-0.663,-0.231,51.64,-23.53,69.46,1785099418510.1208
0.439,-0.723,-0.261,56.86,-32.2,77.73,1785099418520.759
0.458,-0.717,-0.299,58.53,-42.66,89.05,1785099418534.1282
0.465,-0.662,-0.337,56.34,-53.96,104.5,1785099418539.91
0.466,-0.626,-0.401,51.03,-65.16,121.62,1785099418550.7231
0.457,-0.64,-0.451,42.48,-73.98,134.95,1785099418563.911
0.438,-0.69,-0.445,31.46,-80.9,144.2,1785099418569.895
0.414,-0.779,-0.414,24.6,-87.8,152.59,1785099418580.649
0.399,-0.901,-0.415,24.38,-95.71,160.01,1785099418593.8198
0.39,-0.968,-0.466,25.12,-104.8,166.81,1785099418600.0562
0.397,-0.967,-0.561,24.87,-114.41,174.63,1785099418610.754
0.416,-0.92,-0.644,21.15,-123.51,182.62,1785099418624.0032
0.423,-0.845,-0.678,12.91,-133.09,188.94,1785099418629.9038
0.423,-0.846,-0.684,5.52,-142.55,194.49,1785099418643.38
0.399,-0.931,-0.712,0.0,-150.73,198.07,1785099418649.3472
0.345,-1.013,-0.755,-3.94,-157.05,199.77,1785099418660.086
0.287,-1.075,-0.811,-3.91,-161.99,202.73,1785099418670.857
0.235,-1.108,-0.887,-2.32,-164.01,206.0,1785099418684.1482
0.177,-1.139,-0.978,-3.85,-162.39,208.17,1785099418690.0051
0.105,-1.138,-1.041,-13.73,-158.7,210.03,1785099418703.4932
0.039,-1.117,-1.05,-30.21,-154.55,212.04,1785099418709.2559
-0.016,-1.126,-1.019,-48.62,-151.19,210.43,1785099418720.243
-0.061,-1.14,-0.951,-66.23,-148.23,202.46,1785099418733.707
-0.097,-1.136,-0.868,-75.66,-145.48,192.02,1785099418739.839
-0.109,-1.136,-0.791,-69.4,-142.86,184.18,1785099418750.773
-0.113,-1.12,-0.798,-50.2,-141.54,178.99,1785099418763.4922
-0.128,-1.044,-0.888,-29.11,-139.01,177.86,1785099418769.867
-0.174,-0.956,-0.935,-11.9,-134.5,181.65,1785099418780.753
-0.14,-0.967,-0.971,-2.38,-134.28,190.19,1785099418793.98
-0.117,-0.9,-0.989,-1.34,-130.22,184.67,1785099418800.41
-0.244,-0.84,-0.96,-8.45,-114.26,176.52,1785099418810.718
-0.293,-0.945,-0.961,-22.98,-107.36,179.05,1785099418823.9592
-0.38,-0.993,-0.898,-46.78,-109.74,174.87,1785099418829.8782
-0.393,-0.985,-0.81,-62.07,-111.03,175.42,1785099418843.395
-0.4,-0.982,-0.76,-56.98,-109.26,179.14,1785099418849.511
-0.422,-0.976,-0.769,-38.94,-109.5,181.37,1785099418860.5051
-0.442,-0.969,-0.82,-17.98,-109.23,178.23,1785099418873.64
-0.515,-0.944,-0.8,-3.27,-104.25,170.11,1785099418879.541
-0.515,-0.944,-0.8,8.64,-98.91,165.62,1785099418890.342
-0.57,-0.899,-0.741,23.44,-93.23,163.82,1785099418903.744
-0.565,-0.853,-0.695,39.43,-87.74,159.43,1785099418909.576
-0.572,-0.808,-0.672,53.41,-83.8,156.38,1785099418920.4932
-0.64,-0.806,-0.668,53.41,-83.8,156.38,1785099418933.8691
-0.658,-0.847,-0.694,62.17,-79.29,155.34,1785099418939.5562
-0.718,-0.825,-0.713,58.14,-78.62,151.89,1785099418950.457
-0.706,-0.76,-0.685,47.67,-74.37,149.97,1785099418963.459
-0.711,-0.732,-0.672,38.06,-67.14,144.26,1785099418969.645
-0.766,-0.706,-0.627,26.06,-57.41,133.03,1785099418980.316
-0.895,-0.716,-0.606,13.98,-58.08,129.34,1785099418993.4531
-0.884,-0.777,-0.585,5.01,-64.3,135.62,1785099418999.491
-0.844,-0.767,-0.53,3.23,-61.62,134.07,1785099419009.9578
-0.855,-0.699,-0.504,7.54,-55.6,127.63,1785099419020.501
-0.88,-0.626,-0.493,9.52,-52.37,123.11,1785099419034.05
-0.888,-0.595,-0.487,7.45,-51.15,118.72,1785099419040.052
-0.922,-0.587,-0.475,2.38,-51.06,113.22,1785099419050.488
-0.926,-0.592,-0.474,-3.05,-51.58,109.35,1785099419063.6401
-0.914,-0.583,-0.476,-6.32,-49.9,105.72,1785099419069.58
-0.927,-0.553,-0.487,-8.36,-47.4,102.69,1785099419079.932
-0.939,-0.517,-0.49,-11.32,-45.69,101.44,1785099419090.611
-0.95,-0.469,-0.474,-16.14,-44.31,100.5,1785099419104.2502
-0.942,-0.436,-0.46,-20.78,-42.63,99.55,1785099419110.06
-0.926,-0.443,-0.449,-23.77,-39.98,95.31,1785099419120.607
-0.932,-0.434,-0.427,-26.86,-37.57,88.29,1785099419134.068
-0.938,-0.411,-0.408,-29.24,-36.38,83.47,1785099419139.8132
-0.917,-0.4,-0.4,-31.34,-36.41,78.68,1785099419150.1792
-0.894,-0.381,-0.39,-35.52,-35.1,70.68,1785099419163.5598
-0.878,-0.382,-0.387,-39.92,-32.9,61.74,1785099419169.5737
-0.896,-0.381,-0.378,-45.08,-31.89,53.38,1785099419179.95
-0.915,-0.362,-0.366,-49.1,-31.46,47.94,1785099419190.5898
-0.917,-0.339,-0.36,-49.5,-30.49,45.63,1785099419203.911
-0.904,-0.322,-0.355,-46.6,-29.66,44.47,1785099419209.7722
-0.898,-0.309,-0.36,-41.9,-28.72,42.18,1785099419220.233
-0.903,-0.287,-0.362,-36.9,-27.41,39.58,1785099419233.7651
-0.901,-0.27,-0.372,-31.46,-25.85,37.08,1785099419239.506
-0.896,-0.256,-0.39,-26.86,-23.8,34.49,1785099419250.061
-0.899,-0.246,-0.395,-23.87,-21.33,31.68,1785099419260.6458
-0.91,-0.224,-0.381,-22.03,-18.8,30.0,1785099419273.902
-0.908,-0.202,-0.365,-20.29,-16.63,29.69,1785099419279.851
-0.904,-0.191,-0.338,-18.43,-14.83,29.02,1785099419290.3838
-0.902,-0.17,-0.311,-17.3,-13.4,27.47,1785099419303.477
-0.888,-0.167,-0.304,-16.11,-11.99,25.91,1785099419309.511
-0.881,-0.191,-0.313,-15.5,-10.41,22.22,1785099419320.101
-0.889,-0.209,-0.31,-16.79,-9.16,17.76,1785099419330.4739
-0.889,-0.23,-0.318,-16.97,-8.67,15.11,1785099419343.827
-0.893,-0.247,-0.333,-15.66,-7.97,12.79,1785099419349.5159
-0.9,-0.255,-0.34,-13.55,-6.84,9.95,1785099419360.002
-0.898,-0.261,-0.333,-9.34,-5.16,7.05,1785099419370.374
-0.896,-0.262,-0.33,-2.23,-3.57,4.09,1785099419380.864
-0.896,-0.243,-0.339,4.24,-2.38,1.37,1785099419393.9941
-0.891,-0.22,-0.351,7.48,-0.76,-0.85,1785099419399.728
-0.888,-0.213,-0.365,5.65,1.34,-4.94,1785099419409.6301
-0.888,-0.217,-0.373,-1.19,2.9,-10.38,1785099419420.167
-0.89,-0.22,-0.374,-10.99,3.48,-14.47,1785099419430.5178
-0.883,-0.228,-0.373,-19.96,3.66,-15.96,1785099419443.934
-0.879,-0.245,-0.373,-25.64,3.97,-16.85,1785099419449.92
-0.885,-0.259,-0.37,-27.92,4.67,-17.98,1785099419460.133
-0.893,-0.271,-0.36,-27.01,5.43,-18.92,1785099419470.514
-0.9,-0.277,-0.351,-23.9,5.71,-19.47,1785099419484.0178
-0.897,-0.282,-0.337,-18.49,6.59,-19.44,1785099419489.532
-0.899,-0.289,-0.331,-10.25,8.73,-18.52,1785099419500.277
-0.912,-0.301,-0.342,-0.31,10.77,-17.7,1785099419510.669
-0.92,-0.302,-0.374,6.59,11.32,-18.01,1785099419523.9612
-0.928,-0.274,-0.398,7.72,11.99,-19.1,1785099419529.8381
-0.93,-0.261,-0.424,5.01,13.89,-19.29,1785099419540.155
-0.926,-0.261,-0.439,-0.4,15.9,-19.35,1785099419550.871
-0.926,-0.272,-0.428,-5.89,17.24,-20.36,1785099419563.9521
-0.935,-0.295,-0.403,-8.61,17.64,-21.88,1785099419569.935
-0.942,-0.318,-0.398,-7.57,17.09,-23.99,1785099419580.123
-0.94,-0.324,-0.421,-3.97,16.91,-25.85,1785099419590.718
-0.936,-0.326,-0.454,1.13,17.15,-27.5,1785099419604.086
-0.926,-0.34,-0.514,5.98,18.46,-30.0,1785099419609.905
-0.923,-0.347,-0.557,7.26,21.55,-32.26,1785099419620.224
-0.926,-0.351,-0.553,5.25,24.96,-33.88,1785099419630.6392
-0.929,-0.366,-0.536,2.26,27.53,-35.8,1785099419643.9412
-0.934,-0.366,-0.518,-0.64,29.91,-37.66,1785099419649.983
-0.932,-0.36,-0.517,-2.2,32.47,-38.76,1785099419660.1829
-0.925,-0.351,-0.534,-2.72,35.25,-40.38,1785099419670.781
-0.921,-0.342,-0.553,-3.88,37.81,-42.51,1785099419684.0168
-0.905,-0.357,-0.569,-5.07,40.47,-45.11,1785099419689.833
-0.898,-0.387,-0.593,-6.1,43.12,-49.04,1785099419700.5889
-0.898,-0.407,-0.601,-8.0,46.57,-52.61,1785099419710.686
-0.909,-0.432,-0.599,-9.19,50.05,-55.3,1785099419723.912
-0.924,-0.438,-0.598,-10.71,53.1,-57.65,1785099419729.82
-0.941,-0.431,-0.603,-12.94,56.09,-59.97,1785099419740.358
-0.954,-0.414,-0.605,-17.06,58.53,-62.29,1785099419753.608
-0.954,-0.401,-0.608,-21.94,60.43,-64.82,1785099419759.657
-0.941,-0.405,-0.625,-26.03,62.32,-67.57,1785099419770.061
-0.933,-0.408,-0.638,-29.33,64.33,-69.46,1785099419780.6987
-0.929,-0.421,-0.647,-30.52,66.5,-69.61,1785099419793.8838
-0.931,-0.445,-0.657,-29.39,68.45,-69.34,1785099419799.967
-0.939,-0.463,-0.665,-27.86,69.86,-69.15,1785099419810.4163
-0.959,-0.473,-0.672,-26.83,70.99,-68.33,1785099419823.617
-0.976,-0.482,-0.68,-26.89,72.36,-68.06,1785099419829.532
-0.969,-0.481,-0.685,-28.05,74.19,-68.64,1785099419840.092
-0.948,-0.476,-0.693,-28.9,76.17,-69.77,1785099419850.834
-0.93,-0.473,-0.712,-29.24,78.31,-71.11,1785099419863.997
-0.918,-0.475,-0.732,-29.88,80.48,-72.24,1785099419869.939
-0.92,-0.486,-0.741,-30.95,82.49,-73.46,1785099419880.5
-0.941,-0.505,-0.748,-31.53,83.9,-74.92,1785099419893.7002
-0.957,-0.516,-0.757,-32.87,85.7,-76.36,1785099419899.679
-0.954,-0.519,-0.771,-34.06,88.23,-77.21,1785099419910.119
-0.946,-0.516,-0.766,-34.49,91.4,-77.82,1785099419920.789
-0.938,-0.507,-0.751,-34.7,94.09,-78.37,1785099419934.228
-0.927,-0.509,-0.738,-33.85,96.13,-78.95,1785099419940.01
-0.923,-0.515,-0.71,-32.35,97.6,-79.32,1785099419950.907
-0.913,-0.509,-0.709,-31.62,97.54,-79.71,1785099419963.7703
-0.889,-0.499,-0.735,-32.35,97.42,-81.06,1785099419969.794
-0.868,-0.488,-0.756,-36.13,98.18,-83.29,1785099419980.243
-0.845,-0.475,-0.784,-41.78,99.22,-85.79,1785099419990.8481
-0.83,-0.468,-0.801,-47.0,101.11,-87.65,1785099420004.3718
-0.82,-0.463,-0.786,-49.35,103.34,-88.5,1785099420009.671
-0.821,-0.471,-0.753,-47.7,104.22,-89.02,1785099420020.8682
-0.818,-0.481,-0.732,-43.43,103.64,-89.08,1785099420034.1033
-0.811,-0.479,-0.72,-37.75,102.54,-88.08,1785099420039.766
-0.786,-0.474,-0.723,-30.95,101.41,-85.21,1785099420050.977
-0.743,-0.456,-0.758,-24.63,100.71,-81.36,1785099420064.0588
-0.71,-0.413,-0.766,-20.54,100.53,-77.39,1785099420070.035
-0.675,-0.371,-0.769,-17.37,100.04,-72.97,1785099420080.742
-0.643,-0.345,-0.772,-15.66,100.1,-69.73,1785099420093.7322
-0.621,-0.346,-0.753,-15.87,99.73,-69.19,1785099420099.8071
-0.606,-0.375,-0.722,-16.11,98.76,-70.65,1785099420110.512
-0.587,-0.419,-0.711,-14.13,97.54,-72.76,1785099420123.78
-0.558,-0.442,-0.726,-10.65,96.35,-74.01,1785099420129.689
-0.519,-0.435,-0.763,-7.26,95.61,-73.43,1785099420140.1519
-0.478,-0.414,-0.815,-5.65,95.34,-71.78,1785099420150.8748
-0.443,-0.393,-0.869,-7.75,95.28,-70.62,1785099420163.904
-0.443,-0.393,-0.869,-13.82,95.55,-69.58,1785099420169.9011
-0.435,-0.375,-0.883,-20.33,94.88,-68.51,1785099420180.423
-0.45,-0.387,-0.861,-24.81,93.57,-67.38,1785099420193.6482
-0.456,-0.413,-0.824,-25.12,92.01,-64.97,1785099420199.511
-0.438,-0.429,-0.788,-20.26,90.79,-61.56,1785099420210.042
-0.399,-0.431,-0.778,-20.26,90.79,-61.56,1785099420220.649
-0.349,-0.424,-0.815,-12.82,89.33,-58.23,1785099420234.023
-0.3,-0.403,-0.89,-8.21,88.56,-56.18,1785099420239.9202
-0.281,-0.39,-0.922,-9.8,89.27,-55.6,1785099420250.2808
-0.289,-0.399,-0.9,-15.84,90.06,-57.01,1785099420260.8481
-0.298,-0.417,-0.852,-21.58,90.03,-58.87,1785099420274.0833
-0.286,-0.432,-0.811,-23.01,89.21,-59.24,1785099420279.999
-0.252,-0.43,-0.815,-20.97,87.89,-58.02,1785099420290.5413
-0.211,-0.425,-0.873,-19.1,86.95,-56.79,1785099420303.815
-0.183,-0.412,-0.948,-22.06,86.95,-56.73,1785099420309.71
-0.176,-0.402,-0.966,-28.96,88.56,-56.98,1785099420320.3452
-0.181,-0.42,-0.922,-34.73,89.85,-57.13,1785099420333.428
-0.177,-0.434,-0.878,-36.04,90.0,-57.65,1785099420339.092
-0.151,-0.438,-0.859,-31.4,89.51,-57.47,1785099420350.0217
-0.125,-0.436,-0.862,-22.95,88.87,-56.12,1785099420360.601
-0.104,-0.432,-0.887,-15.08,88.96,-54.69,1785099420373.863
-0.102,-0.428,-0.875,-10.86,89.36,-53.44,1785099420379.778
-0.091,-0.432,-0.864,-8.97,89.08,-52.22,1785099420390.2258
-0.06,-0.426,-0.874,-8.27,88.41,-51.97,1785099420400.883
-0.023,-0.396,-0.875,-9.7,87.37,-52.31,1785099420414.0068
-0.001,-0.366,-0.853,-13.34,86.12,-52.58,1785099420419.99
0.019,-0.351,-0.859,-18.4,84.41,-53.01,1785099420430.3843
0.037,-0.348,-0.861,-24.63,83.56,-53.71,1785099420443.624
0.039,-0.354,-0.841,-30.03,82.92,-54.23,1785099420449.654
0.04,-0.348,-0.816,-31.8,82.4,-54.17,1785099420460.0881
0.066,-0.367,-0.802,-25.79,82.98,-52.64,1785099420470.509
0.091,-0.374,-0.784,-14.19,84.2,-50.42,1785099420484.092
0.127,-0.365,-0.77,-0.21,84.87,-46.45,1785099420489.6309
0.144,-0.345,-0.744,13.09,84.48,-43.24,1785099420500.705
0.145,-0.319,-0.732,22.86,82.89,-41.14,1785099420513.344
0.156,-0.295,-0.726,26.67,80.48,-39.34,1785099420519.2803
0.184,-0.28,-0.748,24.6,78.13,-39.12,1785099420530.0889
0.207,-0.257,-0.769,18.19,76.69,-39.49,1785099420540.727
0.227,-0.254,-0.762,10.35,75.69,-39.12,1785099420553.977
0.236,-0.26,-0.734,3.23,74.86,-38.76,1785099420559.874
0.237,-0.271,-0.693,0.46,74.04,-38.06,1785099420570.2778
0.239,-0.274,-0.638,3.63,71.93,-36.35,1785099420580.7358
0.253,-0.259,-0.607,11.87,69.19,-33.97,1785099420594.055
0.277,-0.244,-0.6,21.67,66.71,-30.92,1785099420600.522
0.304,-0.242,-0.6,29.3,64.42,-28.81,1785099420610.489
0.319,-0.241,-0.61,31.19,61.43,-28.05,1785099420623.868
0.331,-0.232,-0.62,26.89,58.57,-27.99,1785099420629.7952
0.339,-0.223,-0.602,18.13,55.67,-27.19,1785099420640.2039
0.351,-0.22,-0.589,7.6,52.22,-26.09,1785099420651.679
0.376,-0.215,-0.577,-2.26,48.92,-25.27,1785099420664.031
0.395,-0.199,-0.552,-9.58,45.66,-24.81,1785099420670.0217
0.411,-0.197,-0.535,-11.96,42.48,-23.87,1785099420680.3
0.428,-0.212,-0.536,-10.99,39.28,-23.41,1785099420693.552
0.447,-0.205,-0.541,-10.13,35.86,-23.41,1785099420699.458
0.465,-0.2,-0.543,-9.22,32.5,-22.58,1785099420709.688
0.474,-0.193,-0.551,-10.28,28.63,-21.52,1785099420720.3982
0.485,-0.188,-0.564,-13.82,25.24,-20.63,1785099420734.189
0.487,-0.203,-0.564,-18.07,22.61,-20.2,1785099420739.8323
0.474,-0.216,-0.564,-22.28,19.99,-19.68,1785099420750.6702
0.474,-0.22,-0.555,-24.75,17.49,-18.25,1785099420763.4822
0.5,-0.224,-0.561,-24.6,14.92,-16.24,1785099420769.565
0.535,-0.221,-0.589,-24.29,13.03,-15.11,1785099420779.969
0.55,-0.203,-0.607,-25.24,11.54,-14.5,1785099420790.636
0.545,-0.197,-0.611,-25.85,10.47,-13.06,1785099420803.884
0.536,-0.217,-0.607,-24.81,9.31,-11.2,1785099420809.758
0.528,-0.237,-0.604,-22.03,7.66,-9.74,1785099420820.099
0.528,-0.257,-0.605,-16.08,6.2,-7.97,1785099420830.362
0.521,-0.272,-0.605,-8.0,5.49,-5.95,1785099420843.736
0.514,-0.28,-0.608,-0.24,4.85,-3.72,1785099420849.455
0.517,-0.277,-0.619,4.24,3.6,-1.98,1785099420859.3801
0.543,-0.26,-0.66,3.97,1.65,-0.7,1785099420869.8098
0.575,-0.245,-0.711,-0.73,0.37,0.18,1785099420880.188
0.594,-0.251,-0.746,-9.0,-0.49,0.61,1785099420890.571
0.589,-0.276,-0.747,-17.73,-1.04,0.49,1785099420903.95
0.573,-0.313,-0.734,-23.01,-1.8,0.18,1785099420909.6538
0.563,-0.332,-0.72,-22.68,-2.93,-0.85,1785099420919.783
0.571,-0.325,-0.706,-17.3,-3.94,-2.17,1785099420930.305
0.594,-0.296,-0.724,-9.43,-4.67,-3.45,1785099420940.609
0.612,-0.247,-0.742,-4.0,-4.64,-5.04,1785099420953.9358
0.609,-0.203,-0.756,-3.05,-4.64,-6.35,1785099420959.6128
0.602,-0.194,-0.761,-4.85,-4.3,-6.5,1785099420969.532
0.588,-0.216,-0.753,-8.03,-4.09,-6.74,1785099420979.863
0.566,-0.24,-0.74,-10.68,-4.18,-7.02,1785099420990.3538
0.553,-0.252,-0.755,-10.77,-4.94,-6.16,1785099421000.985
0.563,-0.243,-0.797,-10.32,-5.52,-4.73,1785099421014.2231
0.576,-0.223,-0.83,-12.3,-5.52,-3.63,1785099421019.674
0.582,-0.217,-0.848,-16.42,-5.04,-2.56,1785099421029.999
0.574,-0.217,-0.825,-20.42,-4.43,-1.19,1785099421040.5278
0.566,-0.227,-0.796,-19.96,-4.09,0.61,1785099421053.803
0.562,-0.243,-0.78,-14.13,-3.3,2.2,1785099421059.603
0.558,-0.246,-0.768,-5.16,-1.92,3.33,1785099421069.595
0.556,-0.246,-0.764,4.79,-0.43,4.27,1785099421080.108
