ax,ay,az,gx,gy,gz,timestamp_ms
-0.275,-0.372,-0.472,58.96,-92.62,92.84,1785110564036.227
-0.299,-0.381,-0.46,58.78,-94.79,99.95,1785110564036.7073
-0.32,-0.403,-0.463,59.54,-97.17,107.85,1785110564037.142
-0.351,-0.429,-0.49,59.97,-99.83,116.03,1785110564037.594
-0.349,-0.454,-0.569,59.94,-102.51,124.55,1785110564038.0317
-0.376,-0.485,-0.618,59.08,-104.07,133.24,1785110564038.448
-0.425,-0.528,-0.659,56.18,-105.56,141.48,1785110564038.869
-0.467,-0.571,-0.714,51.18,-106.23,148.93,1785110564039.291
-0.513,-0.6,-0.747,45.56,-104.68,156.04,1785110564039.713
-0.567,-0.62,-0.732,42.18,-101.72,162.08,1785110564040.121
-0.636,-0.648,-0.653,42.33,-99.52,166.88,1785110564040.545
-0.694,-0.695,-0.562,47.49,-99.0,169.26,1785110564040.957
-0.707,-0.743,-0.55,58.75,-99.25,170.63,1785110564041.4
-0.735,-0.811,-0.57,76.72,-98.57,172.92,1785110564041.811
-0.806,-0.872,-0.558,97.08,-97.57,173.86,1785110564042.2258
-0.84,-0.931,-0.584,118.11,-96.9,173.19,1785110564042.6272
-0.839,-0.975,-0.61,139.56,-93.84,171.61,1785110564042.998
-0.869,-0.991,-0.528,160.99,-90.18,170.38,1785110564043.355
-0.841,-1.015,-0.533,183.63,-88.93,169.65,1785110564043.735
-0.793,-1.018,-0.631,199.99,-83.8,168.03,1785110564044.111
-0.818,-0.986,-0.628,201.27,-75.01,165.44,1785110564044.474
-0.849,-1.008,-0.573,192.88,-68.36,164.01,1785110564044.8298
-0.843,-1.07,-0.521,181.86,-62.26,164.46,1785110564045.1929
-0.826,-1.146,-0.471,174.02,-54.6,165.68,1785110564045.554
-0.836,-1.185,-0.408,169.29,-46.33,164.59,1785110564045.9258
-0.854,-1.193,-0.34,166.23,-39.46,161.81,1785110564046.282
-0.87,-1.194,-0.289,162.6,-35.0,157.35,1785110564046.6812
-0.87,-1.181,-0.286,157.11,-32.14,151.62,1785110564047.0479
-0.876,-1.182,-0.315,151.04,-29.08,145.02,1785110564047.4062
-0.902,-1.176,-0.342,140.78,-26.28,137.36,1785110564047.763
-0.937,-1.141,-0.37,123.45,-23.68,129.73,1785110564048.126
-0.929,-1.104,-0.315,101.84,-20.91,124.0,1785110564048.5
-0.939,-1.092,-0.334,83.22,-20.11,117.62,1785110564048.875
-0.964,-1.044,-0.331,59.18,-15.81,111.12,1785110564049.226
-0.97,-1.039,-0.343,37.11,-16.08,105.35,1785110564049.634
-0.949,-1.051,-0.332,17.33,-15.02,101.35,1785110564050.0059
-0.951,-1.073,-0.305,1.5,-11.96,96.19,1785110564050.3582
-0.955,-1.086,-0.26,-10.83,-10.16,91.01,1785110564050.684
-0.945,-1.091,-0.207,-17.3,-9.55,87.04,1785110564051.004
-0.931,-1.091,-0.169,-18.74,-9.37,84.02,1785110564051.313
-0.923,-1.067,-0.162,-18.31,-9.61,79.78,1785110564051.692
-0.911,-1.035,-0.188,-18.25,-10.04,74.34,1785110564052.052
-0.908,-0.992,-0.217,-20.91,-10.65,67.87,1785110564052.366
-0.918,-0.958,-0.266,-26.46,-10.86,62.07,1785110564052.6772
-0.901,-0.962,-0.338,-34.58,-9.64,57.37,1785110564052.979
-0.875,-1.001,-0.398,-46.45,-6.93,53.47,1785110564053.287
-0.846,-1.058,-0.44,-61.65,-3.2,49.71,1785110564053.615
-0.822,-1.121,-0.44,-78.74,0.61,46.72,1785110564053.935
-0.795,-1.165,-0.415,-95.0,3.75,44.47,1785110564054.2358
-0.773,-1.168,-0.382,-106.33,6.59,41.26,1785110564054.555
-0.762,-1.151,-0.369,-110.9,9.06,34.85,1785110564054.862
-0.772,-1.133,-0.374,-112.64,10.8,21.85,1785110564055.178
-0.804,-1.106,-0.357,-115.02,11.78,5.4,1785110564055.488
-0.826,-1.097,-0.305,-113.99,13.0,-8.67,1785110564055.805
-0.835,-1.092,-0.243,-105.41,14.31,-20.6,1785110564056.147
-0.841,-1.06,-0.19,-87.37,15.02,-31.31,1785110564056.4521
-0.855,-1.014,-0.172,-62.14,14.34,-40.47,1785110564056.763
-0.875,-0.958,-0.185,-36.16,13.0,-47.85,1785110564057.087
-0.885,-0.894,-0.207,-14.37,11.51,-53.22,1785110564057.406
-0.888,-0.826,-0.225,2.11,9.92,-56.7,1785110564057.7102
-0.881,-0.763,-0.255,13.15,8.58,-59.97,1785110564058.012
-0.869,-0.698,-0.284,17.58,7.45,-63.2,1785110564058.308
-0.853,-0.634,-0.32,16.33,6.2,-65.74,1785110564058.63
-0.839,-0.598,-0.367,10.86,5.49,-67.75,1785110564058.914
-0.836,-0.579,-0.394,0.24,5.83,-70.68,1785110564059.198
-0.837,-0.562,-0.384,-14.04,6.23,-73.46,1785110564059.4932
-0.846,-0.578,-0.379,-27.07,6.62,-74.62,1785110564059.769
-0.851,-0.604,-0.384,-37.75,7.45,-76.33,1785110564060.052
-0.862,-0.63,-0.38,-45.81,9.31,-77.85,1785110564060.334
-0.865,-0.655,-0.387,-49.75,11.08,-78.65,1785110564060.617
-0.857,-0.676,-0.388,-49.35,12.6,-78.22,1785110564060.8972
-0.839,-0.69,-0.393,-44.89,13.58,-76.33,1785110564061.1838
-0.82,-0.71,-0.425,-37.78,14.65,-73.46,1785110564061.471
-0.829,-0.727,-0.464,-30.61,16.02,-70.74,1785110564061.7522
-0.839,-0.746,-0.485,-25.73,18.1,-68.27,1785110564062.037
-0.83,-0.78,-0.508,-22.19,20.84,-67.38,1785110564062.322
-0.803,-0.805,-0.518,-20.29,24.2,-66.23,1785110564062.6052
-0.776,-0.827,-0.518,-18.31,27.5,-64.88,1785110564062.885
-0.77,-0.863,-0.523,-16.72,30.79,-64.64,1785110564063.173
-0.779,-0.901,-0.522,-16.05,34.18,-65.92,1785110564063.458
-0.788,-0.929,-0.533,-16.02,36.74,-68.33,1785110564063.74
-0.8,-0.943,-0.554,-16.91,39.06,-70.83,1785110564064.02
-0.807,-0.952,-0.574,-18.22,41.72,-73.34,1785110564064.296
-0.819,-0.963,-0.604,-19.9,44.65,-76.39,1785110564064.564
-0.838,-0.985,-0.616,-23.04,47.88,-80.14,1785110564064.8232
-0.852,-1.003,-0.614,-27.89,50.42,-83.77,1785110564065.0881
-0.842,-1.008,-0.61,-32.96,52.92,-87.1,1785110564065.349
-0.823,-0.993,-0.612,-37.23,55.3,-90.73,1785110564065.655
-0.824,-0.966,-0.607,-40.44,57.44,-94.61,1785110564065.9412
-0.844,-0.943,-0.585,-43.79,59.36,-98.61,1785110564066.227
-0.865,-0.913,-0.561,-48.1,61.22,-102.3,1785110564066.507
-0.88,-0.888,-0.543,-52.22,63.02,-104.59,1785110564066.793
-0.87,-0.88,-0.539,-56.64,65.19,-105.17,1785110564067.055
-0.851,-0.896,-0.527,-59.11,68.0,-104.71,1785110564067.321
-0.851,-0.896,-0.527,-59.27,70.16,-103.89,1785110564067.5881
-0.827,-0.917,-0.53,-57.13,71.63,-103.0,1785110564067.8552
-0.771,-0.921,-0.549,-52.64,72.66,-102.97,1785110564068.121
-0.672,-0.918,-0.579,-48.55,73.85,-104.25,1785110564068.395
-0.578,-0.902,-0.607,-48.55,73.85,-104.25,1785110564068.664
-0.523,-0.876,-0.628,-46.88,75.11,-106.36,1785110564068.9468
-0.491,-0.84,-0.624,-50.11,76.78,-109.56,1785110564069.236
-0.473,-0.797,-0.591,-56.79,78.74,-112.61,1785110564069.508
-0.472,-0.768,-0.552,-63.48,80.14,-114.9,1785110564069.778
-0.467,-0.752,-0.522,-66.74,80.78,-116.25,1785110564070.05
-0.462,-0.733,-0.489,-65.22,81.18,-116.61,1785110564070.308
-0.474,-0.705,-0.48,-60.43,80.48,-116.49,1785110564070.558
-0.471,-0.685,-0.522,-54.87,79.47,-115.39,1785110564070.821
-0.429,-0.671,-0.575,-51.73,79.87,-114.9,1785110564071.069
-0.395,-0.647,-0.578,-51.12,81.09,-114.47,1785110564071.341
-0.375,-0.637,-0.571,-50.78,81.42,-113.25,1785110564071.6392
-0.362,-0.618,-0.551,-50.6,81.55,-111.85,1785110564071.917
-0.339,-0.602,-0.553,-48.74,81.36,-110.32,1785110564072.1719
-0.329,-0.59,-0.57,-44.43,81.24,-108.95,1785110564072.4302
-0.327,-0.571,-0.56,-39.16,80.94,-107.73,1785110564072.688
-0.294,-0.561,-0.563,-33.57,79.93,-106.27,1785110564072.9348
-0.258,-0.547,-0.572,-28.32,79.1,-104.5,1785110564073.194
-0.235,-0.523,-0.564,-23.77,78.22,-101.63,1785110564073.4502
-0.217,-0.499,-0.536,-19.71,77.18,-97.81,1785110564073.705
-0.177,-0.477,-0.51,-15.93,75.87,-93.97,1785110564073.949
-0.13,-0.45,-0.504,-12.82,74.31,-90.49,1785110564074.198
-0.103,-0.404,-0.485,-12.05,72.88,-86.89,1785110564074.45
-0.068,-0.38,-0.472,-13.34,71.02,-82.28,1785110564074.6938
-0.032,-0.363,-0.452,-15.69,69.09,-78.01,1785110564074.948
-0.004,-0.351,-0.422,-17.79,66.77,-73.58,1785110564075.204
0.017,-0.343,-0.385,-18.62,64.36,-68.91,1785110564075.457
0.027,-0.331,-0.346,-18.22,61.28,-63.88,1785110564075.702
0.043,-0.323,-0.327,-16.33,57.56,-58.81,1785110564075.959
0.059,-0.311,-0.312,-13.55,53.87,-54.14,1785110564076.212
0.062,-0.288,-0.285,-10.47,50.26,-49.29,1785110564076.457
0.073,-0.266,-0.265,-7.2,46.39,-44.56,1785110564076.709
0.076,-0.245,-0.241,-4.12,42.15,-40.19,1785110564076.958
0.061,-0.223,-0.187,-0.7,37.2,-35.62,1785110564077.217
0.046,-0.208,-0.131,3.91,30.82,-30.92,1785110564077.46
0.051,-0.193,-0.124,9.34,22.89,-26.15,1785110564077.707
0.059,-0.174,-0.136,13.73,14.74,-20.97,1785110564077.954
0.061,-0.152,-0.139,15.63,7.26,-16.02,1785110564078.188
0.071,-0.14,-0.155,14.65,0.27,-11.17,1785110564078.423
0.086,-0.126,-0.174,10.83,-6.04,-6.41,1785110564078.6582
0.094,-0.122,-0.196,5.49,-11.63,-1.22,1785110564078.891
0.095,-0.12,-0.215,-1.5,-16.6,3.66,1785110564079.1199
0.087,-0.124,-0.209,-8.3,-21.39,9.0,1785110564079.3547
0.07,-0.13,-0.195,-13.18,-26.64,14.59,1785110564079.5981
0.065,-0.132,-0.211,-16.11,-32.47,20.42,1785110564079.832
0.077,-0.132,-0.244,-18.95,-38.33,26.03,1785110564080.072
0.072,-0.131,-0.252,-21.33,-43.31,31.19,1785110564080.312
0.04,-0.135,-0.261,-23.16,-48.37,37.14,1785110564080.5461
0.006,-0.143,-0.274,-24.84,-54.26,44.01,1785110564080.7769
-0.021,-0.172,-0.303,-26.34,-60.67,50.42,1785110564081.012
-0.026,-0.201,-0.349,-29.21,-66.38,55.76,1785110564081.248
-0.027,-0.22,-0.377,-33.27,-71.02,61.07,1785110564081.4841
-0.051,-0.241,-0.391,-37.97,-75.62,66.87,1785110564081.719
-0.083,-0.267,-0.43,-43.06,-80.75,72.27,1785110564081.957
-0.12,-0.284,-0.475,-48.31,-84.66,76.39,1785110564082.2148
-0.161,-0.295,-0.501,-52.98,-88.53,79.81,1785110564082.4692
-0.182,-0.317,-0.544,-57.1,-93.11,82.55,1785110564082.711
-0.212,-0.336,-0.601,-61.62,-96.96,84.93,1785110564082.952
-0.242,-0.368,-0.676,-66.68,-100.04,88.08,1785110564083.1968
-0.269,-0.403,-0.747,-71.57,-101.57,90.7,1785110564083.43
-0.328,-0.421,-0.736,-74.1,-102.73,93.63,1785110564083.6711
-0.375,-0.459,-0.726,-71.38,-105.99,97.26,1785110564083.914
-0.403,-0.493,-0.748,-63.57,-109.23,99.31,1785110564084.1448
-0.426,-0.511,-0.778,-52.03,-111.55,101.17,1785110564084.3918
-0.433,-0.542,-0.784,-37.2,-113.96,103.06,1785110564084.628
-0.468,-0.589,-0.816,-16.97,-117.1,104.43,1785110564084.873
-0.499,-0.584,-0.858,1.22,-117.16,104.13,1785110564085.113
-0.536,-0.568,-0.829,17.79,-114.78,103.76,1785110564085.3481
-0.56,-0.572,-0.753,33.66,-114.6,103.12,1785110564085.578
-0.578,-0.585,-0.788,59.6,-116.95,101.54,1785110564086.032
-0.593,-0.581,-0.856,66.38,-115.7,101.6,1785110564086.26
-0.894,-0.213,-0.32,-44.34,-0.43,-7.63,1785110564086.528
-0.883,-0.23,-0.321,-41.2,-1.95,-6.29,1785110564086.746
-0.882,-0.234,-0.332,-36.19,-3.45,-5.8,1785110564086.962
-0.88,-0.229,-0.346,-29.85,-4.52,-4.88,1785110564087.1802
-0.875,-0.226,-0.366,-23.62,-5.04,-4.03,1785110564095.891
-0.876,-0.215,-0.377,-18.83,-5.58,-3.08,1785110564109.181
-0.877,-0.217,-0.377,-14.68,-6.26,-1.68,1785110564114.7039
-0.889,-0.216,-0.365,-9.83,-7.11,-0.79,1785110564124.981
-0.89,-0.227,-0.366,-2.56,-8.79,0.85,1785110564135.3818
-0.885,-0.267,-0.378,7.05,-9.86,1.8,1785110564145.7478
-0.896,-0.338,-0.391,18.8,-9.09,0.34,1785110564156.2441
-0.911,-0.413,-0.456,32.29,-6.87,-2.47,1785110564169.539
-0.909,-0.455,-0.54,44.65,-3.39,-5.16,1785110564175.126
-0.895,-0.472,-0.578,54.29,0.7,-8.79,1785110564185.442
-0.889,-0.476,-0.615,59.63,5.16,-15.38,1785110564196.0098
-0.885,-0.464,-0.657,59.14,10.74,-23.13,1785110564209.2622
-0.869,-0.458,-0.682,52.4,16.17,-29.36,1785110564215.043
-0.845,-0.48,-0.692,41.2,22.03,-33.91,1785110564225.7458
-0.823,-0.5,-0.685,29.88,27.92,-36.93,1785110564239.0989
-0.809,-0.503,-0.692,23.22,32.04,-38.61,1785110564244.791
-0.801,-0.499,-0.747,20.33,36.04,-40.44,1785110564255.512
-0.802,-0.508,-0.816,16.72,41.63,-44.5,1785110564266.238
-0.801,-0.545,-0.881,9.92,48.13,-48.95,1785110564279.5798
-0.801,-0.591,-0.908,1.37,55.15,-50.66,1785110564285.7778
-0.795,-0.631,-0.913,-5.19,61.62,-48.49,1785110564295.787
-0.781,-0.642,-0.929,-8.51,68.3,-44.4,1785110564306.3418
-0.767,-0.611,-0.954,-10.01,74.89,-41.35,1785110564319.637
-0.759,-0.579,-0.983,-12.51,81.55,-38.64,1785110564325.593
-0.756,-0.577,-1.004,-17.06,87.44,-33.72,1785110564336.134
-0.768,-0.563,-1.123,-28.11,88.84,-30.76,1785110564349.455
-0.812,-0.542,-1.177,-50.33,95.16,-30.24,1785110564355.343
-0.807,-0.607,-1.204,-71.14,102.08,-28.78,1785110564366.08
-0.819,-0.68,-1.225,-84.9,108.4,-30.09,1785110564376.6038
-0.881,-0.718,-1.2,-93.2,115.18,-34.24,1785110564389.8298
-0.916,-0.753,-1.147,-94.42,120.43,-36.13,1785110564395.832
-0.933,-0.777,-1.116,-86.28,123.84,-36.41,1785110564406.587
-0.957,-0.754,-1.142,-72.97,126.93,-36.59,1785110564419.843
-0.98,-0.706,-1.195,-60.7,131.38,-37.17,1785110564425.834
-0.995,-0.675,-1.209,-51.06,137.24,-37.84,1785110564436.579
-1.009,-0.67,-1.142,-40.04,142.28,-38.03,1785110564449.875
-1.028,-0.667,-1.165,-26.76,146.4,-41.23,1785110564455.8179
-1.109,-0.62,-1.102,-18.98,152.47,-47.98,1785110564466.615
-1.092,-0.636,-1.052,-8.91,156.01,-51.45,1785110564479.8
-1.072,-0.626,-0.995,2.44,159.03,-56.73,1785110564486.056
-1.065,-0.609,-0.961,15.44,160.04,-61.8,1785110564496.327
-1.05,-0.576,-0.93,26.76,159.92,-67.96,1785110564509.541
-1.016,-0.532,-0.916,34.49,159.49,-73.95,1785110564515.642
-0.983,-0.513,-0.89,39.64,159.43,-79.04,1785110564526.2568
-0.964,-0.506,-0.853,41.96,158.6,-84.78,1785110564539.5
-0.945,-0.499,-0.813,43.21,157.11,-90.21,1785110564545.516
-0.945,-0.499,-0.813,43.76,155.34,-94.18,1785110564556.235
-0.922,-0.487,-0.794,41.9,153.63,-96.26,1785110564569.716
-0.878,-0.472,-0.776,37.14,151.77,-97.81,1785110564575.5562
-0.832,-0.45,-0.76,30.27,149.82,-98.42,1785110564586.2249
-0.804,-0.434,-0.736,21.91,147.68,-97.66,1785110564599.349
-0.77,-0.426,-0.706,21.91,147.68,-97.66,1785110564604.98
-0.723,-0.413,-0.689,12.79,146.06,-96.19,1785110564616.215
-0.662,-0.406,-0.67,5.01,144.63,-94.64,1785110564629.417
-0.609,-0.413,-0.665,-1.71,141.91,-93.3,1785110564635.3972
-0.558,-0.424,-0.675,-9.03,138.86,-92.38,1785110564645.808
-0.507,-0.424,-0.685,-17.91,136.54,-91.22,1785110564656.5671
-0.461,-0.41,-0.677,-27.59,134.34,-89.6,1785110564669.913
-0.424,-0.403,-0.662,-36.96,131.6,-87.86,1785110564675.893
-0.387,-0.392,-0.67,-47.18,129.0,-86.52,1785110564686.619
-0.346,-0.366,-0.691,-57.53,127.78,-84.93,1785110564699.893
-0.314,-0.351,-0.712,-66.53,127.57,-82.31,1785110564705.676
-0.294,-0.349,-0.72,-73.67,128.06,-79.74,1785110564716.3333
-0.276,-0.364,-0.688,-77.39,129.12,-78.1,1785110564729.8508
-0.247,-0.384,-0.658,-77.18,129.46,-76.17,1785110564735.584
-0.209,-0.378,-0.637,-71.96,129.15,-72.3,1785110564746.139
-0.183,-0.379,-0.646,-60.91,128.7,-67.35,1785110564759.378
-0.162,-0.373,-0.648,-49.5,129.31,-63.2,1785110564765.861
-0.122,-0.362,-0.662,-37.02,128.79,-59.79,1785110564776.3992
-0.08,-0.343,-0.674,-22.03,128.24,-55.91,1785110564789.9038
-0.056,-0.321,-0.651,-6.59,127.63,-52.8,1785110564795.746
-0.021,-0.292,-0.614,8.79,126.44,-49.29,1785110564806.261
0.04,-0.269,-0.58,25.76,123.75,-44.53,1785110564819.5369
0.09,-0.268,-0.549,43.79,118.63,-39.83,1785110564825.482
0.12,-0.276,-0.511,60.24,112.77,-35.71,1785110564836.1963
0.151,-0.3,-0.48,76.6,106.54,-32.32,1785110564849.587
0.192,-0.315,-0.482,91.71,101.02,-30.03,1785110564855.4712
0.226,-0.288,-0.496,103.12,96.5,-27.77,1785110564866.195
0.239,-0.251,-0.52,107.73,90.91,-25.03,1785110564879.4172
0.245,-0.2,-0.522,100.16,83.93,-23.41,1785110564885.57
0.243,-0.16,-0.497,82.16,79.41,-22.46,1785110564896.021
0.262,-0.13,-0.443,58.6,76.85,-21.3,1785110564909.3608
0.277,-0.126,-0.37,36.29,73.18,-20.02,1785110564915.318
0.271,-0.123,-0.286,19.07,68.61,-18.31,1785110564925.7888
0.268,-0.121,-0.204,10.65,62.72,-15.66,1785110564936.411
0.269,-0.128,-0.144,11.38,54.78,-12.42,1785110564949.6782
0.266,-0.137,-0.11,18.59,45.26,-8.91,1785110564955.68
0.262,-0.126,-0.099,28.5,36.23,-4.24,1785110564966.0698
0.255,-0.104,-0.096,38.58,28.08,1.65,1785110564976.449
0.224,-0.086,-0.088,47.33,20.48,7.54,1785110564989.7039
0.184,-0.068,-0.071,52.37,13.76,13.12,1785110564995.772
0.152,-0.053,-0.045,53.32,7.51,18.4,1785110565005.993
0.118,-0.042,-0.028,51.18,1.59,22.77,1785110565016.733
0.106,-0.035,0.007,45.11,-4.73,26.64,1785110565029.814
0.12,-0.041,0.022,38.79,-12.73,29.97,1785110565035.878
0.134,-0.043,0.019,33.3,-21.39,32.26,1785110565046.1838
0.141,-0.064,-0.008,27.89,-30.55,34.52,1785110565059.695
0.121,-0.083,-0.041,19.68,-39.52,36.44,1785110565065.511
0.105,-0.108,-0.086,11.66,-48.04,39.03,1785110565075.885
0.093,-0.131,-0.13,5.37,-55.42,40.96,1785110565086.462
0.068,-0.152,-0.159,1.13,-62.17,42.45,1785110565099.811
0.049,-0.175,-0.187,-0.95,-68.88,44.22,1785110565105.739
0.021,-0.195,-0.181,-0.82,-74.74,46.63,1785110565116.034
-0.011,-0.214,-0.164,2.47,-80.54,49.47,1785110565126.452
-0.039,-0.223,-0.164,6.38,-87.31,52.46,1785110565139.711
-0.067,-0.222,-0.184,10.56,-94.58,56.12,1785110565145.667
-0.097,-0.221,-0.214,15.23,-101.08,59.69,1785110565156.2
-0.114,-0.246,-0.26,19.44,-107.15,63.54,1785110565169.474
-0.137,-0.288,-0.295,22.22,-113.32,65.74,1785110565175.416
-0.163,-0.351,-0.354,24.23,-119.3,67.11,1785110565186.162
-0.204,-0.41,-0.415,25.36,-123.48,68.3,1785110565199.5452
-0.249,-0.462,-0.472,26.95,-126.77,70.5,1785110565205.415
-0.283,-0.512,-0.526,29.45,-129.95,73.55,1785110565216.216
-0.307,-0.539,-0.569,31.77,-133.15,76.6,1785110565229.328
-0.326,-0.555,-0.612,33.63,-135.29,79.5,1785110565235.4739
-0.356,-0.57,-0.647,32.56,-136.05,81.21,1785110565246.045
-0.38,-0.583,-0.698,26.12,-136.08,82.4,1785110565259.3
-0.395,-0.594,-0.722,16.79,-135.04,86.28,1785110565265.614
-0.407,-0.614,-0.717,8.91,-134.4,91.19,1785110565275.9402
-0.401,-0.63,-0.75,4.18,-135.53,94.61,1785110565286.588
-0.4,-0.632,-0.805,2.29,-136.51,96.99,1785110565299.91
-0.403,-0.633,-0.872,1.46,-135.99,99.98,1785110565305.8188
-0.421,-0.658,-0.93,-0.31,-133.67,102.82,1785110565316.489
-0.472,-0.697,-0.942,-3.69,-129.76,105.53,1785110565330.945
-0.521,-0.732,-0.891,-4.7,-126.01,109.5,1785110565335.375
-0.537,-0.786,-0.871,5.22,-124.45,114.05,1785110565346.2012
-0.574,-0.785,-0.844,21.97,-120.85,116.86,1785110565359.595
-0.572,-0.767,-0.819,41.78,-118.41,119.6,1785110565365.8481
-0.529,-0.794,-0.851,61.53,-116.98,119.79,1785110565376.613
-0.503,-0.782,-0.809,71.96,-112.86,116.43,1785110565389.891
-0.489,-0.787,-0.766,76.54,-109.78,113.19,1785110565395.8699
-0.553,-0.783,-0.706,75.75,-105.53,111.27,1785110565409.259
-0.63,-0.801,-0.703,75.08,-102.91,109.07,1785110565415.4292
-0.714,-0.779,-0.721,73.64,-102.42,104.04,1785110565426.2368
-0.8,-0.731,-0.796,72.39,-103.49,101.5,1785110565439.5508
-0.894,-0.672,-0.928,66.29,-102.76,102.82,1785110565445.444
-0.992,-0.619,-1.044,51.27,-99.64,105.9,1785110565456.316
-1.065,-0.589,-1.069,29.08,-96.8,111.3,1785110565469.7559
-1.098,-0.648,-1.012,7.69,-94.91,119.57,1785110565475.591
-1.102,-0.773,-0.92,-11.11,-94.33,127.54,1785110565486.262
-1.087,-0.863,-0.802,-23.65,-96.65,134.62,1785110565499.6792
-1.063,-0.913,-0.752,-24.35,-101.29,141.3,1785110565505.538
-1.06,-0.937,-0.809,-20.48,-105.96,145.63,1785110565516.5442
-1.083,-0.935,-0.907,-21.97,-107.85,145.48,1785110565529.6682
-1.098,-0.945,-0.998,-30.46,-106.45,140.9,1785110565535.815
-1.052,-0.986,-1.057,-40.38,-103.61,133.58,1785110565546.601
-1.01,-0.977,-1.029,-50.42,-98.94,122.78,1785110565559.825
-0.97,-1.008,-0.981,-52.86,-97.17,112.52,1785110565566.128
-0.934,-1.031,-0.98,-51.15,-95.92,103.43,1785110565576.278
-0.918,-0.997,-1.007,-53.29,-92.99,95.0,1785110565589.797
-0.871,-0.964,-1.03,-58.5,-88.11,89.63,1785110565595.784
-0.795,-0.946,-1.027,-62.38,-82.55,86.03,1785110565606.26
-0.745,-0.932,-1.028,-62.26,-76.91,81.85,1785110565619.631
-0.697,-0.926,-1.055,-58.9,-70.71,76.82,1785110565625.501
-0.625,-0.928,-1.106,-53.68,-63.72,71.5,1785110565635.9702
-0.56,-0.937,-1.153,-49.29,-55.76,66.07,1785110565646.563
-0.531,-0.94,-1.197,-47.06,-46.54,60.3,1785110565659.851
-0.532,-0.947,-1.241,-44.8,-37.32,55.3,1785110565666.292
-0.536,-0.963,-1.283,-41.69,-28.02,50.78,1785110565676.276
-0.542,-0.981,-1.31,-38.48,-17.64,44.92,1785110565689.5208
-0.559,-0.979,-1.306,-34.76,-7.14,36.23,1785110565696.838
-0.597,-0.954,-1.273,-30.15,3.33,25.42,1785110565705.6938
-0.633,-0.95,-1.23,-23.74,13.31,14.98,1785110565716.642
-0.667,-0.968,-1.189,-14.62,23.01,5.68,1785110565729.703
-0.711,-0.972,-1.165,-1.56,31.59,-2.69,1785110565735.798
-0.762,-0.945,-1.141,12.33,38.97,-10.59,1785110565745.856
-0.783,-0.91,-1.143,23.16,45.23,-17.09,1785110565756.543
-0.812,-0.825,-1.128,25.18,52.71,-23.38,1785110565769.83
-0.828,-0.751,-1.103,21.33,59.57,-28.66,1785110565775.8022
-0.844,-0.692,-1.08,13.76,66.41,-34.33,1785110565786.284
-0.869,-0.671,-1.064,2.9,73.79,-41.26,1785110565799.7
-0.899,-0.694,-1.067,-10.41,81.0,-48.65,1785110565805.522
-0.938,-0.724,-1.056,-21.21,88.69,-54.48,1785110565816.159
-0.977,-0.749,-1.032,-23.16,95.58,-58.05,1785110565826.486
-1.003,-0.751,-1.013,-17.73,100.68,-61.74,1785110565839.757
-1.003,-0.751,-1.013,-10.07,105.17,-65.8,1785110565845.82
-1.013,-0.727,-0.996,-2.26,108.89,-68.94,1785110565856.404
-1.027,-0.703,-0.98,4.73,112.13,-71.54,1785110565869.6802
-1.055,-0.685,-0.975,10.13,115.48,-74.47,1785110565875.7163
-1.104,-0.657,-0.966,15.35,117.5,-76.88,1785110565886.333
-1.154,-0.64,-0.984,15.35,117.5,-76.88,1785110565899.969
-1.217,-0.6,-0.988,19.44,120.33,-78.68,1785110565904.994
-1.263,-0.573,-0.974,24.54,122.47,-78.37,1785110565916.237
-1.29,-0.562,-0.967,33.2,124.09,-77.73,1785110565929.59
-1.313,-0.521,-0.931,44.59,126.41,-77.06,1785110565935.643
-1.306,-0.486,-0.872,57.07,127.84,-75.96,1785110565946.8071
-1.26,-0.478,-0.806,68.27,128.33,-76.6,1785110565959.515
-1.189,-0.479,-0.793,76.88,127.11,-79.38,1785110565965.5308
-1.093,-0.476,-0.806,82.28,125.58,-83.68,1785110565976.1602
-0.99,-0.475,-0.825,84.69,124.03,-90.4,1785110565989.529
-0.858,-0.495,-0.861,86.52,123.26,-100.01,1785110565995.445
-0.781,-0.469,-0.898,82.22,122.93,-113.16,1785110566006.3628
-0.689,-0.454,-0.903,69.12,124.21,-123.17,1785110566019.679
-0.593,-0.432,-0.862,46.33,125.95,-132.27,1785110566025.635
-0.539,-0.403,-0.817,20.57,127.14,-138.16,1785110566036.639
-0.534,-0.366,-0.744,-5.01,128.79,-140.45,1785110566049.8738
-0.519,-0.37,-0.653,-25.7,130.22,-139.35,1785110566055.891
-0.46,-0.428,-0.593,-38.79,130.89,-136.23,1785110566069.319
-0.414,-0.488,-0.557,-44.74,130.68,-131.6,1785110566075.1948
-0.392,-0.536,-0.542,-44.19,128.85,-123.94,1785110566086.203
-0.365,-0.57,-0.541,-38.64,125.8,-114.78,1785110566099.586
-0.341,-0.576,-0.55,-30.55,123.33,-107.82,1785110566105.4539
-0.326,-0.572,-0.564,-23.22,120.58,-103.52,1785110566116.478
-0.298,-0.579,-0.58,-19.81,117.77,-99.7,1785110566129.586
-0.262,-0.589,-0.583,-20.33,115.57,-96.53,1785110566135.738
-0.236,-0.602,-0.58,-22.16,113.59,-94.42,1785110566146.35
-0.232,-0.61,-0.568,-24.75,111.58,-93.54,1785110566159.584
-0.244,-0.601,-0.554,-28.11,108.83,-92.47,1785110566165.566
-0.227,-0.595,-0.555,-31.31,105.69,-91.31,1785110566176.237
-0.19,-0.592,-0.569,-34.88,103.24,-91.19,1785110566189.549
-0.158,-0.588,-0.572,-39.67,101.35,-90.98,1785110566195.5352
-0.131,-0.579,-0.569,-45.14,99.8,-89.94,1785110566206.144
-0.109,-0.579,-0.576,-49.23,98.57,-88.69,1785110566219.5442
-0.087,-0.576,-0.564,-50.69,97.6,-87.62,1785110566225.571
-0.061,-0.563,-0.549,-49.17,96.22,-86.73,1785110566235.876
-0.034,-0.546,-0.537,-44.74,94.33,-85.82,1785110566246.474
-0.009,-0.531,-0.544,-38.51,92.14,-84.96,1785110566259.742
0.018,-0.511,-0.542,-33.36,89.69,-83.74,1785110566265.991
0.042,-0.496,-0.551,-27.95,87.13,-83.32,1785110566276.201
0.07,-0.48,-0.57,-25.03,85.27,-83.8,1785110566289.454
0.09,-0.47,-0.589,-23.87,84.29,-85.18,1785110566296.0918
0.09,-0.465,-0.602,-24.87,84.44,-87.59,1785110566305.989
0.119,-0.461,-0.584,-27.59,85.88,-88.99,1785110566316.694
0.136,-0.446,-0.54,-28.63,86.21,-91.16,1785110566329.756
0.149,-0.412,-0.484,-26.55,85.67,-92.5,1785110566335.9702
0.177,-0.363,-0.401,-19.75,84.2,-92.04,1785110566346.22
0.208,-0.341,-0.308,-4.24,81.3,-90.58,1785110566359.456
0.21,-0.305,-0.215,16.02,78.19,-89.63,1785110566365.4468
0.175,-0.223,-0.112,39.95,72.94,-86.61,1785110566375.816
0.13,-0.115,-0.044,63.75,63.36,-78.59,1785110566386.558
0.081,0.091,0.006,74.28,51.76,-66.44,1785110566399.9412
0.075,0.313,0.045,72.45,38.82,-52.31,1785110566405.7852
0.096,0.46,0.064,64.27,28.2,-41.32,1785110566416.597
0.118,0.507,0.112,54.9,21.64,-32.56,1785110566429.547
0.124,0.436,0.187,51.88,16.14,-23.04,1785110566435.515
0.092,0.326,0.298,57.07,9.31,-12.33,1785110566445.78
0.03,0.251,0.399,73.58,-0.95,0.15,1785110566456.241
-0.017,0.178,0.419,102.76,-14.13,13.7,1785110566469.719
-0.019,0.151,0.333,129.76,-30.34,25.09,1785110566475.569
0.012,0.163,0.184,144.57,-44.43,35.71,1785110566486.256
0.042,0.205,0.079,138.8,-54.08,46.66,1785110566499.686
0.048,0.179,0.014,116.25,-62.41,55.88,1785110566505.534
0.042,0.115,-0.046,80.11,-70.99,62.17,1785110566516.3628
0.036,0.05,-0.097,40.59,-79.9,67.72,1785110566529.3682
0.036,-0.024,-0.17,7.66,-89.45,71.75,1785110566535.419
0.026,-0.106,-0.263,-15.56,-98.09,74.74,1785110566545.7402
-0.004,-0.194,-0.363,-33.08,-104.83,76.91,1785110566556.49
-0.043,-0.281,-0.437,-47.46,-109.13,80.02,1785110566570.395
-0.087,-0.355,-0.464,-57.99,-111.48,83.32,1785110566575.443
-0.114,-0.431,-0.482,-63.88,-114.6,85.33,1785110566586.413
-0.137,-0.498,-0.53,-65.34,-117.98,87.25,1785110566600.3342
-0.17,-0.518,-0.573,-65.43,-119.88,91.53,1785110566605.7751
-0.192,-0.535,-0.624,-60.27,-121.8,97.35,1785110566616.6038
-0.177,-0.572,-0.697,-49.81,-123.36,101.78,1785110566629.671
-0.204,-0.581,-0.732,-36.23,-123.97,104.83,1785110566635.811
-0.259,-0.582,-0.727,-19.29,-125.0,108.86,1785110566646.678
-0.315,-0.624,-0.719,-1.8,-127.2,113.25,1785110566659.8662
-0.324,-0.651,-0.777,13.64,-129.15,114.96,1785110566666.22
-0.313,-0.657,-0.879,26.49,-131.38,116.18,1785110566679.353
-0.343,-0.648,-0.983,30.0,-131.17,117.19,1785110566685.475
-0.375,-0.62,-1.071,21.39,-127.87,118.08,1785110566696.228
-0.429,-0.595,-1.037,7.84,-122.78,118.44,1785110566709.517
-0.426,-0.663,-0.929,9.13,-123.39,119.3,1785110566715.674
-0.423,-0.691,-0.955,15.9,-123.72,120.43,1785110566726.274
-0.445,-0.673,-0.955,18.89,-126.9,123.17,1785110566739.51
-0.587,-0.597,-0.991,17.91,-119.66,116.73,1785110566745.587
-0.581,-0.651,-0.992,12.51,-117.53,118.26,1785110566756.506
-0.556,-0.731,-1.013,13.18,-116.86,118.96,1785110566769.734
-0.573,-0.714,-0.94,17.3,-112.83,116.43,1785110566775.7922
-0.563,-0.782,-0.875,32.81,-112.34,116.73,1785110566789.136
-0.585,-0.802,-0.807,52.28,-112.7,116.55,1785110566795.183
-0.627,-0.777,-0.825,70.38,-111.39,116.76,1785110566806.112
-0.661,-0.72,-0.84,75.84,-108.8,114.63,1785110566819.431
-0.705,-0.67,-0.828,72.79,-109.5,113.13,1785110566825.393
-0.766,-0.663,-0.858,67.51,-111.45,114.75,1785110566836.3508
-0.806,-0.661,-0.92,55.94,-111.58,115.54,1785110566849.668
-0.82,-0.662,-0.992,34.67,-107.76,114.9,1785110566855.904
-0.827,-0.639,-0.982,3.05,-99.95,114.47,1785110566866.7168
-0.793,-0.668,-0.879,-24.35,-94.03,116.12,1785110566879.6912
-0.746,-0.734,-0.756,-35.77,-93.08,115.24,1785110566885.7588
-0.743,-0.741,-0.656,-33.02,-94.79,109.07,1785110566896.368
-0.78,-0.72,-0.613,-21.85,-97.69,101.6,1785110566909.7058
-0.842,-0.713,-0.613,-9.34,-101.23,95.95,1785110566915.7388
-0.89,-0.722,-0.626,0.43,-104.8,94.09,1785110566926.2002
-0.918,-0.74,-0.628,8.45,-107.18,95.61,1785110566939.377
-0.93,-0.741,-0.65,15.2,-108.49,99.06,1785110566945.42
-0.928,-0.712,-0.687,18.34,-109.2,102.54,1785110566956.095
-0.932,-0.695,-0.721,16.82,-109.5,104.56,1785110566969.4321
-0.981,-0.674,-0.768,7.48,-109.9,104.04,1785110566975.4229
-1.056,-0.637,-0.818,-8.0,-110.42,102.42,1785110566986.2002
-1.08,-0.644,-0.871,-23.1,-109.41,103.76,1785110566999.543
-1.088,-0.656,-0.862,-37.81,-106.66,105.23,1785110567005.517
-1.089,-0.702,-0.849,-49.9,-105.23,108.16,1785110567016.4102
