ax,ay,az,gx,gy,gz,timestamp_ms
-0.511,-1.463,-1.409,-80.48,-2.78,-14.44,1785110630722.1062
-0.545,-1.513,-1.315,-105.53,9.55,-24.96,1785110630722.549
-0.541,-1.498,-1.236,-107.3,19.32,-33.36,1785110630723.0078
-0.506,-1.437,-1.142,-95.07,27.38,-39.25,1785110630723.437
-0.52,-1.34,-1.085,-74.04,33.3,-45.87,1785110630723.873
-0.581,-1.245,-1.084,-56.18,39.64,-53.01,1785110630724.302
-0.63,-1.193,-1.037,-47.06,48.52,-61.31,1785110630724.7202
-0.67,-1.175,-0.976,-38.88,56.49,-70.44,1785110630725.154
-0.707,-1.157,-0.914,-28.66,63.81,-76.97,1785110630725.569
-0.747,-1.117,-0.887,-14.04,69.55,-83.1,1785110630725.966
-0.784,-1.052,-0.888,-1.74,74.04,-89.14,1785110630726.3748
-0.805,-0.995,-0.884,3.75,77.88,-94.58,1785110630726.808
-0.83,-0.948,-0.879,2.62,81.18,-98.94,1785110630727.2087
-0.854,-0.905,-0.872,-4.0,84.41,-102.66,1785110630727.62
-0.864,-0.863,-0.865,-13.49,87.31,-106.33,1785110630728.045
-0.855,-0.825,-0.859,-25.42,89.57,-109.2,1785110630728.4648
-0.84,-0.789,-0.846,-38.51,91.95,-111.12,1785110630728.8708
-0.837,-0.746,-0.82,-51.45,93.94,-112.19,1785110630729.381
-0.828,-0.701,-0.792,-63.6,95.43,-111.88,1785110630729.887
-0.821,-0.677,-0.773,-73.7,97.87,-111.58,1785110630730.2551
-0.816,-0.659,-0.746,-82.71,100.89,-111.39,1785110630730.619
-0.805,-0.654,-0.719,-88.69,103.85,-109.81,1785110630730.9802
-0.794,-0.658,-0.701,-88.93,105.84,-107.55,1785110630731.3389
-0.769,-0.658,-0.705,-83.16,107.24,-104.74,1785110630731.7031
-0.745,-0.641,-0.705,-72.94,107.67,-102.18,1785110630732.064
-0.708,-0.617,-0.718,-61.1,106.69,-99.67,1785110630732.432
-0.655,-0.603,-0.73,-49.78,105.62,-98.06,1785110630732.8179
-0.626,-0.585,-0.707,-39.83,104.65,-97.87,1785110630733.182
-0.604,-0.566,-0.681,-32.01,102.3,-97.72,1785110630733.529
-0.559,-0.55,-0.675,-26.58,99.52,-97.14,1785110630733.8848
-0.511,-0.541,-0.685,-24.63,96.8,-97.57,1785110630734.256
-0.473,-0.523,-0.695,-29.18,94.0,-98.94,1785110630734.643
-0.434,-0.524,-0.735,-40.04,91.43,-100.1,1785110630735.021
-0.395,-0.531,-0.797,-56.37,90.49,-101.35,1785110630735.404
-0.353,-0.537,-0.845,-74.92,91.25,-102.02,1785110630735.771
-0.309,-0.551,-0.871,-92.53,93.02,-102.42,1785110630736.127
-0.268,-0.558,-0.865,-108.22,95.16,-102.63,1785110630736.495
-0.242,-0.562,-0.81,-118.56,97.54,-101.66,1785110630736.862
-0.243,-0.579,-0.746,-121.59,99.49,-100.59,1785110630737.23
-0.249,-0.591,-0.709,-117.68,99.58,-99.7,1785110630737.5833
-0.232,-0.587,-0.712,-107.82,98.82,-98.45,1785110630737.925
-0.209,-0.549,-0.725,-94.09,98.85,-97.14,1785110630738.239
-0.172,-0.497,-0.74,-78.25,99.46,-94.79,1785110630738.548
-0.118,-0.458,-0.752,-62.65,99.92,-91.56,1785110630738.863
-0.071,-0.426,-0.766,-49.07,99.86,-87.71,1785110630739.182
-0.048,-0.402,-0.778,-37.57,99.83,-82.67,1785110630739.4932
-0.023,-0.383,-0.771,-28.38,99.7,-76.14,1785110630739.8037
0.011,-0.367,-0.761,-20.05,99.4,-69.58,1785110630740.111
0.047,-0.342,-0.765,-13.34,98.18,-63.2,1785110630740.426
0.07,-0.318,-0.766,-8.39,97.32,-56.43,1785110630740.738
0.077,-0.309,-0.777,-6.53,97.17,-49.56,1785110630741.038
0.095,-0.298,-0.8,-9.74,97.51,-43.06,1785110630741.349
0.122,-0.282,-0.792,-16.24,99.12,-36.56,1785110630741.6638
0.136,-0.278,-0.754,-23.59,101.63,-30.43,1785110630741.9797
0.145,-0.279,-0.707,-30.06,103.46,-24.69,1785110630742.2842
0.151,-0.288,-0.668,-33.57,103.52,-19.29,1785110630742.5999
0.162,-0.298,-0.64,-33.17,102.85,-14.65,1785110630742.915
0.185,-0.305,-0.639,-29.73,101.72,-11.11,1785110630743.237
0.213,-0.305,-0.634,-24.48,100.38,-8.7,1785110630743.5378
0.234,-0.303,-0.618,-18.4,98.45,-6.71,1785110630743.837
0.239,-0.298,-0.6,-12.63,96.59,-5.52,1785110630744.123
0.252,-0.289,-0.58,-7.78,94.49,-4.85,1785110630744.3972
0.292,-0.29,-0.571,-3.63,91.86,-5.19,1785110630744.677
0.344,-0.288,-0.572,-0.98,89.11,-6.84,1785110630744.954
0.41,-0.287,-0.59,-0.52,86.83,-9.58,1785110630745.2358
0.469,-0.268,-0.583,-2.01,85.09,-12.94,1785110630745.5107
0.48,-0.237,-0.533,-3.2,82.64,-15.32,1785110630745.7932
0.44,-0.201,-0.477,-2.35,79.07,-15.63,1785110630746.086
0.373,-0.161,-0.438,0.09,75.44,-14.31,1785110630746.358
0.338,-0.152,-0.417,1.92,71.17,-11.29,1785110630746.665
0.329,-0.166,-0.397,2.08,66.81,-8.21,1785110630746.9421
0.316,-0.172,-0.358,1.4,62.07,-4.43,1785110630747.22
0.301,-0.19,-0.323,2.04,57.47,0.95,1785110630747.489
0.287,-0.205,-0.292,2.9,52.89,5.83,1785110630747.7708
0.298,-0.219,-0.273,5.19,48.52,10.19,1785110630748.054
0.302,-0.238,-0.244,10.28,43.28,14.25,1785110630748.341
0.266,-0.244,-0.203,17.46,36.84,16.57,1785110630748.6248
0.242,-0.244,-0.212,25.24,29.05,18.1,1785110630748.991
0.256,-0.234,-0.238,31.95,20.87,19.14,1785110630749.322
0.299,-0.232,-0.274,36.59,13.37,19.35,1785110630749.6082
0.331,-0.239,-0.303,37.51,7.17,18.92,1785110630749.896
0.322,-0.247,-0.295,35.13,2.01,18.86,1785110630750.18
0.297,-0.267,-0.269,31.68,-3.14,18.8,1785110630750.4622
0.274,-0.278,-0.235,28.5,-8.88,18.1,1785110630750.742
0.274,-0.278,-0.235,26.95,-14.95,16.97,1785110630751.03
0.26,-0.271,-0.196,27.41,-22.0,15.81,1785110630751.3333
0.272,-0.252,-0.173,28.23,-29.45,14.4,1785110630751.607
0.283,-0.236,-0.166,27.65,-36.47,11.69,1785110630751.8762
0.286,-0.223,-0.182,23.96,-42.91,8.39,1785110630752.1448
0.292,-0.203,-0.228,23.96,-42.91,8.39,1785110630752.411
0.289,-0.193,-0.263,17.61,-48.22,5.77,1785110630752.675
0.276,-0.204,-0.297,9.8,-52.43,3.36,1785110630752.943
0.263,-0.225,-0.327,1.83,-55.42,0.85,1785110630753.2139
0.248,-0.243,-0.341,-4.12,-57.5,-1.77,1785110630753.4832
0.219,-0.254,-0.333,-7.39,-59.42,-4.03,1785110630753.748
0.164,-0.253,-0.299,-7.97,-61.31,-5.49,1785110630754.013
0.093,-0.246,-0.25,-4.7,-63.78,-5.86,1785110630754.314
0.024,-0.224,-0.194,3.27,-67.69,-4.46,1785110630754.574
0.011,-0.217,-0.179,18.13,-73.55,-1.68,1785110630754.845
0.063,-0.239,-0.22,38.82,-80.48,0.67,1785110630755.1118
0.107,-0.254,-0.259,61.01,-88.53,3.33,1785110630755.3667
0.112,-0.265,-0.337,81.45,-96.99,8.48,1785110630755.6382
0.08,-0.249,-0.428,95.95,-103.34,16.36,1785110630755.911
0.043,-0.233,-0.513,104.77,-106.94,26.22,1785110630756.187
-0.01,-0.23,-0.574,108.89,-106.72,35.89,1785110630756.4512
-0.106,-0.21,-0.578,108.62,-102.39,45.14,1785110630756.727
-0.187,-0.187,-0.546,108.43,-97.35,54.35,1785110630757.01
-0.113,-0.206,-0.53,112.46,-95.68,63.39,1785110630757.28
0.051,-0.24,-0.48,123.11,-99.19,71.44,1785110630757.545
0.102,-0.272,-0.45,138.58,-106.51,82.74,1785110630757.8071
0.031,-0.284,-0.476,151.92,-113.74,99.67,1785110630758.09
-0.054,-0.279,-0.569,157.38,-119.75,118.11,1785110630758.3628
-0.079,-0.315,-0.722,150.73,-121.62,133.15,1785110630758.6218
-0.083,-0.326,-0.859,124.55,-120.4,142.37,1785110630758.8857
-0.132,-0.294,-0.905,82.03,-117.34,150.52,1785110630759.157
-0.199,-0.287,-0.929,31.46,-112.61,160.1,1785110630759.409
-0.287,-0.317,-0.893,-20.81,-108.52,170.45,1785110630759.68
-0.426,-0.511,-0.896,-60.88,-111.55,178.81,1785110630759.9548
-0.564,-0.898,-0.996,-77.0,-117.8,179.72,1785110630760.2173
-0.672,-1.234,-0.974,-62.53,-118.66,175.6,1785110630760.4749
-0.691,-1.359,-0.905,-13.21,-118.69,174.41,1785110630760.756
-0.652,-1.275,-0.961,51.94,-118.59,178.11,1785110630761.015
-0.684,-1.07,-1.08,91.62,-115.73,180.61,1785110630761.27
-0.74,-0.84,-1.143,75.75,-108.83,178.47,1785110630761.5217
-0.758,-0.777,-1.079,20.51,-96.53,175.63,1785110630761.775
-0.78,-0.877,-0.87,-36.84,-84.29,166.14,1785110630762.03
-0.815,-0.977,-0.643,-60.49,-78.98,150.94,1785110630762.287
-0.846,-1.001,-0.526,-44.95,-81.55,136.63,1785110630762.5378
-0.839,-0.97,-0.51,-15.05,-87.53,128.85,1785110630762.795
-0.766,-0.891,-0.569,11.23,-93.05,126.68,1785110630763.0579
-0.676,-0.829,-0.645,25.97,-98.06,128.03,1785110630763.3071
-0.85,-0.796,-0.633,27.22,-100.41,132.05,1785110630763.562
-0.89,-0.817,-0.689,23.01,-98.85,135.9,1785110630763.811
-0.864,-0.789,-0.691,9.89,-97.6,133.0,1785110630764.061
-0.906,-0.856,-0.637,4.49,-93.42,133.15,1785110630764.306
-0.954,-0.851,-0.58,1.59,-93.08,129.43,1785110630764.569
-0.985,-0.787,-0.515,1.46,-92.84,127.63,1785110630764.899
-0.986,-0.769,-0.481,4.7,-94.64,124.3,1785110630765.16
-0.994,-0.801,-0.449,7.66,-98.33,119.24,1785110630765.402
-1.004,-0.829,-0.448,11.96,-102.88,115.85,1785110630765.648
-0.965,-0.811,-0.521,16.14,-108.49,116.12,1785110630765.8958
-0.914,-0.789,-0.651,16.94,-113.1,117.53,1785110630766.14
-0.921,-0.768,-0.786,4.64,-114.29,117.59,1785110630766.378
-0.933,-0.736,-0.913,-18.95,-110.81,116.79,1785110630766.627
-0.94,-0.767,-0.955,-40.83,-104.43,115.36,1785110630766.8801
-0.961,-0.857,-0.887,-57.86,-98.76,111.51,1785110630767.117
-0.96,-0.967,-0.74,-66.29,-94.7,105.29,1785110630767.373
-0.929,-1.001,-0.688,-56.15,-94.7,101.05,1785110630767.623
-0.922,-1.013,-0.695,-40.96,-97.42,98.27,1785110630767.858
-0.926,-0.986,-0.829,-24.17,-100.74,93.78,1785110630768.1123
-0.893,-0.921,-1.079,-22.0,-101.66,86.89,1785110630768.379
-0.855,-0.913,-1.306,-33.23,-93.3,78.07,1785110630768.618
-0.851,-0.959,-1.397,-53.44,-81.64,67.08,1785110630768.914
-0.823,-1.02,-1.456,-73.03,-70.53,58.02,1785110630769.176
-0.768,-1.057,-1.569,-86.73,-59.91,52.46,1785110630769.4248
-0.713,-1.09,-1.681,-97.75,-48.86,48.83,1785110630769.674
-0.632,-1.108,-1.83,-113.53,-35.65,44.5,1785110630769.9058
-0.594,-1.094,-1.899,-137.12,-16.08,35.68,1785110630770.169
-0.633,-1.07,-1.819,-161.84,5.46,19.32,1785110630770.408
-0.693,-1.071,-1.669,-180.85,23.99,-0.64,1785110630770.648
-0.738,-1.127,-1.501,-186.65,40.28,-17.7,1785110630770.888
-0.785,-1.174,-1.36,-172.12,53.93,-32.9,1785110630771.138
-0.829,-1.148,-1.291,-137.76,64.27,-46.45,1785110630771.39
-0.871,-1.042,-1.304,-95.37,73.43,-56.4,1785110630771.6213
-0.88,-0.909,-1.324,-61.34,81.73,-63.05,1785110630771.8442
-0.86,-0.776,-1.351,-39.31,89.45,-68.97,1785110630772.0818
-0.878,-0.676,-1.376,-30.15,99.0,-74.74,1785110630772.3032
-0.933,-0.572,-1.233,-40.53,118.44,-81.88,1785110630772.755
-0.984,-0.539,-1.142,-42.79,125.16,-83.53,1785110630772.98
-0.87,-0.234,-0.388,-0.49,-1.19,1.46,1785110630773.439
-0.872,-0.234,-0.388,-0.49,-1.37,1.4,1785110630773.6562
-0.871,-0.235,-0.388,-0.79,-1.37,1.37,1785110630773.871
-0.87,-0.238,-0.39,-1.07,-1.22,1.37,1785110630775.876
-0.868,-0.246,-0.394,-1.19,-1.1,0.92,1785110630786.1462
-0.871,-0.254,-0.393,-0.85,-0.82,0.31,1785110630796.511
-0.874,-0.256,-0.393,0.49,-0.61,0.06,1785110630806.875
-0.872,-0.259,-0.395,2.14,-0.52,-0.12,1785110630817.281
-0.867,-0.26,-0.393,2.84,-0.43,-0.52,1785110630830.503
-0.865,-0.254,-0.391,2.87,-0.46,-0.43,1785110630835.969
-0.865,-0.25,-0.391,2.69,-0.31,-0.06,1785110630846.246
-0.865,-0.248,-0.393,2.44,0.12,0.15,1785110630856.603
-0.864,-0.247,-0.391,2.26,0.15,0.31,1785110630866.976
-0.863,-0.249,-0.389,1.92,0.0,0.37,1785110630877.3608
-0.863,-0.249,-0.387,1.65,-0.03,0.52,1785110630890.6292
-0.864,-0.248,-0.387,1.34,-0.09,0.82,1785110630896.0269
-0.863,-0.251,-0.386,0.92,0.0,1.1,1785110630906.304
-0.862,-0.251,-0.385,0.43,0.0,1.19,1785110630916.687
-0.862,-0.249,-0.381,-0.4,-0.06,1.28,1785110630927.1482
-0.863,-0.248,-0.378,-1.22,0.4,1.43,1785110630940.429
-0.868,-0.245,-0.375,-2.32,0.67,1.53,1785110630945.96
-0.881,-0.247,-0.375,-3.88,-0.15,1.62,1785110630956.0562
-0.903,-0.252,-0.367,-5.8,-1.68,2.08,1785110630966.7358
-0.946,-0.25,-0.364,-8.0,-4.09,3.63,1785110630977.0151
-1.013,-0.228,-0.384,-11.69,-8.21,6.71,1785110630987.494
-1.111,-0.202,-0.448,-19.68,-14.65,11.96,1785110631000.8362
-1.171,-0.206,-0.558,-33.2,-21.03,18.77,1785110631006.761
-1.077,-0.263,-0.705,-47.73,-24.26,26.55,1785110631017.2632
-0.901,-0.351,-0.835,-60.67,-23.56,31.89,1785110631030.466
-0.845,-0.413,-0.998,-75.44,-20.17,35.04,1785110631036.595
-0.821,-0.44,-1.128,-94.27,-11.81,38.73,1785110631046.966
-0.764,-0.478,-1.112,-115.7,2.04,38.3,1785110631057.5613
-0.736,-0.551,-1.003,-134.65,17.76,28.44,1785110631071.381
-0.756,-0.651,-0.894,-143.71,32.65,12.88,1785110631076.905
-0.793,-0.756,-0.821,-134.92,43.31,-0.98,1785110631087.4932
-0.84,-0.812,-0.766,-106.69,48.52,-11.38,1785110631100.8188
-0.865,-0.809,-0.765,-62.44,52.22,-19.93,1785110631106.7168
-0.885,-0.777,-0.801,-7.17,57.13,-28.14,1785110631117.1948
-0.923,-0.728,-0.821,46.45,62.07,-36.23,1785110631130.3967
-0.977,-0.694,-0.844,88.75,66.87,-44.25,1785110631136.441
-1.055,-0.647,-0.844,117.13,71.78,-49.71,1785110631146.967
-1.178,-0.618,-0.834,137.46,75.75,-54.05,1785110631157.6672
-1.291,-0.593,-0.822,152.41,78.77,-57.41,1785110631170.935
-1.322,-0.56,-0.799,165.32,82.55,-58.2,1785110631176.919
-1.256,-0.539,-0.737,177.16,85.7,-58.72,1785110631187.701
-1.159,-0.533,-0.678,183.84,86.31,-60.85,1785110631200.9321
-1.063,-0.523,-0.68,180.76,85.76,-63.66,1785110631206.956
-0.976,-0.476,-0.783,166.02,84.93,-67.93,1785110631217.4531
-0.911,-0.403,-0.911,139.07,85.39,-73.64,1785110631230.737
-0.876,-0.353,-0.964,101.11,87.92,-82.46,1785110631236.9211
-0.867,-0.347,-0.959,55.06,91.37,-93.97,1785110631247.5168
-0.873,-0.38,-0.937,7.26,95.55,-103.89,1785110631260.727
-0.886,-0.411,-0.904,-35.13,100.8,-109.44,1785110631266.841
-0.893,-0.441,-0.872,-66.81,106.05,-112.4,1785110631277.583
-0.896,-0.482,-0.855,-86.52,111.09,-114.47,1785110631290.83
-0.906,-0.508,-0.801,-95.8,116.0,-115.82,1785110631296.9338
-0.913,-0.537,-0.742,-92.78,119.48,-115.79,1785110631310.3381
-0.915,-0.553,-0.715,-79.17,121.43,-113.96,1785110631316.4658
-0.881,-0.537,-0.756,-59.27,122.2,-110.81,1785110631327.209
-0.845,-0.511,-0.828,-38.82,122.62,-107.88,1785110631340.5
-0.841,-0.476,-0.887,-23.83,122.9,-106.27,1785110631346.559
-0.827,-0.446,-0.939,-16.66,123.69,-104.89,1785110631357.424
-0.802,-0.423,-0.981,-17.49,125.31,-103.12,1785110631370.6611
-0.778,-0.413,-1.007,-26.09,126.93,-100.59,1785110631376.699
-0.753,-0.402,-1.026,-41.29,128.45,-96.77,1785110631387.551
-0.753,-0.402,-1.026,-58.75,130.13,-92.2,1785110631400.824
-0.721,-0.416,-1.056,-75.17,133.43,-88.93,1785110631406.808
-0.706,-0.438,-1.066,-87.28,138.65,-86.73,1785110631417.541
-0.714,-0.47,-1.019,-91.86,143.38,-84.6,1785110631430.741
-0.723,-0.517,-0.918,-87.77,145.76,-81.24,1785110631436.838
-0.709,-0.555,-0.814,-87.77,145.76,-81.24,1785110631447.4531
-0.672,-0.566,-0.744,-75.14,146.4,-76.63,1785110631460.709
-0.639,-0.558,-0.7,-56.28,145.97,-72.51,1785110631466.879
-0.589,-0.526,-0.687,-37.2,143.8,-70.01,1785110631477.4558
-0.527,-0.485,-0.696,-21.58,141.06,-69.31,1785110631490.695
-0.492,-0.466,-0.739,-10.83,138.77,-70.93,1785110631496.726
-0.469,-0.453,-0.781,-7.63,137.79,-73.46,1785110631507.312
-0.47,-0.445,-0.776,-9.86,137.88,-75.81,1785110631520.566
-0.452,-0.48,-0.735,-12.24,137.55,-75.14,1785110631526.5579
-0.388,-0.503,-0.715,-13.64,137.18,-75.23,1785110631537.209
-0.399,-0.472,-0.659,-13.31,135.9,-74.86,1785110631550.5212
-0.341,-0.486,-0.682,-9.31,133.64,-73.92,1785110631556.4548
-0.316,-0.438,-0.649,-9.95,132.6,-75.2,1785110631567.036
-0.267,-0.452,-0.664,-5.49,129.55,-75.53,1785110631577.604
-0.224,-0.441,-0.67,-2.35,127.66,-78.07,1785110631590.856
-0.199,-0.428,-0.65,1.5,124.82,-80.63,1785110631597.114
-0.172,-0.417,-0.661,5.13,121.83,-81.85,1785110631607.342
-0.165,-0.378,-0.656,4.7,119.45,-83.35,1785110631620.565
-0.179,-0.378,-0.628,7.9,118.14,-80.54,1785110631626.656
-0.089,-0.358,-0.633,11.72,113.86,-78.34,1785110631637.1628
-0.078,-0.306,-0.658,9.0,109.65,-77.46,1785110631650.445
-0.047,-0.299,-0.647,2.23,109.5,-73.49,1785110631656.778
-0.033,-0.315,-0.589,-1.34,108.49,-70.5,1785110631666.875
0.041,-0.327,-0.613,3.69,103.0,-66.38,1785110631677.469
0.029,-0.262,-0.617,-0.31,98.21,-64.0,1785110631690.6682
0.062,-0.273,-0.621,-3.91,97.69,-58.29,1785110631696.661
0.103,-0.263,-0.615,-10.1,94.06,-55.88,1785110631706.9868
0.122,-0.264,-0.616,-14.59,91.1,-53.47,1785110631717.6462
0.124,-0.26,-0.578,-18.22,89.18,-50.17,1785110631730.895
0.135,-0.26,-0.537,-17.12,86.31,-46.17,1785110631737.0132
0.161,-0.249,-0.487,-12.42,83.44,-41.99,1785110631747.35
0.213,-0.246,-0.472,-5.07,79.13,-38.36,1785110631760.585
0.22,-0.213,-0.46,2.23,74.89,-36.87,1785110631766.693
0.229,-0.186,-0.437,9.03,71.29,-34.09,1785110631776.782
0.247,-0.173,-0.414,14.13,66.96,-31.16,1785110631787.399
0.258,-0.15,-0.39,18.62,62.35,-29.18,1785110631800.71
0.266,-0.13,-0.368,24.17,57.65,-26.67,1785110631806.6921
0.282,-0.109,-0.349,29.69,53.07,-23.93,1785110631817.159
0.303,-0.089,-0.327,35.22,48.31,-20.69,1785110631830.416
0.318,-0.082,-0.315,40.1,42.94,-16.82,1785110631836.4502
0.323,-0.078,-0.304,43.24,37.51,-12.33,1785110631846.8572
0.311,-0.077,-0.272,45.35,32.44,-6.71,1785110631857.388
0.294,-0.089,-0.228,47.76,27.1,-0.76,1785110631870.598
0.271,-0.099,-0.176,50.81,20.84,4.3,1785110631876.586
0.25,-0.105,-0.124,55.12,14.37,8.76,1785110631886.801
0.243,-0.104,-0.096,60.24,7.87,12.27,1785110631897.228
0.223,-0.09,-0.073,64.82,0.55,15.11,1785110631910.712
0.199,-0.07,-0.053,67.93,-7.54,17.49,1785110631916.5198
0.183,-0.036,-0.037,69.83,-15.38,19.65,1785110631926.9768
0.178,-0.009,-0.026,71.57,-23.35,22.25,1785110631937.582
0.18,0.008,-0.036,71.96,-31.83,24.35,1785110631950.873
0.192,0.02,-0.067,69.19,-40.28,26.22,1785110631956.861
0.21,0.022,-0.124,62.07,-48.04,28.99,1785110631967.373
0.221,0.016,-0.191,49.71,-54.93,33.14,1785110631980.557
0.206,0.006,-0.255,32.47,-60.06,38.18,1785110631986.5977
0.16,-0.006,-0.287,13.12,-63.45,44.53,1785110631997.027
0.105,-0.039,-0.287,-3.78,-66.71,51.45,1785110632007.551
0.055,-0.056,-0.261,-18.74,-71.32,58.57,1785110632020.811
0.02,-0.063,-0.219,-28.72,-76.66,65.8,1785110632026.8608
-0.008,-0.091,-0.2,-32.11,-82.61,72.3,1785110632037.2952
-0.044,-0.13,-0.193,-31.68,-88.75,77.27,1785110632050.582
-0.089,-0.156,-0.219,-29.21,-94.94,81.55,1785110632056.556
-0.139,-0.171,-0.255,-26.52,-101.84,86.46,1785110632067.1912
-0.184,-0.199,-0.319,-25.76,-109.71,91.59,1785110632080.3188
-0.209,-0.22,-0.454,-32.14,-115.67,95.07,1785110632086.3499
-0.236,-0.21,-0.586,-49.41,-119.6,96.62,1785110632097.0527
-0.29,-0.235,-0.636,-72.12,-121.98,97.05,1785110632107.758
-0.336,-0.281,-0.643,-96.29,-124.76,97.14,1785110632121.012
-0.374,-0.327,-0.601,-113.56,-130.44,96.29,1785110632127.02
-0.429,-0.405,-0.54,-116.46,-138.68,94.82,1785110632140.3489
-0.475,-0.477,-0.534,-105.87,-148.01,92.9,1785110632146.407
-0.508,-0.502,-0.595,-82.49,-156.16,91.46,1785110632157.2458
-0.539,-0.502,-0.635,-50.17,-162.88,92.38,1785110632170.469
-0.558,-0.512,-0.676,-13.61,-171.76,94.0,1785110632176.446
-0.643,-0.525,-0.849,20.48,-177.19,93.66,1785110632187.188
-0.708,-0.465,-0.931,30.09,-174.93,93.72,1785110632200.4358
-0.667,-0.484,-0.94,21.09,-172.12,101.47,1785110632206.6729
-0.638,-0.537,-0.934,14.28,-169.35,105.87,1785110632217.355
-0.69,-0.552,-0.933,16.48,-167.39,104.68,1785110632231.8
-0.751,-0.551,-0.964,19.56,-165.93,103.55,1785110632236.823
-0.726,-0.567,-1.0,22.06,-163.95,105.99,1785110632247.5469
-0.683,-0.591,-1.071,24.93,-164.13,106.69,1785110632260.78
-0.702,-0.595,-1.15,24.81,-163.34,106.11,1785110632266.9429
-0.772,-0.601,-1.153,20.08,-160.92,107.21,1785110632280.236
-0.81,-0.624,-1.122,16.88,-157.6,107.97,1785110632286.3901
-0.827,-0.642,-1.05,18.71,-151.92,108.04,1785110632297.205
-0.864,-0.645,-0.956,24.54,-145.66,107.39,1785110632310.472
-0.892,-0.649,-0.879,33.14,-141.88,106.6,1785110632316.567
-0.886,-0.659,-0.809,46.85,-141.7,104.65,1785110632327.404
-0.865,-0.652,-0.845,65.86,-143.71,99.61,1785110632340.67
-0.893,-0.59,-0.905,70.99,-146.06,96.16,1785110632346.7742
-0.893,-0.572,-0.982,62.96,-145.33,98.36,1785110632357.0938
-0.873,-0.506,-1.107,40.31,-144.87,96.93,1785110632370.641
-0.889,-0.532,-1.087,10.47,-139.38,100.53,1785110632376.663
-0.909,-0.568,-1.027,-12.51,-134.83,95.1,1785110632387.4429
-0.893,-0.588,-0.905,-30.0,-131.53,89.85,1785110632400.685
-0.924,-0.564,-0.755,-37.08,-132.02,77.7,1785110632406.6912
-1.121,-0.531,-0.699,-25.42,-132.3,77.91,1785110632417.4568
-1.195,-0.538,-0.726,-18.04,-134.92,77.58,1785110632430.656
-1.263,-0.485,-0.74,-14.71,-135.9,81.33,1785110632436.733
-1.275,-0.584,-0.814,-9.61,-136.45,87.53,1785110632447.304
-1.285,-0.585,-0.826,-9.06,-137.55,89.85,1785110632460.51
-1.224,-0.634,-0.941,-4.88,-138.71,96.62,1785110632466.5488
-1.149,-0.634,-1.108,-8.39,-135.65,97.32,1785110632476.9448
-1.12,-0.574,-1.179,-24.41,-127.29,93.02,1785110632487.7163
-1.072,-0.59,-1.158,-47.49,-119.17,86.89,1785110632500.991
-1.024,-0.618,-1.089,-66.53,-114.57,77.3,1785110632507.0269
-1.035,-0.609,-1.072,-75.14,-112.25,68.7,1785110632517.7312
-1.056,-0.587,-1.169,-78.16,-110.05,62.93,1785110632530.941
-1.059,-0.589,-1.298,-83.65,-105.44,59.91,1785110632537.001
-1.036,-0.65,-1.423,-90.67,-98.42,58.53,1785110632547.649
-0.97,-0.738,-1.563,-91.89,-88.63,58.47,1785110632560.885
-0.886,-0.815,-1.681,-84.51,-74.19,59.63,1785110632566.8853
-0.805,-0.849,-1.696,-71.14,-55.82,58.23,1785110632577.2422
-0.747,-0.795,-1.674,-55.79,-36.35,49.17,1785110632590.487
-0.713,-0.725,-1.64,-45.32,-17.73,34.55,1785110632596.522
-0.674,-0.714,-1.6,-42.91,0.58,19.71,1785110632606.851
-0.675,-0.685,-1.508,-46.72,18.95,5.01,1785110632617.397
-0.736,-0.651,-1.41,-48.65,34.88,-8.97,1785110632630.6392
-0.786,-0.662,-1.328,-47.46,48.83,-23.13,1785110632636.668
-0.851,-0.683,-1.258,-43.21,60.7,-36.74,1785110632647.036
-0.907,-0.759,-1.199,-28.6,74.1,-43.98,1785110632657.6582
-0.943,-0.747,-1.181,-6.32,84.75,-54.2,1785110632670.905
-0.958,-0.666,-1.156,15.81,93.81,-61.46,1785110632676.896
-0.958,-0.666,-1.156,31.13,101.02,-68.42,1785110632687.372
-0.991,-0.598,-1.142,35.46,107.82,-75.81,1785110632700.704
-1.038,-0.517,-1.139,32.07,116.49,-80.78,1785110632706.686
-1.044,-0.468,-1.104,27.62,124.27,-86.12,1785110632717.3682
-1.066,-0.442,-1.059,27.86,130.5,-89.6,1785110632730.588
-1.105,-0.438,-1.005,27.86,130.5,-89.6,1785110632736.743
-1.116,-0.478,-0.96,35.07,134.86,-91.4,1785110632747.295
-1.123,-0.522,-0.904,47.52,138.65,-90.82,1785110632760.574
-1.138,-0.537,-0.834,65.16,140.66,-89.45,1785110632766.594
-1.14,-0.511,-0.803,86.43,139.68,-90.09,1785110632777.283
-1.141,-0.446,-0.797,102.02,138.13,-92.01,1785110632790.5312
-1.134,-0.414,-0.797,108.83,137.55,-94.21,1785110632796.578
-1.111,-0.406,-0.814,105.59,137.79,-97.96,1785110632807.5469
-1.091,-0.392,-0.816,93.42,139.87,-101.26,1785110632820.7732
-1.078,-0.39,-0.795,76.97,141.64,-103.95,1785110632826.778
-1.057,-0.405,-0.757,59.42,141.67,-105.35,1785110632837.7888
-1.024,-0.421,-0.713,46.69,140.84,-105.47,1785110632850.9922
-0.991,-0.429,-0.676,41.11,138.71,-105.32,1785110632857.014
-0.952,-0.431,-0.64,40.62,134.83,-104.71,1785110632870.389
-0.914,-0.432,-0.619,42.57,129.73,-102.79,1785110632876.4392
-0.868,-0.435,-0.621,44.74,125.03,-99.52,1785110632887.33
-0.821,-0.44,-0.615,46.51,121.52,-96.07,1785110632900.3442
-0.778,-0.446,-0.612,47.67,118.32,-93.11,1785110632906.147
-0.737,-0.441,-0.626,47.46,115.63,-90.12,1785110632917.294
-0.706,-0.428,-0.64,42.79,113.13,-87.44,1785110632930.54
-0.672,-0.432,-0.688,33.81,111.0,-86.0,1785110632936.727
-0.643,-0.424,-0.697,17.09,109.74,-85.45,1785110632947.208
-0.608,-0.437,-0.68,-1.74,108.37,-84.17,1785110632960.5032
-0.575,-0.462,-0.659,-17.98,106.81,-82.64,1785110632966.6829
-0.537,-0.49,-0.654,-29.3,104.25,-80.87,1785110632977.139
-0.509,-0.503,-0.657,-37.81,101.47,-79.47,1785110632990.3801
-0.511,-0.492,-0.637,-46.51,99.58,-78.49,1785110632996.419
-0.492,-0.497,-0.605,-53.93,97.9,-77.76,1785110633006.919
-0.462,-0.515,-0.569,-60.12,96.74,-79.38,1785110633017.592
-0.466,-0.54,-0.553,-64.24,96.44,-83.1,1785110633030.8071
-0.479,-0.563,-0.51,-68.03,95.52,-88.96,1785110633036.884
-0.457,-0.584,-0.477,-66.99,93.36,-95.46,1785110633047.2341
-0.416,-0.601,-0.467,-58.81,90.37,-101.32,1785110633060.4548
-0.377,-0.584,-0.487,-49.1,85.42,-106.33,1785110633066.581
-0.344,-0.538,-0.533,-44.53,79.32,-110.29,1785110633077.196
-0.32,-0.494,-0.601,-45.87,74.22,-112.95,1785110633090.503
-0.287,-0.467,-0.684,-51.55,71.02,-114.63,1785110633096.532
-0.241,-0.436,-0.742,-62.62,70.07,-114.69,1785110633107.225
-0.18,-0.405,-0.777,-77.06,70.62,-112.86,1785110633120.9932
-0.114,-0.384,-0.817,-91.68,72.21,-108.74,1785110633126.509
-0.044,-0.354,-0.854,-106.36,74.74,-103.34,1785110633137.2449
0.019,-0.332,-0.878,-118.69,77.58,-96.84,1785110633150.535
0.071,-0.33,-0.876,-126.62,78.68,-89.79,1785110633156.471
0.12,-0.341,-0.877,-127.9,78.01,-81.61,1785110633167.296
0.144,-0.356,-0.904,-121.34,76.91,-72.66,1785110633180.419
0.141,-0.36,-0.921,-105.53,75.78,-63.23,1785110633186.475
0.133,-0.373,-0.92,-81.88,74.77,-53.47,1785110633197.074
0.146,-0.367,-0.909,-55.76,73.89,-43.89,1785110633207.697
0.173,-0.333,-0.937,-30.24,72.94,-34.12,1785110633220.963
0.198,-0.285,-0.975,-12.24,73.18,-23.87,1785110633226.939
0.197,-0.25,-0.985,-3.45,75.41,-14.74,1785110633237.3062
0.176,-0.245,-0.969,-0.34,78.59,-8.09,1785110633250.622
0.16,-0.246,-0.935,1.65,81.73,-3.57,1785110633256.4348
0.15,-0.26,-0.887,6.16,83.93,-0.64,1785110633266.5742
0.134,-0.295,-0.827,13.55,84.96,0.95,1785110633277.036
0.108,-0.318,-0.748,22.89,84.57,2.11,1785110633287.596
0.101,-0.319,-0.685,33.94,82.98,3.6,1785110633300.9082
0.099,-0.297,-0.641,44.92,80.84,4.64,1785110633306.8271
0.099,-0.259,-0.586,53.5,79.29,5.62,1785110633317.087
0.113,-0.23,-0.512,58.53,77.49,6.5,1785110633327.5808
0.122,-0.219,-0.445,61.8,73.92,6.23,1785110633340.852
0.117,-0.228,-0.37,65.58,69.19,5.46,1785110633346.866
0.127,-0.214,-0.322,70.93,64.58,6.13,1785110633357.038
0.185,-0.222,-0.3,75.35,59.18,7.08,1785110633367.604
0.205,-0.218,-0.295,76.42,51.88,6.16,1785110633380.853
0.178,-0.182,-0.28,73.34,44.5,5.83,1785110633386.889
0.158,-0.16,-0.287,66.23,37.17,7.14,1785110633397.0361
0.16,-0.141,-0.317,54.2,29.73,8.21,1785110633407.582
0.165,-0.13,-0.348,38.18,22.03,8.55,1785110633420.859
0.155,-0.121,-0.366,18.8,15.81,8.79,1785110633426.811
0.138,-0.105,-0.359,-2.04,11.66,9.55,1785110633437.0298
0.129,-0.11,-0.325,-19.68,7.6,10.9,1785110633447.573
0.12,-0.134,-0.288,-31.56,2.14,11.05,1785110633460.758
0.11,-0.143,-0.236,-37.48,-3.91,10.93,1785110633466.905
0.112,-0.151,-0.188,-35.43,-10.25,11.05,1785110633477.06
0.105,-0.152,-0.147,-25.64,-16.57,10.16,1785110633487.773
0.099,-0.146,-0.117,-10.35,-23.87,9.89,1785110633500.9812
0.105,-0.148,-0.127,8.45,-32.32,9.98,1785110633506.906
0.12,-0.147,-0.17,27.01,-40.96,10.38,1785110633517.301
0.133,-0.139,-0.247,40.77,-49.26,11.29,1785110633530.43
0.142,-0.12,-0.334,45.78,-56.49,13.58,1785110633536.478
0.128,-0.101,-0.415,41.08,-61.13,16.79,1785110633546.841
0.099,-0.092,-0.46,28.38,-63.78,20.97,1785110633557.495
0.076,-0.099,-0.481,11.54,-65.89,25.18,1785110633570.7468
0.05,-0.109,-0.47,-4.73,-67.42,28.69,1785110633576.735
0.035,-0.123,-0.44,-17.58,-69.98,31.65,1785110633587.2021
0.046,-0.156,-0.436,-25.09,-74.19,33.97,1785110633597.7732
0.044,-0.179,-0.432,-28.2,-79.53,36.32,1785110633611.0332
0.037,-0.21,-0.468,-27.59,-86.52,40.19,1785110633617.0298
0.012,-0.248,-0.54,-25.18,-93.08,45.11,1785110633627.445
-0.033,-0.263,-0.615,-23.32,-97.45,50.94,1785110633640.6772
-0.064,-0.276,-0.677,-21.21,-101.08,56.92,1785110633646.7048
-0.103,-0.298,-0.74,-18.8,-104.28,61.8,1785110633657.363
-0.133,-0.324,-0.729,-19.1,-106.02,67.23,1785110633670.593
-0.154,-0.361,-0.679,-17.79,-109.29,73.0,1785110633676.646
-0.176,-0.418,-0.649,-10.32,-113.35,78.83,1785110633687.2903
-0.213,-0.46,-0.637,1.46,-117.1,84.02,1785110633700.564
