ax,ay,az,gx,gy,gz,timestamp_ms
-0.964,-0.449,-0.991,-48.13,124.82,-77.43,1785110416150.271
-1.006,-0.475,-0.963,-39.06,129.34,-79.71,1785110416150.757
-1.04,-0.463,-0.94,-26.58,130.5,-81.09,1785110416151.192
-1.051,-0.447,-0.945,-14.68,130.59,-80.42,1785110416151.626
-1.038,-0.43,-0.973,-6.2,130.77,-78.19,1785110416152.056
-1.015,-0.405,-1.008,-2.2,131.96,-76.6,1785110416152.478
-1.0,-0.395,-1.023,-3.11,134.46,-75.75,1785110416152.91
-1.002,-0.39,-1.018,-9.09,138.13,-74.89,1785110416153.3281
-1.003,-0.393,-0.976,-16.94,141.7,-73.4,1785110416153.744
-0.991,-0.391,-0.911,-23.29,144.2,-71.05,1785110416154.154
-0.963,-0.384,-0.863,-25.15,145.15,-68.33,1785110416154.5652
-0.935,-0.393,-0.839,-22.1,144.69,-66.32,1785110416154.993
-0.912,-0.413,-0.842,-16.48,144.17,-66.16,1785110416155.4119
-0.903,-0.427,-0.844,-10.5,144.38,-67.35,1785110416155.833
-0.896,-0.433,-0.832,-4.52,144.63,-68.42,1785110416156.241
-0.873,-0.444,-0.834,1.65,143.96,-69.43,1785110416156.648
-0.843,-0.448,-0.834,5.49,143.01,-70.71,1785110416157.076
-0.82,-0.441,-0.809,6.26,141.82,-72.05,1785110416157.423
-0.787,-0.434,-0.813,7.66,139.96,-73.0,1785110416157.773
-0.763,-0.413,-0.83,8.97,139.84,-74.43,1785110416158.13
-0.763,-0.413,-0.83,6.68,141.18,-77.21,1785110416158.481
-0.755,-0.382,-0.86,-1.16,144.38,-80.14,1785110416158.835
-0.736,-0.353,-0.861,-9.49,146.28,-81.55,1785110416159.19
-0.695,-0.361,-0.835,-12.48,146.24,-81.42,1785110416159.554
-0.658,-0.384,-0.803,-11.35,145.05,-80.6,1785110416159.915
-0.626,-0.388,-0.784,-11.35,145.05,-80.6,1785110416160.276
-0.598,-0.378,-0.786,-9.89,143.62,-79.2,1785110416160.63
-0.573,-0.356,-0.795,-9.89,142.49,-77.36,1785110416160.985
-0.535,-0.34,-0.791,-11.14,141.33,-75.14,1785110416161.3372
-0.497,-0.328,-0.78,-12.51,139.87,-72.97,1785110416161.695
-0.471,-0.315,-0.775,-13.79,137.88,-70.71,1785110416162.0532
-0.438,-0.298,-0.775,-15.56,136.27,-68.3,1785110416162.414
-0.412,-0.285,-0.751,-18.4,135.14,-65.89,1785110416162.773
-0.381,-0.263,-0.712,-21.09,132.82,-62.62,1785110416163.1318
-0.342,-0.242,-0.693,-23.22,129.95,-59.3,1785110416163.4922
-0.31,-0.237,-0.667,-24.9,127.26,-56.25,1785110416163.861
-0.292,-0.242,-0.633,-25.12,123.97,-54.17,1785110416164.22
-0.267,-0.249,-0.609,-22.77,120.52,-51.7,1785110416164.566
-0.235,-0.255,-0.604,-17.49,116.46,-49.44,1785110416164.8892
-0.217,-0.254,-0.604,-10.96,111.58,-46.94,1785110416165.202
-0.184,-0.26,-0.614,-3.94,106.78,-44.34,1785110416165.523
-0.141,-0.254,-0.6,2.69,102.21,-42.36,1785110416165.871
-0.09,-0.246,-0.604,9.0,97.69,-41.35,1785110416166.186
-0.054,-0.249,-0.618,13.15,94.64,-41.41,1785110416166.496
-0.002,-0.268,-0.641,14.71,88.87,-40.19,1785110416166.817
0.041,-0.273,-0.688,15.08,83.93,-40.31,1785110416167.141
0.039,-0.265,-0.722,11.69,81.88,-41.08,1785110416167.484
0.052,-0.276,-0.739,3.97,79.81,-41.2,1785110416167.791
0.095,-0.292,-0.737,-5.16,77.64,-40.96,1785110416168.181
0.115,-0.296,-0.703,-12.15,76.72,-40.74,1785110416168.522
0.119,-0.298,-0.667,-15.87,76.08,-40.19,1785110416168.827
0.13,-0.287,-0.618,-16.97,75.05,-39.34,1785110416169.139
0.15,-0.265,-0.573,-15.17,73.0,-37.97,1785110416169.46
0.166,-0.244,-0.544,-11.29,70.44,-36.56,1785110416169.7732
0.176,-0.225,-0.511,-6.9,67.84,-35.62,1785110416170.076
0.191,-0.217,-0.487,-2.08,64.61,-35.71,1785110416170.381
0.19,-0.194,-0.468,2.47,60.67,-36.47,1785110416170.701
0.198,-0.16,-0.456,6.9,56.22,-36.23,1785110416171.0051
0.225,-0.145,-0.456,11.11,52.61,-35.4,1785110416171.304
0.22,-0.131,-0.442,13.95,49.78,-35.98,1785110416171.6108
0.21,-0.124,-0.418,15.5,46.33,-36.53,1785110416171.921
0.208,-0.119,-0.382,16.08,42.27,-36.84,1785110416172.226
0.207,-0.107,-0.341,17.24,37.63,-36.96,1785110416172.521
0.201,-0.085,-0.304,19.93,32.35,-35.71,1785110416172.8079
0.198,-0.064,-0.277,24.2,26.52,-32.5,1785110416173.089
0.202,-0.062,-0.27,30.03,20.36,-28.6,1785110416173.368
0.177,-0.065,-0.254,36.29,14.71,-25.82,1785110416173.6519
0.142,-0.062,-0.215,42.36,9.43,-22.92,1785110416173.933
0.124,-0.072,-0.206,49.59,2.78,-20.33,1785110416174.2148
0.166,-0.047,-0.213,55.21,-4.85,-17.73,1785110416174.491
0.179,-0.047,-0.25,58.32,-14.4,-14.62,1785110416174.774
0.161,-0.053,-0.271,55.82,-20.84,-10.99,1785110416175.0579
0.166,-0.083,-0.289,51.36,-27.56,-8.12,1785110416175.3398
0.162,-0.112,-0.324,44.74,-35.52,-6.84,1785110416175.616
0.149,-0.12,-0.364,34.3,-41.99,-4.7,1785110416175.8982
0.127,-0.128,-0.404,24.72,-46.72,-1.59,1785110416176.175
0.105,-0.125,-0.432,15.56,-49.99,0.46,1785110416176.4539
0.082,-0.121,-0.425,7.57,-52.19,1.74,1785110416176.732
0.037,-0.116,-0.378,2.66,-54.84,2.59,1785110416177.0098
0.009,-0.135,-0.368,2.26,-59.51,3.57,1785110416177.2852
0.005,-0.169,-0.374,5.98,-64.03,3.51,1785110416177.554
-0.012,-0.196,-0.37,14.68,-67.81,3.45,1785110416177.836
-0.022,-0.226,-0.385,28.99,-72.79,4.27,1785110416178.118
-0.045,-0.246,-0.408,47.12,-78.28,5.98,1785110416178.3838
-0.072,-0.238,-0.439,65.37,-84.51,9.92,1785110416178.648
-0.078,-0.232,-0.495,80.42,-90.7,15.14,1785110416178.915
-0.081,-0.246,-0.554,89.08,-95.65,20.05,1785110416179.183
-0.088,-0.275,-0.615,90.82,-99.64,24.51,1785110416179.445
-0.097,-0.309,-0.67,89.36,-100.77,28.96,1785110416179.717
-0.128,-0.343,-0.698,89.6,-99.31,33.42,1785110416179.984
-0.173,-0.357,-0.689,90.4,-97.72,38.97,1785110416180.2502
-0.193,-0.375,-0.665,92.14,-97.26,45.5,1785110416180.51
-0.167,-0.412,-0.641,96.47,-98.64,52.86,1785110416180.7869
-0.155,-0.453,-0.63,102.42,-102.15,60.03,1785110416181.062
-0.191,-0.482,-0.631,106.6,-106.51,68.51,1785110416181.3308
-0.228,-0.513,-0.642,108.31,-110.54,77.94,1785110416181.601
-0.28,-0.547,-0.677,108.28,-113.86,86.34,1785110416181.8728
-0.359,-0.576,-0.721,104.28,-115.24,93.6,1785110416182.146
-0.421,-0.622,-0.741,98.15,-114.87,100.56,1785110416182.414
-0.436,-0.671,-0.766,91.74,-113.38,105.87,1785110416182.689
-0.417,-0.704,-0.752,84.63,-112.03,111.27,1785110416182.961
-0.346,-0.772,-0.766,82.06,-115.12,117.89,1785110416183.231
-0.366,-0.767,-0.811,77.61,-114.84,117.86,1785110416183.496
-0.409,-0.781,-0.861,66.07,-114.11,120.43,1785110416183.768
-0.459,-0.813,-0.9,49.65,-114.81,122.99,1785110416184.042
-0.508,-0.866,-0.903,37.48,-114.51,125.03,1785110416184.311
-0.556,-0.923,-0.881,32.5,-112.7,125.49,1785110416184.562
-0.583,-0.968,-0.829,35.25,-110.6,125.8,1785110416184.819
-0.601,-0.984,-0.797,47.03,-109.23,127.51,1785110416185.0737
-0.596,-0.955,-0.746,60.49,-106.94,130.31,1785110416185.3262
-0.545,-0.949,-0.726,71.63,-106.97,132.54,1785110416185.576
-0.515,-0.935,-0.757,75.69,-108.92,133.64,1785110416185.832
-0.53,-0.939,-0.845,72.88,-109.62,134.31,1785110416186.087
-0.574,-0.956,-0.91,61.56,-108.13,132.27,1785110416186.338
-0.589,-1.022,-0.96,46.91,-107.36,130.59,1785110416186.5908
-0.626,-1.057,-0.975,33.02,-104.65,127.17,1785110416186.8438
-0.693,-1.054,-0.958,22.31,-99.67,123.6,1785110416187.0999
-0.759,-1.029,-0.916,13.7,-94.58,119.48,1785110416187.348
-0.786,-0.999,-0.876,9.06,-91.19,115.3,1785110416187.598
-0.792,-0.955,-0.834,9.28,-88.17,111.58,1785110416187.894
-0.778,-0.92,-0.827,12.85,-85.3,108.28,1785110416188.185
-0.76,-0.91,-0.822,17.73,-82.49,104.13,1785110416188.4631
-0.752,-0.915,-0.803,21.55,-79.9,99.28,1785110416188.7202
-0.757,-0.922,-0.786,24.9,-76.45,95.1,1785110416188.972
-0.757,-0.917,-0.766,28.32,-72.66,92.01,1785110416189.223
-0.757,-0.895,-0.757,31.8,-69.03,89.6,1785110416189.4688
-0.767,-0.859,-0.747,33.81,-65.74,87.95,1785110416189.719
-0.756,-0.817,-0.725,33.69,-63.11,86.73,1785110416189.97
-0.729,-0.781,-0.706,32.01,-60.0,85.42,1785110416190.2158
-0.721,-0.753,-0.689,27.5,-56.73,83.25,1785110416190.466
-0.726,-0.729,-0.679,19.32,-53.99,80.78,1785110416190.719
-0.723,-0.746,-0.703,9.74,-49.56,78.77,1785110416190.967
-0.736,-0.789,-0.727,-0.55,-43.92,76.02,1785110416191.211
-0.752,-0.822,-0.723,-7.97,-38.97,74.07,1785110416191.4602
-0.747,-0.849,-0.694,-7.45,-34.94,74.5,1785110416191.709
-0.736,-0.85,-0.695,1.13,-30.52,74.43,1785110416191.9592
-0.71,-0.809,-0.687,8.64,-25.03,72.18,1785110416192.1978
-0.726,-0.766,-0.65,11.41,-25.36,69.15,1785110416192.437
-0.708,-0.789,-0.643,13.18,-26.55,73.15,1785110416192.676
-0.689,-0.763,-0.682,15.69,-27.41,70.47,1785110416192.9111
-0.704,-0.741,-0.706,14.89,-27.59,67.14,1785110416193.149
-0.705,-0.745,-0.722,11.02,-28.17,65.0,1785110416193.387
-0.695,-0.701,-0.735,5.19,-27.47,57.71,1785110416193.6208
-0.707,-0.636,-0.755,-2.93,-26.06,46.3,1785110416193.857
-0.726,-0.609,-0.781,-18.04,-22.83,37.35,1785110416194.0952
-0.736,-0.61,-0.753,-39.31,-16.48,31.19,1785110416194.336
-0.743,-0.633,-0.687,-56.73,-10.01,24.75,1785110416194.5688
-0.747,-0.655,-0.624,-65.46,-4.97,17.98,1785110416194.803
-0.756,-0.657,-0.562,-66.71,-1.37,11.99,1785110416195.0422
-0.756,-0.657,-0.562,-62.32,1.13,7.63,1785110416195.274
-0.769,-0.649,-0.507,-53.83,2.69,4.15,1785110416195.505
-0.781,-0.625,-0.469,-42.63,3.33,1.4,1785110416195.7388
-0.783,-0.593,-0.443,-30.73,3.54,-1.19,1785110416195.9722
-0.79,-0.558,-0.417,-30.73,3.54,-1.19,1785110416196.2
-0.793,-0.519,-0.403,-20.08,3.02,-3.48,1785110416196.438
-0.795,-0.487,-0.396,-11.9,3.02,-5.4,1785110416196.671
-0.801,-0.475,-0.391,-6.74,3.81,-8.12,1785110416196.9001
-0.813,-0.474,-0.383,-4.03,4.18,-10.71,1785110416197.129
-0.821,-0.467,-0.377,-2.17,4.18,-12.39,1785110416197.3628
-0.824,-0.454,-0.376,-0.52,4.39,-13.58,1785110416197.601
-0.827,-0.44,-0.368,0.0,4.97,-14.59,1785110416197.833
-0.827,-0.433,-0.35,-0.64,5.25,-15.59,1785110416198.06
-0.83,-0.419,-0.33,-1.86,4.88,-16.72,1785110416198.2842
-0.829,-0.41,-0.312,-3.23,3.88,-17.79,1785110416198.507
-0.825,-0.398,-0.298,-4.94,2.47,-19.41,1785110416198.731
-0.817,-0.384,-0.288,-7.32,0.82,-21.0,1785110416198.9497
-0.802,-0.38,-0.292,-10.35,-0.61,-22.22,1785110416199.173
-0.794,-0.382,-0.296,-13.98,-1.25,-23.53,1785110416199.397
-0.791,-0.396,-0.295,-16.57,-1.77,-24.54,1785110416199.621
-0.789,-0.413,-0.292,-16.79,-2.78,-24.35,1785110416199.842
-0.87,-0.228,-0.407,-16.57,-2.5,-3.42,1785110416200.278
-0.87,-0.233,-0.401,-14.37,-2.14,-3.2,1785110416200.4978
-0.87,-0.232,-0.396,-11.2,-1.92,-2.84,1785110416200.7192
-0.869,-0.229,-0.398,-7.57,-1.8,-2.47,1785110416203.5579
-0.869,-0.223,-0.402,-4.49,-1.53,-1.95,1785110416216.823
-0.866,-0.221,-0.409,-2.32,-1.19,-1.74,1785110416222.187
-0.867,-0.217,-0.404,-1.16,-1.01,-1.62,1785110416232.4888
-0.868,-0.219,-0.405,-0.03,-0.67,-1.46,1785110416242.867
-0.868,-0.219,-0.408,1.04,-0.43,-1.28,1785110416253.2083
-0.87,-0.216,-0.409,1.71,-0.15,-1.07,1785110416263.674
-0.871,-0.213,-0.408,1.62,0.06,-1.07,1785110416276.8518
-0.871,-0.214,-0.41,1.74,0.24,-1.1,1785110416282.376
-0.873,-0.213,-0.411,1.74,0.34,-1.01,1785110416292.5771
-0.871,-0.212,-0.412,1.22,0.61,-0.82,1785110416302.9592
-0.867,-0.213,-0.409,0.76,0.89,-0.76,1785110416313.302
-0.865,-0.213,-0.401,0.4,0.85,-0.7,1785110416323.726
-0.868,-0.211,-0.396,0.27,1.07,-0.61,1785110416337.114
-0.869,-0.204,-0.402,0.55,0.92,-0.24,1785110416342.4902
-0.88,-0.2,-0.413,0.95,0.98,-0.03,1785110416352.727
-0.894,-0.204,-0.421,1.13,1.13,0.12,1785110416363.082
-0.896,-0.214,-0.434,1.53,1.5,0.43,1785110416373.461
-0.878,-0.222,-0.453,3.02,1.71,1.34,1785110416384.053
-0.873,-0.245,-0.48,6.26,1.59,2.26,1785110416397.2878
-0.897,-0.279,-0.519,9.49,1.98,2.2,1785110416403.2131
-0.901,-0.298,-0.543,12.02,3.2,1.37,1785110416413.071
-0.876,-0.324,-0.588,15.87,5.65,0.0,1785110416423.562
-0.867,-0.345,-0.626,18.98,10.13,-2.75,1785110416434.373
-0.866,-0.373,-0.637,18.95,14.71,-7.23,1785110416447.412
-0.861,-0.402,-0.631,16.63,19.38,-13.98,1785110416453.629
-0.864,-0.445,-0.617,15.47,23.93,-21.03,1785110416463.829
-0.872,-0.487,-0.62,17.09,27.25,-26.95,1785110416477.049
-0.862,-0.508,-0.647,21.94,29.97,-31.59,1785110416483.042
-0.846,-0.517,-0.683,29.39,33.14,-35.65,1785110416493.502
-0.837,-0.52,-0.694,37.6,37.45,-39.98,1785110416504.163
-0.833,-0.522,-0.681,45.96,41.54,-44.07,1785110416517.611
-0.824,-0.517,-0.658,53.99,45.01,-47.4,1785110416523.61
-0.805,-0.494,-0.662,60.3,46.63,-49.47,1785110416533.893
-0.773,-0.45,-0.712,61.95,46.75,-50.48,1785110416547.174
-0.735,-0.406,-0.764,56.46,47.67,-50.42,1785110416553.246
-0.706,-0.397,-0.825,43.92,49.87,-49.32,1785110416563.5222
-0.707,-0.408,-0.876,27.34,53.5,-47.52,1785110416574.177
-0.721,-0.437,-0.893,10.25,58.29,-44.25,1785110416587.462
-0.724,-0.476,-0.899,-5.22,62.84,-39.61,1785110416593.439
-0.741,-0.503,-0.9,-17.33,67.69,-35.86,1785110416603.791
-0.768,-0.513,-0.897,-25.91,72.12,-32.5,1785110416617.12
-0.788,-0.532,-0.913,-30.46,75.32,-31.37,1785110416623.0662
-0.826,-0.562,-0.922,-33.75,79.59,-33.42,1785110416633.467
-0.882,-0.631,-0.906,-33.02,84.93,-35.55,1785110416644.126
-0.923,-0.68,-0.911,-27.71,89.21,-39.95,1785110416657.4111
-0.949,-0.695,-0.904,-21.61,93.14,-44.37,1785110416663.466
-0.967,-0.689,-0.906,-13.89,96.5,-47.43,1785110416673.783
-0.977,-0.649,-0.919,-6.35,99.22,-50.08,1785110416687.157
-0.969,-0.617,-0.947,-0.76,101.63,-52.61,1785110416693.1082
-0.977,-0.601,-0.991,0.61,104.86,-56.83,1785110416703.4822
-0.992,-0.601,-1.016,-2.38,109.93,-62.53,1785110416714.039
-0.98,-0.616,-1.033,-7.35,113.96,-67.08,1785110416727.36
-0.98,-0.616,-1.033,-11.41,117.59,-70.65,1785110416733.522
-0.966,-0.628,-1.036,-13.98,120.98,-74.22,1785110416743.826
-0.956,-0.63,-1.018,-15.5,123.57,-78.1,1785110416757.04
-0.953,-0.626,-1.003,-15.69,125.03,-81.15,1785110416762.66
-0.946,-0.619,-1.001,-15.69,125.03,-81.15,1785110416773.958
-0.932,-0.61,-1.009,-15.44,126.13,-83.32,1785110416787.2122
-0.911,-0.603,-1.019,-15.78,127.11,-84.72,1785110416793.2
-0.881,-0.605,-1.016,-17.27,128.61,-85.7,1785110416803.904
-0.863,-0.596,-1.005,-20.2,130.47,-86.95,1785110416817.2878
-0.848,-0.578,-0.999,-23.56,131.96,-87.41,1785110416823.185
-0.829,-0.57,-1.02,-26.83,133.85,-87.53,1785110416834.342
-0.803,-0.573,-1.023,-30.85,136.78,-88.23,1785110416847.1
-0.783,-0.587,-1.004,-34.3,139.87,-89.94,1785110416853.2212
-0.765,-0.606,-0.979,-35.37,142.25,-91.1,1785110416863.94
-0.746,-0.604,-0.955,-32.23,143.5,-90.85,1785110416877.147
-0.729,-0.608,-0.939,-24.08,144.75,-90.46,1785110416883.3079
-0.695,-0.606,-0.939,-15.72,145.54,-91.68,1785110416893.8242
-0.646,-0.6,-0.945,-9.4,145.66,-93.17,1785110416906.772
-0.605,-0.581,-0.954,-5.01,146.76,-94.79,1785110416912.774
-0.578,-0.555,-0.947,-2.38,148.78,-96.65,1785110416923.64
-0.557,-0.536,-0.945,-1.34,150.85,-98.57,1785110416934.0842
-0.509,-0.522,-0.961,-1.4,154.18,-100.96,1785110416947.1309
-0.442,-0.482,-0.958,-3.51,160.77,-104.31,1785110416953.7502
-0.42,-0.44,-0.971,-11.75,165.5,-108.89,1785110416964.3892
-0.435,-0.438,-0.988,-33.97,160.89,-114.23,1785110416977.535
-0.409,-0.473,-1.046,-69.34,155.55,-120.06,1785110416983.816
-0.368,-0.485,-0.978,-106.94,158.21,-123.87,1785110416996.8792
-0.354,-0.481,-0.846,-131.41,160.5,-125.55,1785110417003.082
-0.311,-0.507,-0.783,-134.68,159.06,-124.64,1785110417014.2039
-0.275,-0.478,-0.688,-121.31,158.02,-120.58,1785110417027.4119
-0.239,-0.416,-0.562,-94.18,154.52,-111.88,1785110417033.709
-0.147,-0.363,-0.545,-60.73,145.24,-99.95,1785110417046.803
-0.066,-0.286,-0.61,-30.79,135.11,-88.05,1785110417053.004
-0.031,-0.221,-0.692,-9.37,128.67,-78.46,1785110417063.4282
0.005,-0.184,-0.743,-0.58,124.15,-69.95,1785110417074.081
0.058,-0.145,-0.782,-3.91,122.38,-60.61,1785110417087.457
0.067,-0.104,-0.761,-16.57,123.17,-51.33,1785110417093.461
0.086,-0.114,-0.69,-32.69,124.06,-40.59,1785110417104.0042
0.098,-0.146,-0.6,-42.57,124.12,-30.03,1785110417117.25
0.09,-0.17,-0.528,-41.93,121.92,-21.7,1785110417123.246
0.085,-0.174,-0.437,-32.26,118.66,-13.28,1785110417134.113
0.082,-0.194,-0.363,-10.71,113.01,-6.9,1785110417147.241
0.069,-0.198,-0.328,14.22,107.49,-2.08,1785110417153.386
0.106,-0.211,-0.322,34.06,102.3,4.85,1785110417163.748
0.145,-0.186,-0.381,48.13,97.78,8.36,1785110417174.2917
0.15,-0.101,-0.339,47.58,95.65,8.06,1785110417187.4749
0.172,-0.08,-0.314,35.68,92.5,8.18,1785110417193.3792
0.195,-0.046,-0.258,18.04,90.03,7.69,1785110417203.699
0.229,-0.046,-0.194,0.37,84.51,8.64,1785110417214.1208
0.239,-0.068,-0.125,-11.51,78.01,10.56,1785110417227.404
0.238,-0.083,-0.063,-13.58,69.86,11.69,1785110417233.575
0.23,-0.086,-0.037,-7.72,59.6,11.96,1785110417243.7087
0.229,-0.072,0.008,1.62,50.57,13.31,1785110417256.9668
0.262,-0.06,0.051,11.6,40.41,14.65,1785110417262.99
0.243,-0.019,0.091,21.27,30.88,15.56,1785110417273.385
0.218,0.025,0.116,25.06,21.36,17.7,1785110417284.091
0.196,0.068,0.147,20.23,12.09,20.02,1785110417297.224
0.194,0.078,0.167,11.14,2.78,21.94,1785110417303.373
0.189,0.068,0.193,2.47,-6.99,23.29,1785110417313.376
0.186,0.035,0.198,-3.33,-18.1,25.12,1785110417324.01
0.174,0.027,0.212,-5.71,-29.82,27.83,1785110417337.522
0.17,0.014,0.187,-1.65,-41.63,31.43,1785110417343.416
0.156,0.009,0.157,4.88,-52.4,33.81,1785110417353.2031
0.145,0.002,0.126,12.24,-62.14,36.01,1785110417364.251
0.144,-0.013,0.088,20.75,-71.17,38.7,1785110417377.7668
0.142,-0.03,0.031,28.23,-79.41,41.84,1785110417383.1648
0.113,-0.052,-0.014,31.53,-86.09,44.47,1785110417393.665
0.08,-0.075,-0.039,31.62,-91.74,46.63,1785110417407.158
0.053,-0.084,-0.079,31.71,-97.32,48.95,1785110417413.0718
-0.008,-0.086,-0.112,30.88,-102.69,50.94,1785110417423.6501
-0.073,-0.085,-0.118,28.23,-108.34,52.92,1785110417436.8262
-0.1,-0.113,-0.143,28.78,-114.99,56.18,1785110417443.43
-0.104,-0.168,-0.198,33.54,-123.36,59.69,1785110417453.6682
-0.112,-0.215,-0.281,38.45,-133.06,63.2,1785110417466.947
-0.14,-0.247,-0.387,41.44,-141.61,66.68,1785110417472.8901
-0.208,-0.251,-0.479,39.64,-148.78,70.68,1785110417483.5688
-0.255,-0.257,-0.6,31.25,-154.09,75.66,1785110417496.806
-0.29,-0.266,-0.702,15.87,-156.07,79.99,1785110417502.924
-0.337,-0.283,-0.739,-2.38,-155.64,83.01,1785110417513.346
-0.37,-0.302,-0.707,-16.75,-154.85,84.96,1785110417524.092
-0.404,-0.351,-0.642,-18.77,-156.5,85.54,1785110417537.402
-0.447,-0.394,-0.634,-7.32,-161.47,85.67,1785110417543.3909
-0.483,-0.412,-0.724,9.74,-168.22,87.44,1785110417553.9219
-0.513,-0.435,-0.885,20.63,-174.5,89.21,1785110417567.204
-0.579,-0.47,-1.1,17.52,-177.8,88.2,1785110417573.266
-0.625,-0.521,-1.203,0.7,-173.89,87.31,1785110417584.018
-0.612,-0.587,-1.199,-13.43,-168.46,84.96,1785110417597.0393
-0.605,-0.609,-1.077,-18.65,-161.78,81.67,1785110417603.1418
-0.663,-0.58,-0.868,-11.81,-157.57,79.93,1785110417613.75
-0.688,-0.572,-0.637,11.32,-163.85,84.75,1785110417627.014
-0.781,-0.585,-0.82,49.59,-179.39,88.38,1785110417633.12
-1.027,-0.473,-0.946,71.9,-170.05,76.85,1785110417643.713
-0.987,-0.658,-1.004,74.4,-165.93,79.59,1785110417657.0261
-0.981,-0.811,-0.995,72.33,-166.26,81.24,1785110417662.987
-1.041,-0.845,-1.026,73.52,-163.79,79.71,1785110417673.654
-1.055,-0.757,-1.046,71.69,-154.94,74.07,1785110417686.992
-1.046,-0.669,-0.946,70.47,-148.17,65.95,1785110417692.9229
-1.018,-0.579,-0.817,75.08,-149.54,60.03,1785110417703.6218
-0.904,-0.615,-0.887,87.56,-154.79,60.27,1785110417716.985
-0.846,-0.644,-1.024,90.4,-157.32,61.1,1785110417723.0552
-0.841,-0.69,-1.123,80.23,-158.18,65.65,1785110417733.627
-0.817,-0.742,-1.244,62.72,-159.37,74.56,1785110417747.057
-0.809,-0.775,-1.29,42.97,-157.75,83.77,1785110417752.9988
-0.834,-0.784,-1.263,22.22,-154.45,88.29,1785110417763.749
-0.858,-0.734,-1.19,1.95,-150.55,88.44,1785110417776.8462
-0.846,-0.657,-1.136,-14.44,-147.07,86.55,1785110417782.529
-0.822,-0.6,-1.112,-25.18,-143.74,83.07,1785110417793.504
-0.82,-0.603,-1.06,-30.76,-141.85,78.89,1785110417804.218
-0.827,-0.642,-1.002,-31.13,-141.36,76.54,1785110417817.443
-0.83,-0.693,-0.944,-23.83,-140.11,78.46,1785110417823.494
-0.825,-0.734,-0.886,-10.25,-138.92,85.39,1785110417834.224
-0.807,-0.756,-0.837,6.35,-136.6,95.52,1785110417847.3862
-0.795,-0.78,-0.824,24.69,-135.11,107.85,1785110417853.508
-0.813,-0.768,-0.851,40.86,-131.47,117.01,1785110417864.238
-0.83,-0.713,-0.892,46.66,-125.4,122.44,1785110417877.4368
-0.87,-0.645,-0.904,39.86,-117.89,123.08,1785110417883.5142
-0.921,-0.599,-0.907,22.92,-110.66,120.12,1785110417896.6091
-0.955,-0.585,-0.89,0.27,-103.55,114.96,1785110417902.559
-0.967,-0.618,-0.84,-22.0,-96.13,108.31,1785110417913.66
-0.988,-0.678,-0.772,-38.45,-89.69,100.31,1785110417927.01
-0.999,-0.747,-0.701,-44.95,-84.6,93.87,1785110417932.964
-1.005,-0.803,-0.636,-40.68,-81.0,90.06,1785110417943.442
-1.015,-0.834,-0.623,-27.5,-78.71,88.41,1785110417954.15
-1.033,-0.826,-0.656,-8.3,-76.51,87.13,1785110417967.42
-1.052,-0.795,-0.722,14.04,-74.04,84.11,1785110417973.4468
-1.063,-0.786,-0.815,33.45,-71.54,79.2,1785110417983.814
-1.061,-0.77,-0.915,42.39,-67.08,73.67,1785110417996.9338
-1.045,-0.726,-0.99,37.87,-59.3,68.54,1785110418003.093
-1.045,-0.726,-0.99,23.77,-50.05,60.88,1785110418013.4248
-1.021,-0.678,-1.032,3.81,-41.41,51.0,1785110418024.0122
-0.984,-0.662,-1.06,-17.12,-34.64,43.21,1785110418037.424
-0.924,-0.729,-1.07,-30.43,-20.97,29.94,1785110418043.3018
-0.881,-0.735,-0.993,-35.58,-0.76,10.53,1785110418053.424
-0.878,-0.67,-0.905,-35.58,-0.76,10.53,1785110418064.1868
-0.887,-0.665,-0.804,-41.2,13.89,-6.38,1785110418077.3818
-0.863,-0.726,-0.715,-42.24,21.7,-18.8,1785110418083.6868
-0.858,-0.762,-0.671,-28.23,28.35,-29.08,1785110418093.792
-0.894,-0.747,-0.686,-2.08,35.43,-37.69,1785110418107.0469
-0.911,-0.719,-0.739,24.17,41.66,-43.55,1785110418112.978
-0.894,-0.683,-0.816,42.6,46.88,-47.3,1785110418123.431
-0.885,-0.633,-0.878,49.59,53.29,-50.42,1785110418134.1782
-0.904,-0.595,-0.888,45.9,61.25,-53.74,1785110418147.277
-0.902,-0.582,-0.869,35.22,69.8,-57.65,1785110418153.437
-0.899,-0.579,-0.867,21.85,76.97,-61.43,1785110418163.718
-0.909,-0.568,-0.907,8.39,82.89,-65.03,1785110418177.0251
-0.942,-0.56,-0.942,-6.16,89.63,-68.45,1785110418183.0
-0.972,-0.552,-0.979,-21.15,96.07,-70.59,1785110418193.279
-0.987,-0.531,-1.02,-34.09,102.24,-70.62,1785110418204.046
-1.0,-0.527,-0.994,-44.77,108.86,-68.94,1785110418217.3062
-1.019,-0.538,-0.914,-52.25,114.9,-67.02,1785110418223.319
-1.032,-0.57,-0.883,-51.24,120.46,-64.46,1785110418234.114
-1.061,-0.584,-0.846,-45.29,126.74,-61.31,1785110418247.197
-1.052,-0.611,-0.832,-32.5,129.8,-55.48,1785110418253.3708
-1.045,-0.597,-0.852,-15.35,133.34,-51.58,1785110418263.9238
-1.031,-0.564,-0.889,1.46,138.07,-49.38,1785110418277.2168
-1.018,-0.546,-0.917,14.37,142.0,-49.1,1785110418283.345
-1.031,-0.531,-0.921,23.13,145.63,-50.66,1785110418293.792
-1.044,-0.52,-0.884,30.15,147.07,-51.73,1785110418307.125
-1.046,-0.497,-0.845,36.84,146.28,-52.1,1785110418313.045
-1.039,-0.477,-0.818,43.86,145.54,-52.77,1785110418323.8242
-1.025,-0.477,-0.809,50.29,144.11,-54.41,1785110418337.122
-1.008,-0.495,-0.813,54.05,142.58,-56.28,1785110418343.049
-0.996,-0.511,-0.812,54.08,142.16,-58.57,1785110418353.801
-0.983,-0.521,-0.792,51.48,142.86,-61.13,1785110418367.876
-0.966,-0.537,-0.757,48.71,142.86,-63.57,1785110418373.2622
-0.945,-0.549,-0.734,46.88,141.73,-66.62,1785110418383.8752
-0.941,-0.54,-0.717,45.75,140.2,-70.01,1785110418396.949
-0.927,-0.517,-0.718,42.79,138.19,-74.04,1785110418403.1091
-0.893,-0.496,-0.702,35.89,136.36,-78.1,1785110418413.681
-0.868,-0.494,-0.692,27.19,133.73,-82.4,1785110418427.0122
-0.852,-0.487,-0.685,17.03,131.69,-86.76,1785110418433.035
-0.806,-0.509,-0.698,7.81,129.61,-89.33,1785110418443.5132
-0.773,-0.522,-0.715,-0.09,127.38,-91.25,1785110418454.205
-0.752,-0.514,-0.723,-6.44,125.06,-92.35,1785110418467.51
-0.71,-0.503,-0.744,-11.96,123.2,-92.68,1785110418473.4622
-0.654,-0.496,-0.748,-17.43,121.92,-92.53,1785110418484.16
-0.61,-0.502,-0.694,-20.2,118.08,-90.03,1785110418497.3062
-0.572,-0.493,-0.718,-17.18,113.22,-86.31,1785110418503.501
-0.571,-0.413,-0.798,-17.79,117.62,-89.02,1785110418514.034
-0.513,-0.421,-0.767,-27.5,122.53,-90.12,1785110418527.3171
-0.432,-0.488,-0.726,-34.64,120.37,-89.3,1785110418533.429
-0.417,-0.512,-0.738,-33.69,118.56,-89.05,1785110418543.963
-0.418,-0.519,-0.764,-29.21,118.2,-88.08,1785110418557.29
-0.376,-0.52,-0.77,-25.76,116.49,-86.67,1785110418563.364
-0.33,-0.505,-0.769,-23.32,115.63,-85.91,1785110418573.984
-0.303,-0.475,-0.752,-22.46,115.12,-86.0,1785110418587.2952
-0.269,-0.464,-0.744,-22.86,113.38,-85.7,1785110418593.2988
-0.226,-0.471,-0.743,-24.02,111.39,-84.69,1785110418603.9521
-0.206,-0.463,-0.728,-26.15,109.96,-83.47,1785110418617.19
-0.197,-0.455,-0.726,-28.5,108.01,-81.61,1785110418623.2131
-0.175,-0.443,-0.729,-30.67,106.11,-79.56,1785110418633.9253
-0.151,-0.417,-0.733,-32.69,105.96,-78.34,1785110418647.1401
-0.104,-0.422,-0.693,-35.13,104.56,-75.93,1785110418653.279
-0.081,-0.417,-0.699,-35.19,101.23,-72.7,1785110418663.8982
-0.084,-0.4,-0.669,-36.5,102.48,-71.26,1785110418677.0981
-0.043,-0.403,-0.627,-37.69,101.35,-68.79,1785110418683.1519
0.007,-0.408,-0.631,-36.32,98.18,-65.58,1785110418693.7542
0.038,-0.395,-0.662,-34.42,96.47,-63.05,1785110418707.032
0.054,-0.388,-0.668,-35.07,95.34,-61.37,1785110418712.9678
0.06,-0.407,-0.639,-35.13,93.91,-59.51,1785110418723.444
0.079,-0.41,-0.614,-32.29,92.32,-58.17,1785110418734.0857
0.104,-0.394,-0.605,-28.29,90.7,-57.8,1785110418747.31
0.134,-0.37,-0.601,-24.54,88.29,-56.7,1785110418753.459
0.165,-0.352,-0.589,-20.69,85.76,-54.9,1785110418763.766
0.183,-0.333,-0.564,-16.85,83.53,-53.47,1785110418776.989
0.2,-0.308,-0.543,-12.76,80.72,-52.4,1785110418783.128
0.211,-0.28,-0.522,-8.36,77.73,-50.66,1785110418793.406
0.228,-0.255,-0.511,-5.07,74.04,-48.07,1785110418803.914
0.239,-0.233,-0.512,-2.47,69.92,-44.34,1785110418817.173
0.25,-0.216,-0.495,-1.25,66.38,-39.34,1785110418823.2751
0.264,-0.205,-0.482,-0.43,62.81,-34.39,1785110418833.423
0.265,-0.191,-0.454,0.76,60.49,-29.08,1785110418843.958
0.292,-0.183,-0.437,3.54,57.13,-23.87,1785110418857.243
0.283,-0.165,-0.432,6.23,52.77,-19.84,1785110418863.183
0.303,-0.168,-0.391,8.21,51.09,-14.04,1785110418873.3901
0.319,-0.166,-0.351,9.89,44.56,-12.02,1785110418883.936
0.302,-0.159,-0.305,14.44,40.19,-8.03,1785110418897.148
0.294,-0.139,-0.28,21.64,36.26,-5.28,1785110418903.2842
0.302,-0.116,-0.268,28.02,29.91,-3.36,1785110418913.413
0.305,-0.113,-0.249,33.39,24.2,-0.82,1785110418924.0151
0.264,-0.099,-0.227,39.86,18.95,0.55,1785110418937.248
0.243,-0.094,-0.198,46.39,13.58,3.36,1785110418943.53
0.217,-0.1,-0.148,53.22,7.6,6.65,1785110418953.364
0.209,-0.098,-0.093,62.72,0.98,9.31,1785110418963.745
0.212,-0.098,-0.073,73.49,-7.26,12.15,1785110418977.032
0.214,-0.092,-0.073,81.73,-15.78,15.44,1785110418983.166
0.23,-0.093,-0.093,86.64,-24.57,19.07,1785110418993.433
0.238,-0.093,-0.132,87.92,-33.08,22.1,1785110419004.046
0.24,-0.093,-0.203,83.29,-40.65,24.48,1785110419017.3308
0.24,-0.083,-0.284,71.2,-46.27,26.37,1785110419023.406
0.232,-0.091,-0.341,54.63,-50.57,28.53,1785110419033.8782
0.201,-0.106,-0.373,35.1,-53.35,29.57,1785110419047.0112
0.153,-0.111,-0.328,13.95,-55.82,30.73,1785110419053.134
0.139,-0.136,-0.288,-2.87,-59.97,33.08,1785110419063.351
0.144,-0.161,-0.268,-13.76,-65.07,35.52,1785110419074.024
0.128,-0.178,-0.251,-19.78,-71.35,38.09,1785110419087.352
0.104,-0.208,-0.274,-22.28,-78.68,40.16,1785110419093.2568
0.075,-0.231,-0.329,-22.95,-84.84,41.38,1785110419103.783
0.005,-0.247,-0.37,-22.06,-89.11,42.27,1785110419117.0627
-0.074,-0.267,-0.41,-19.04,-91.89,42.91,1785110419122.9817
