ax,ay,az,gx,gy,gz,timestamp_ms
0.333,-0.337,-0.942,-1.01,0.46,0.06,1784844925216.4768
0.334,-0.343,-0.933,-2.44,1.65,-0.52,1784844925217.033
0.334,-0.348,-0.928,-3.2,2.38,-0.89,1784844925217.553
0.339,-0.354,-0.915,-2.53,2.69,-0.34,1784844925218.069
0.339,-0.364,-0.921,-0.85,2.44,0.37,1784844925218.588
0.339,-0.368,-0.913,1.31,3.11,0.67,1784844925219.1018
0.348,-0.373,-0.916,2.78,3.23,0.64,1784844925219.6118
0.35,-0.374,-0.925,3.08,3.36,-0.12,1784844925220.125
0.344,-0.359,-0.91,3.17,3.91,-0.7,1784844925220.602
0.344,-0.342,-0.907,2.72,4.09,-1.25,1784844925220.927
0.34,-0.332,-0.898,0.85,4.52,-2.35,1784844925221.578
0.337,-0.33,-0.887,-0.49,4.7,-3.45,1784844925221.925
0.339,-0.34,-0.882,-0.61,4.55,-4.06,1784844925222.2432
0.342,-0.353,-0.884,-1.16,4.36,-4.24,1784844925222.6719
0.345,-0.355,-0.884,-1.4,4.27,-3.72,1784844925222.992
0.342,-0.351,-0.874,0.06,4.43,-2.44,1784844925223.31
0.343,-0.345,-0.866,2.66,4.12,-1.65,1784844925223.753
0.343,-0.337,-0.871,4.03,3.42,-1.83,1784844925224.0808
0.334,-0.329,-0.879,3.27,3.02,-2.14,1784844925224.4119
0.324,-0.327,-0.875,1.43,3.42,-1.95,1784844925224.738
0.321,-0.333,-0.868,-0.46,3.3,-1.92,1784844925225.055
0.336,-0.34,-0.867,-1.95,2.62,-1.4,1784844925225.376
0.35,-0.352,-0.877,-3.3,2.53,-0.27,1784844925226.104
0.352,-0.359,-0.874,-4.61,2.96,0.15,1784844925226.6409
0.349,-0.36,-0.865,-3.63,2.93,-0.67,1784844925227.0332
0.347,-0.36,-0.867,-0.95,2.32,-2.17,1784844925227.4211
0.342,-0.356,-0.873,0.76,1.95,-3.42,1784844925227.823
0.338,-0.35,-0.868,1.1,1.71,-3.51,1784844925228.1301
0.338,-0.348,-0.871,1.34,1.46,-3.2,1784844925228.5781
0.341,-0.349,-0.872,1.34,1.5,-2.93,1784844925228.897
0.347,-0.344,-0.865,1.28,1.43,-2.38,1784844925229.2
0.351,-0.34,-0.884,1.43,0.89,-2.23,1784844925229.507
0.341,-0.344,-0.897,0.18,1.13,-2.84,1784844925229.8171
0.328,-0.348,-0.896,-2.41,1.46,-3.72,1784844925230.1372
0.329,-0.356,-0.881,-4.52,1.31,-4.49,1784844925230.457
0.336,-0.367,-0.866,-4.82,1.1,-4.76,1784844925230.773
0.345,-0.373,-0.862,-3.36,1.19,-5.04,1784844925231.0872
0.349,-0.378,-0.86,-0.18,1.31,-5.8,1784844925231.4019
0.347,-0.37,-0.866,2.69,1.16,-6.78,1784844925231.74
0.341,-0.358,-0.878,3.69,1.01,-7.57,1784844925233.8118
0.336,-0.336,-0.882,3.3,0.98,-8.64,1784844925234.137
0.338,-0.32,-0.882,2.59,0.82,-9.06,1784844925234.472
0.339,-0.315,-0.876,1.43,0.85,-9.09,1784844925234.792
0.34,-0.316,-0.869,-0.15,0.58,-8.76,1784844925235.115
0.346,-0.315,-0.871,-0.89,0.31,-8.3,1784844925235.44
0.348,-0.316,-0.875,-0.85,0.21,-7.93,1784844925235.7559
0.344,-0.311,-0.88,-0.98,-0.09,-7.81,1784844925236.0981
0.337,-0.309,-0.885,-1.8,-0.58,-7.6,1784844925236.424
0.329,-0.309,-0.882,-2.84,-0.46,-7.11,1784844925236.7502
0.329,-0.307,-0.869,-2.87,-0.24,-6.53,1784844925237.06
0.341,-0.31,-0.871,-1.37,-0.58,-6.29,1784844925237.377
0.348,-0.319,-0.881,0.18,-0.43,-6.23,1784844925237.702
0.347,-0.322,-0.878,1.34,0.21,-6.07,1784844925238.0159
0.348,-0.315,-0.881,2.81,0.12,-5.89,1784844925238.344
0.347,-0.305,-0.892,2.96,-0.31,-6.01,1784844925238.6602
0.344,-0.3,-0.899,1.4,-0.49,-5.95,1784844925238.967
0.344,-0.299,-0.9,-0.73,-0.55,-5.98,1784844925239.2803
0.347,-0.301,-0.89,-2.17,-0.52,-5.86,1784844925239.5972
0.35,-0.309,-0.891,-2.66,-0.73,-5.68,1784844925239.907
0.35,-0.309,-0.891,-2.44,-0.7,-5.62,1784844925240.2183
0.35,-0.313,-0.887,-1.89,-0.92,-5.37,1784844925240.533
0.345,-0.302,-0.891,-1.62,-0.89,-5.07,1784844925240.8508
0.34,-0.295,-0.898,-2.41,-0.52,-4.88,1784844925241.167
0.333,-0.3,-0.902,-3.3,-0.12,-4.61,1784844925241.475
0.333,-0.311,-0.902,-3.3,-0.12,-4.61,1784844925242.8538
0.342,-0.321,-0.899,-3.94,0.09,-4.03,1784844925244.4402
0.352,-0.33,-0.895,-3.6,0.21,-3.2,1784844925246.707
0.357,-0.33,-0.895,-1.92,0.4,-2.72,1784844925247.8909
0.357,-0.325,-0.894,0.15,0.67,-2.93,1784844925248.6091
0.359,-0.316,-0.897,1.59,0.64,-3.42,1784844925248.966
0.353,-0.308,-0.9,1.56,0.95,-3.75,1784844925249.8838
0.339,-0.309,-0.894,0.52,1.46,-4.06,1784844925250.4312
0.341,-0.315,-0.889,0.15,1.56,-4.49,1784844925250.876
0.348,-0.325,-0.881,0.27,1.68,-4.76,1784844925251.395
0.355,-0.333,-0.872,1.16,1.62,-4.64,1784844925251.7231
0.363,-0.328,-0.873,2.81,1.28,-4.46,1784844925252.043
0.361,-0.312,-0.875,4.7,1.01,-4.49,1784844925252.366
0.357,-0.3,-0.891,5.52,0.82,-4.49,1784844925252.7393
0.351,-0.292,-0.893,4.33,1.1,-4.58,1784844925253.0679
0.34,-0.29,-0.881,1.95,1.1,-4.64,1784844925253.538
0.336,-0.297,-0.873,-0.03,0.73,-4.85,1784844925253.8691
0.342,-0.311,-0.867,-0.46,0.24,-5.16,1784844925254.195
0.348,-0.318,-0.873,-0.18,-0.18,-5.52,1784844925255.928
0.352,-0.313,-0.87,0.15,-0.03,-4.73,1784844925256.7197
0.353,-0.313,-0.873,0.76,-0.03,-3.57,1784844925257.028
0.36,-0.313,-0.883,1.74,0.06,-3.66,1784844925257.343
0.36,-0.312,-0.883,2.72,0.4,-4.43,1784844925257.66
0.354,-0.308,-0.873,2.96,0.52,-4.79,1784844925258.177
0.348,-0.304,-0.872,2.96,0.31,-4.73,1784844925258.6428
0.349,-0.302,-0.874,2.75,-0.12,-4.76,1784844925258.967
0.353,-0.308,-0.886,1.89,-0.52,-4.97,1784844925259.2827
0.349,-0.312,-0.876,0.64,-0.37,-4.82,1784844925259.589
0.353,-0.306,-0.867,0.7,-0.52,-4.12,1784844925259.9011
0.359,-0.302,-0.871,2.04,-0.98,-3.6,1784844925260.281
0.356,-0.302,-0.878,3.02,-1.07,-3.85,1784844925260.685
0.35,-0.297,-0.878,2.5,-0.98,-4.0,1784844925261.0261
0.35,-0.298,-0.882,1.59,-1.07,-3.69,1784844925261.344
0.356,-0.308,-0.888,1.31,-1.07,-4.0,1784844925261.7532
0.356,-0.308,-0.891,1.01,-0.98,-4.58,1784844925262.229
0.348,-0.304,-0.891,0.52,-0.82,-4.64,1784844925262.65
0.344,-0.305,-0.886,0.12,-0.7,-4.27,1784844925263.415
0.351,-0.305,-0.883,0.15,-0.95,-3.97,1784844925264.863
0.36,-0.304,-0.884,1.04,-1.16,-3.51,1784844925266.4531
0.359,-0.299,-0.892,2.23,-1.01,-2.81,1784844925267.432
0.357,-0.297,-0.9,2.66,-0.76,-2.14,1784844925268.173
0.356,-0.299,-0.902,1.89,-0.49,-1.68,1784844925268.6248
0.355,-0.299,-0.9,0.92,-0.31,-1.46,1784844925269.0098
0.357,-0.307,-0.896,0.67,0.0,-1.16,1784844925269.5059
0.356,-0.315,-0.89,1.01,0.27,-1.31,1784844925269.892
0.355,-0.319,-0.881,1.89,0.43,-1.83,1784844925270.3281
0.357,-0.32,-0.887,3.02,0.21,-2.29,1784844925270.7131
0.357,-0.317,-0.889,3.33,0.27,-2.62,1784844925271.081
0.355,-0.311,-0.883,3.27,0.27,-2.66,1784844925271.4297
0.356,-0.303,-0.877,3.42,-0.06,-2.47,1784844925271.783
0.356,-0.299,-0.88,2.99,-0.24,-2.5,1784844925272.1309
0.357,-0.297,-0.878,2.04,-0.31,-2.41,1784844925272.5078
0.364,-0.297,-0.885,0.98,-0.7,-2.44,1784844925272.9119
0.365,-0.303,-0.898,-0.27,-0.79,-2.66,1784844925273.2642
0.36,-0.308,-0.9,-1.77,-0.24,-2.84,1784844925273.6099
0.357,-0.311,-0.886,-2.75,-0.06,-2.66,1784844925273.952
0.361,-0.311,-0.875,-2.01,-0.4,-2.41,1784844925274.303
0.366,-0.311,-0.871,-0.09,-0.73,-2.2,1784844925274.653
0.367,-0.309,-0.878,1.5,-0.61,-2.41,1784844925274.998
0.362,-0.305,-0.879,2.32,-0.34,-2.62,1784844925275.357
0.359,-0.301,-0.88,2.38,-0.58,-2.69,1784844925275.704
0.358,-0.292,-0.891,1.68,-0.76,-2.35,1784844925276.0452
0.356,-0.291,-0.895,0.73,-0.46,-2.04,1784844925276.386
0.351,-0.295,-0.887,-0.24,-0.06,-1.77,1784844925276.7283
0.354,-0.303,-0.875,-0.89,-0.24,-1.62,1784844925277.072
0.358,-0.31,-0.869,-0.85,-0.58,-1.34,1784844925277.4292
0.364,-0.318,-0.868,0.03,-0.79,-1.22,1784844925277.7778
0.364,-0.32,-0.877,1.31,-1.01,-1.65,1784844925278.1228
0.359,-0.315,-0.884,2.38,-0.98,-1.95,1784844925278.466
0.353,-0.311,-0.889,2.81,-0.7,-2.01,1784844925278.946
0.355,-0.308,-0.887,2.32,-0.92,-2.04,1784844925279.2927
0.354,-0.304,-0.88,1.68,-0.95,-1.95,1784844925279.644
0.357,-0.305,-0.878,1.19,-1.01,-1.71,1784844925280.01
0.366,-0.309,-0.879,0.85,-1.28,-1.8,1784844925280.3572
0.37,-0.309,-0.887,0.43,-1.53,-2.04,1784844925280.71
0.362,-0.31,-0.892,-0.4,-1.31,-1.89,1784844925281.058
0.354,-0.312,-0.89,-0.89,-1.16,-1.62,1784844925281.398
0.359,-0.31,-0.894,-1.4,-1.62,-1.46,1784844925281.74
0.36,-0.302,-0.889,-2.59,-1.53,-0.98,1784844925282.083
0.359,-0.305,-0.872,-3.27,-1.16,-0.49,1784844925282.422
0.365,-0.316,-0.868,-2.53,-1.31,-1.07,1784844925282.764
0.373,-0.32,-0.878,-0.7,-1.65,-2.04,1784844925283.1062
0.369,-0.317,-0.883,0.61,-1.28,-2.41,1784844925283.447
0.361,-0.307,-0.891,0.64,-1.22,-2.14,1784844925283.7861
0.355,-0.295,-0.899,0.24,-1.19,-1.77,1784844925284.1357
0.354,-0.297,-0.897,-0.52,-1.04,-1.56,1784844925284.501
0.357,-0.308,-0.89,-0.95,-1.19,-1.4,1784844925284.844
0.365,-0.317,-0.884,-1.07,-0.98,-1.37,1784844925285.1882
0.367,-0.316,-0.88,-0.55,-0.73,-1.25,1784844925285.533
0.365,-0.309,-0.892,0.64,-0.89,-1.04,1784844925285.8738
0.365,-0.3,-0.896,1.07,-0.98,-0.92,1784844925286.2131
0.365,-0.298,-0.897,0.52,-0.79,-0.76,1784844925286.56
0.364,-0.302,-0.894,-0.06,-0.46,-0.82,1784844925286.9119
0.364,-0.306,-0.88,-0.21,-0.34,-1.1,1784844925287.2642
0.361,-0.309,-0.874,-0.24,-0.55,-1.62,1784844925287.617
0.361,-0.309,-0.871,0.03,-0.7,-2.08,1784844925287.9731
0.367,-0.307,-0.888,0.98,-0.95,-2.14,1784844925288.322
0.37,-0.303,-0.905,0.61,-1.1,-2.17,1784844925288.671
0.362,-0.297,-0.904,-0.79,-0.67,-1.56,1784844925289.0981
0.359,-0.297,-0.899,-1.8,-0.7,-0.85,1784844925289.459
0.36,-0.298,-0.894,-2.53,-0.95,-1.04,1784844925289.81
0.359,-0.305,-0.884,-2.96,-0.7,-1.34,1784844925290.161
0.357,-0.311,-0.874,-2.29,-0.55,-1.8,1784844925290.514
0.356,-0.312,-0.874,-0.79,-0.61,-2.14,1784844925290.866
0.353,-0.31,-0.883,0.34,-0.43,-1.89,1784844925291.2122
0.352,-0.305,-0.888,0.89,-0.27,-1.34,1784844925291.5608
0.357,-0.3,-0.889,1.13,-0.18,-0.52,1784844925291.921
0.357,-0.298,-0.885,1.28,-0.09,0.18,1784844925292.2659
0.354,-0.3,-0.883,1.34,-0.18,0.06,1784844925292.618
0.357,-0.299,-0.89,1.31,-0.92,-0.82,1784844925293.6719
0.361,-0.306,-0.901,0.76,-0.7,-0.82,1784844925294.018
-0.926,-0.189,0.008,8.09,2.75,-4.33,1784844925294.5862
-0.952,-0.165,-0.013,4.61,4.85,-1.5,1784844925294.93
-0.925,-0.179,-0.008,4.61,4.85,-1.5,1784844925295.39
-0.907,-0.191,0.0,3.11,7.69,-1.83,1784844925295.8037
-0.895,-0.191,0.003,2.56,9.28,-4.18,1784844925296.164
-0.892,-0.184,0.005,2.04,10.56,-7.57,1784844925296.527
-0.898,-0.185,0.016,1.71,12.3,-10.8,1784844925305.154
-0.911,-0.193,0.022,2.62,13.64,-12.94,1784844925310.852
-0.912,-0.203,0.026,3.72,14.16,-14.1,1784844925321.3281
-0.912,-0.207,0.029,4.97,14.01,-15.84,1784844925331.978
-0.918,-0.206,0.022,6.47,13.58,-18.04,1784844925345.126
-0.928,-0.204,0.011,6.84,13.06,-19.47,1784844925350.816
-0.932,-0.204,0.001,5.98,12.45,-20.48,1784844925361.331
-0.933,-0.207,-0.006,4.82,12.3,-21.21,1784844925371.8928
-0.936,-0.209,-0.014,4.12,12.45,-21.94,1784844925385.0452
-0.93,-0.214,-0.033,3.78,12.79,-22.22,1784844925390.803
-0.929,-0.22,-0.042,2.87,12.67,-23.19,1784844925401.299
-0.941,-0.223,-0.046,1.8,11.84,-24.81,1784844925411.827
-0.949,-0.229,-0.052,1.62,10.8,-25.85,1784844925425.08
-0.95,-0.237,-0.062,1.92,9.95,-26.98,1784844925430.805
-0.952,-0.245,-0.071,1.4,9.61,-28.38,1784844925441.0933
-0.951,-0.249,-0.083,-0.4,9.89,-28.75,1784844925451.618
-0.947,-0.247,-0.09,-4.24,10.53,-28.87,1784844925465.1047
-0.949,-0.246,-0.091,-10.35,11.75,-28.57,1784844925470.814
-0.942,-0.254,-0.092,-17.67,13.12,-28.02,1784844925481.4302
-0.934,-0.265,-0.081,-25.67,14.59,-28.11,1784844925491.966
-0.938,-0.276,-0.065,-33.11,15.81,-29.24,1784844925505.3152
-0.937,-0.282,-0.049,-37.9,16.63,-31.13,1784844925511.063
-0.933,-0.289,-0.034,-40.77,17.03,-33.08,1784844925521.7202
-0.944,-0.298,-0.019,-42.7,17.55,-35.25,1784844925535.182
-0.952,-0.3,0.001,-43.09,18.19,-37.26,1784844925540.6987
-0.947,-0.303,0.016,-42.45,18.62,-37.75,1784844925551.359
-0.937,-0.313,0.028,-41.14,18.95,-37.93,1784844925562.086
-0.936,-0.312,0.036,-38.42,18.8,-38.67,1784844925575.335
-0.938,-0.304,0.035,-35.19,17.98,-38.7,1784844925581.117
-0.936,-0.306,0.026,-31.98,16.42,-38.67,1784844925591.88
-0.942,-0.308,0.003,-29.88,14.44,-39.43,1784844925604.961
-0.948,-0.304,-0.02,-29.63,12.76,-40.8,1784844925610.75
-0.955,-0.309,-0.032,-30.09,11.44,-41.38,1784844925621.491
-0.952,-0.317,-0.046,-30.95,10.44,-41.05,1784844925632.128
-0.949,-0.323,-0.052,-32.5,9.61,-40.31,1784844925645.4028
-0.952,-0.328,-0.053,-33.97,8.42,-39.89,1784844925651.0989
-0.951,-0.326,-0.056,-35.16,7.08,-39.03,1784844925661.458
-0.962,-0.333,-0.06,-37.54,5.98,-36.99,1784844925672.1433
-0.974,-0.341,-0.078,-40.68,5.04,-34.94,1784844925685.515
-0.978,-0.359,-0.081,-44.07,4.91,-32.44,1784844925691.2483
-0.977,-0.369,-0.082,-45.26,3.94,-31.46,1784844925701.411
-0.97,-0.368,-0.088,-45.53,3.78,-30.3,1784844925712.009
-0.961,-0.37,-0.083,-46.51,4.18,-27.8,1784844925725.3
-0.952,-0.363,-0.078,-47.27,3.78,-25.54,1784844925731.0532
-0.945,-0.371,-0.065,-47.3,3.14,-23.44,1784844925741.4883
-0.944,-0.382,-0.056,-45.78,1.89,-22.06,1784844925751.938
-0.952,-0.397,-0.063,-41.93,0.76,-21.21,1784844925765.362
-0.947,-0.401,-0.078,-37.11,-0.09,-20.84,1784844925770.9702
-0.936,-0.393,-0.097,-32.44,-0.82,-19.68,1784844925781.506
-0.934,-0.392,-0.119,-29.05,-0.73,-16.94,1784844925792.064
-0.935,-0.399,-0.141,-28.72,-0.52,-14.13,1784844925805.341
-0.933,-0.397,-0.162,-31.53,-0.18,-12.05,1784844925811.048
-0.927,-0.404,-0.156,-35.0,1.8,-9.16,1784844925821.3818
-0.917,-0.429,-0.154,-33.51,4.3,-7.17,1784844925831.881
-0.9,-0.456,-0.165,-28.29,6.71,-8.55,1784844925845.128
-0.887,-0.473,-0.174,-23.1,9.31,-11.05,1784844925850.8967
-0.891,-0.483,-0.183,-20.94,10.93,-14.1,1784844925861.295
-0.9,-0.492,-0.209,-22.43,11.6,-17.4,1784844925872.0042
-0.905,-0.484,-0.228,-27.38,13.12,-20.02,1784844925885.2798
-0.906,-0.48,-0.245,-32.75,15.29,-22.46,1784844925891.014
-0.916,-0.482,-0.268,-37.72,17.52,-25.94,1784844925901.6309
-0.915,-0.498,-0.298,-42.76,20.17,-29.54,1784844925915.0
-0.908,-0.511,-0.337,-48.1,22.98,-35.16,1784844925920.642
-0.914,-0.526,-0.366,-56.0,26.03,-39.74,1784844925931.3972
-0.922,-0.563,-0.366,-67.23,27.01,-42.88,1784844925941.97
-0.928,-0.621,-0.382,-82.4,25.76,-46.45,1784844925955.3809
-0.939,-0.657,-0.412,-106.08,25.7,-51.03,1784844925961.09
-0.964,-0.663,-0.451,-133.92,27.13,-55.85,1784844925972.091
-1.0,-0.652,-0.472,-155.74,32.53,-59.94,1784844925985.1992
-1.028,-0.622,-0.459,-165.75,39.77,-62.69,1784844925991.124
-1.013,-0.571,-0.397,-160.8,46.75,-63.81,1784844926001.896
-0.984,-0.558,-0.335,-136.78,52.95,-65.4,1784844926016.324
-0.958,-0.582,-0.317,-101.84,58.29,-68.82,1784844926020.9438
-0.945,-0.612,-0.358,-68.97,63.69,-73.0,1784844926031.939
-0.943,-0.625,-0.415,-50.94,69.58,-76.88,1784844926044.959
-0.946,-0.642,-0.453,-45.41,74.56,-80.2,1784844926051.25
-0.914,-0.68,-0.479,-45.01,75.72,-85.21,1784844926061.394
-0.945,-0.642,-0.502,-49.53,76.02,-91.65,1784844926072.15
-0.949,-0.607,-0.494,-53.16,78.71,-92.38,1784844926085.718
-0.905,-0.593,-0.473,-52.86,80.08,-91.59,1784844926091.292
-0.847,-0.585,-0.461,-49.1,80.17,-92.32,1784844926102.1208
-0.827,-0.595,-0.462,-43.95,79.87,-94.36,1784844926115.1401
-0.838,-0.57,-0.476,-43.0,79.9,-96.41,1784844926120.806
-0.823,-0.543,-0.505,-45.93,81.42,-95.13,1784844926131.635
-0.798,-0.495,-0.526,-54.9,81.0,-92.26,1784844926145.0298
-0.71,-0.47,-0.556,-66.87,80.78,-88.56,1784844926150.6682
-0.626,-0.532,-0.58,-75.53,81.39,-89.88,1784844926161.3162
-0.671,-0.506,-0.541,-77.73,85.57,-95.68,1784844926173.836
-0.76,-0.476,-0.538,-67.45,89.57,-91.86,1784844926185.122
-0.711,-0.605,-0.549,-50.08,92.78,-81.48,1784844926191.0652
-0.637,-0.72,-0.558,-35.58,94.7,-79.44,1784844926201.709
-0.623,-0.707,-0.528,-24.32,97.17,-80.69,1784844926214.908
-0.608,-0.654,-0.533,-10.44,98.91,-76.3,1784844926220.588
-0.571,-0.608,-0.563,0.73,99.55,-68.48,1784844926231.437
-0.524,-0.558,-0.584,0.61,98.61,-61.74,1784844926241.9883
-0.486,-0.532,-0.617,-9.34,95.31,-58.11,1784844926255.021
-0.466,-0.551,-0.631,-25.42,91.28,-57.68,1784844926260.992
-0.446,-0.603,-0.676,-43.64,86.79,-59.66,1784844926271.4062
-0.434,-0.669,-0.721,-57.77,85.12,-62.9,1784844926282.061
-0.437,-0.687,-0.702,-63.11,85.85,-66.23,1784844926295.417
-0.396,-0.668,-0.709,-58.08,86.95,-65.77,1784844926301.1782
-0.343,-0.673,-0.704,-46.05,88.44,-63.78,1784844926311.746
-0.321,-0.673,-0.683,-31.77,89.18,-63.63,1784844926327.246
-0.308,-0.68,-0.697,-17.4,89.85,-63.45,1784844926330.901
-0.299,-0.7,-0.724,-5.1,91.1,-63.97,1784844926341.389
-0.283,-0.696,-0.772,0.64,92.14,-65.13,1784844926351.755
-0.258,-0.682,-0.824,-0.06,93.81,-65.71,1784844926365.4148
-0.252,-0.655,-0.802,-5.28,95.19,-66.68,1784844926370.825
-0.242,-0.604,-0.794,-13.31,93.48,-66.59,1784844926381.541
-0.2,-0.566,-0.798,-22.06,91.62,-64.61,1784844926392.228
-0.17,-0.544,-0.768,-30.12,89.94,-62.9,1784844926405.2742
-0.147,-0.581,-0.814,-34.76,87.37,-61.65,1784844926410.934
-0.149,-0.651,-0.835,-40.83,87.07,-63.14,1784844926421.7642
-0.167,-0.655,-0.802,-49.62,86.98,-67.63,1784844926434.95
-0.149,-0.662,-0.8,-49.81,86.7,-69.67,1784844926440.5461
-0.138,-0.638,-0.778,-45.05,87.56,-70.77,1784844926451.295
-0.118,-0.578,-0.768,-38.54,87.83,-69.61,1784844926461.976
-0.091,-0.542,-0.795,-32.38,87.16,-67.29,1784844926475.24
-0.073,-0.531,-0.815,-29.69,86.89,-66.13,1784844926480.9768
-0.06,-0.536,-0.824,-31.01,86.83,-66.5,1784844926491.751
-0.06,-0.536,-0.824,-37.08,86.76,-66.99,1784844926505.074
-0.051,-0.547,-0.835,-47.06,87.1,-66.53,1784844926510.6912
-0.039,-0.553,-0.859,-59.11,87.89,-64.55,1784844926521.42
-0.024,-0.531,-0.836,-68.36,87.56,-61.53,1784844926534.835
-0.004,-0.488,-0.803,-71.05,86.52,-57.65,1784844926540.477
0.018,-0.437,-0.765,-71.05,86.52,-57.65,1784844926551.166
0.047,-0.409,-0.758,-67.35,85.79,-53.9,1784844926561.822
0.072,-0.402,-0.762,-63.91,85.7,-51.91,1784844926575.192
0.08,-0.398,-0.785,-64.46,86.67,-51.76,1784844926581.123
0.081,-0.378,-0.763,-69.89,89.05,-50.87,1784844926591.778
0.135,-0.408,-0.806,-75.78,90.12,-47.49,1784844926604.887
0.221,-0.428,-0.856,-84.78,92.04,-46.63,1784844926611.0752
0.223,-0.339,-0.8,-97.29,94.55,-47.76,1784844926621.472
0.217,-0.336,-0.812,-103.12,93.51,-44.53,1784844926632.2888
0.234,-0.441,-0.78,-109.35,94.09,-41.84,1784844926645.475
0.24,-0.546,-0.775,-123.57,93.78,-42.63,1784844926651.201
0.235,-0.553,-0.77,-139.23,93.6,-42.73,1784844926662.198
0.228,-0.503,-0.738,-139.29,94.49,-38.33,1784844926675.529
0.242,-0.463,-0.75,-121.37,95.25,-31.92,1784844926681.477
0.254,-0.403,-0.718,-97.11,96.01,-27.92,1784844926691.9832
0.266,-0.347,-0.737,-74.47,94.18,-26.03,1784844926705.292
0.307,-0.337,-0.803,-57.89,93.69,-26.43,1784844926711.2917
0.388,-0.476,-0.82,-51.58,95.22,-33.85,1784844926721.618
0.356,-0.425,-0.706,-57.41,94.55,-53.87,1784844926735.1711
0.296,-0.302,-0.75,-58.05,87.62,-63.17,1784844926740.9458
0.292,-0.23,-0.762,-52.19,84.69,-60.67,1784844926751.173
0.319,-0.187,-0.78,-52.46,79.56,-54.26,1784844926761.821
0.352,-0.161,-0.826,-56.83,73.58,-47.79,1784844926775.424
0.362,-0.132,-0.807,-59.91,69.86,-41.66,1784844926781.331
0.388,-0.19,-0.792,-62.41,65.92,-35.58,1784844926791.689
0.413,-0.232,-0.763,-65.74,62.26,-36.16,1784844926804.925
0.406,-0.198,-0.711,-62.9,57.62,-39.83,1784844926811.27
0.406,-0.156,-0.734,-52.49,51.52,-40.35,1784844926821.373
0.421,-0.115,-0.761,-44.04,47.21,-39.34,1784844926832.0662
0.449,-0.097,-0.793,-39.7,45.66,-38.24,1784844926845.6099
0.491,-0.126,-0.855,-42.79,45.41,-38.94,1784844926851.011
0.563,-0.264,-0.891,-52.64,47.0,-46.08,1784844926861.676
0.549,-0.254,-0.799,-67.6,49.38,-62.17,1784844926875.2031
0.505,-0.144,-0.778,-72.08,49.56,-64.91,1784844926881.155
0.509,-0.068,-0.714,-58.81,53.29,-55.57,1784844926891.356
0.524,-0.021,-0.656,-40.68,54.02,-44.01,1784844926901.9211
0.552,-0.007,-0.639,-26.8,52.95,-35.86,1784844926915.273
0.562,0.017,-0.635,-20.72,52.13,-36.16,1784844926921.094
0.547,0.08,-0.626,-19.68,51.3,-41.05,1784844926931.998
0.514,0.159,-0.608,-19.93,50.69,-41.2,1784844926945.183
0.491,0.222,-0.614,-22.22,48.34,-33.78,1784844926950.7607
0.489,0.271,-0.621,-24.29,45.9,-22.8,1784844926961.392
0.483,0.32,-0.624,-24.6,43.73,-10.9,1784844926972.249
0.521,0.276,-0.64,-23.56,41.29,3.2,1784844926985.514
0.58,0.154,-0.646,-25.24,39.19,8.85,1784844926991.1838
0.59,0.112,-0.616,-29.33,36.62,6.2,1784844927001.436
0.601,0.123,-0.613,-27.1,32.32,6.26,1784844927012.476
0.622,0.121,-0.636,-19.38,28.05,9.25,1784844927025.4167
0.643,0.116,-0.654,-14.74,23.62,11.63,1784844927031.293
0.663,0.119,-0.684,-15.59,19.2,12.21,1784844927041.866
0.685,0.11,-0.7,-19.47,16.05,11.44,1784844927054.98
0.706,0.089,-0.706,-23.99,13.95,9.67,1784844927060.822
0.723,0.08,-0.692,-28.14,12.15,7.02,1784844927071.179
0.727,0.094,-0.677,-28.93,8.82,4.7,1784844927081.7651
0.723,0.11,-0.673,-25.97,4.61,3.6,1784844927095.019
0.739,0.027,-0.681,-23.47,2.35,0.0,1784844927101.5198
0.735,0.096,-0.623,-22.92,0.03,-13.09,1784844927110.892
0.715,0.208,-0.646,-15.2,-4.33,-20.45,1784844927121.616
0.717,0.279,-0.68,-5.74,-5.34,-19.93,1784844927132.065
0.709,0.341,-0.7,-2.96,-5.77,-16.6,1784844927145.3892
0.693,0.376,-0.696,-5.04,-6.9,-9.98,1784844927151.0
0.692,0.399,-0.653,-9.49,-8.91,1.16,1784844927161.081
0.718,0.426,-0.586,-11.11,-13.95,9.92,1784844927171.53
0.699,0.435,-0.536,-6.93,-21.03,14.16,1784844927182.113
0.697,0.41,-0.523,0.09,-26.98,22.0,1784844927195.5251
0.71,0.364,-0.542,7.93,-30.27,27.83,1784844927201.5513
0.712,0.314,-0.626,13.98,-31.74,28.53,1784844927211.8389
0.697,0.224,-0.82,10.99,-30.43,29.63,1784844927225.138
0.718,0.09,-0.963,1.22,-19.47,31.37,1784844927230.895
0.734,-0.047,-0.992,-7.75,-5.74,30.43,1784844927241.68
0.736,-0.131,-0.92,-12.82,2.11,31.16,1784844927251.709
0.748,-0.134,-0.858,-12.21,1.04,36.77,1784844927264.92
0.776,-0.07,-0.804,-5.95,-0.95,43.98,1784844927270.7798
0.795,0.022,-0.734,5.77,-1.28,48.22,1784844927280.969
0.776,0.085,-0.706,17.49,-2.78,49.78,1784844927291.673
0.742,0.07,-0.744,22.1,-3.66,50.2,1784844927302.037
0.712,-0.013,-0.821,16.11,-2.66,48.16,1784844927315.431
0.695,-0.145,-0.887,4.94,1.68,43.49,1784844927321.0771
0.711,-0.253,-0.889,-0.73,7.6,36.62,1784844927331.4878
0.733,-0.333,-0.917,1.56,11.47,33.3,1784844927342.072
0.762,-0.376,-0.926,4.61,15.78,34.52,1784844927355.0178
0.785,-0.383,-0.929,7.48,17.46,35.31,1784844927361.366
0.766,-0.328,-0.934,10.74,17.03,32.44,1784844927371.3137
0.739,-0.212,-0.882,14.83,15.81,28.41,1784844927382.167
0.703,-0.118,-0.854,17.37,12.18,26.73,1784844927395.2708
0.693,-0.05,-0.824,14.83,8.61,26.49,1784844927401.126
0.685,-0.039,-0.823,11.6,5.31,26.76,1784844927411.7173
0.676,-0.105,-0.81,10.16,6.29,27.71,1784844927422.1912
0.662,-0.186,-0.772,9.86,7.93,28.05,1784844927435.69
0.64,-0.206,-0.739,11.87,7.87,28.08,1784844927441.545
0.608,-0.164,-0.754,16.05,6.29,29.76,1784844927451.3809
0.559,-0.133,-0.783,19.99,6.29,32.84,1784844927461.9739
0.555,-0.086,-0.76,19.29,4.85,33.27,1784844927475.5718
0.568,-0.053,-0.798,14.5,-2.08,34.3,1784844927481.395
0.598,-0.047,-0.795,8.61,-7.32,36.71,1784844927491.3809
0.592,-0.121,-0.817,7.97,-11.47,39.16,1784844927501.887
0.576,-0.242,-0.805,12.42,-12.02,39.03,1784844927515.496
0.566,-0.288,-0.788,15.35,-13.89,37.17,1784844927520.941
0.569,-0.239,-0.794,17.73,-16.88,37.08,1784844927531.706
0.568,-0.182,-0.805,21.79,-19.04,39.46,1784844927544.9421
0.572,-0.145,-0.832,20.69,-23.53,41.54,1784844927550.852
0.56,-0.107,-0.883,10.86,-28.81,41.93,1784844927561.279
0.531,-0.092,-0.929,-3.23,-31.8,42.51,1784844927572.0918
0.494,-0.118,-0.964,-17.4,-32.96,43.12,1784844927585.2402
0.455,-0.165,-0.947,-27.25,-32.53,42.48,1784844927591.326
0.446,-0.198,-0.894,-32.69,-32.23,42.63,1784844927601.6829
0.483,-0.203,-0.843,-33.54,-33.63,44.86,1784844927614.95
0.515,-0.204,-0.826,-28.47,-35.1,47.85,1784844927620.759
0.498,-0.201,-0.855,-20.63,-35.16,49.5,1784844927631.335
0.434,-0.181,-0.884,-15.69,-34.06,50.2,1784844927642.188
0.366,-0.157,-0.915,-13.58,-32.17,52.28,1784844927655.267
0.314,-0.182,-0.927,-12.45,-29.42,56.28,1784844927661.0933
0.305,-0.218,-0.88,-9.95,-25.21,57.5,1784844927671.827
0.316,-0.272,-0.833,-7.29,-26.52,60.49,1784844927682.412
0.358,-0.311,-0.789,-0.06,-26.12,63.48,1784844927695.4639
0.395,-0.277,-0.766,11.44,-26.83,60.91,1784844927701.3672
0.358,-0.275,-0.824,17.73,-28.69,65.19,1784844927711.6858
0.347,-0.209,-0.844,20.72,-25.03,61.1,1784844927725.111
0.312,-0.144,-0.873,17.27,-27.01,58.38,1784844927731.266
0.284,-0.141,-0.891,7.54,-26.95,62.38,1784844927741.591
0.27,-0.143,-0.888,-2.9,-27.16,59.05,1784844927751.968
0.249,-0.188,-0.868,-13.25,-28.2,60.24,1784844927765.2322
0.267,-0.246,-0.829,-20.72,-28.35,63.94,1784844927770.787
0.295,-0.308,-0.78,-23.04,-28.5,63.57,1784844927781.73
0.312,-0.352,-0.766,-19.53,-29.24,59.69,1784844927794.981
0.312,-0.352,-0.766,-8.64,-28.08,55.57,1784844927801.422
0.296,-0.369,-0.771,1.4,-27.65,57.04,1784844927811.39
0.28,-0.344,-0.77,8.51,-26.64,61.49,1784844927821.815
0.27,-0.358,-0.804,15.78,-25.7,51.61,1784844927835.02
0.286,-0.311,-0.803,15.78,-25.7,51.61,1784844927841.217
0.293,-0.291,-0.826,14.8,-26.34,49.71,1784844927851.3337
0.282,-0.335,-0.848,10.83,-26.09,56.4,1784844927862.2
0.281,-0.3,-0.857,12.85,-24.84,47.79,1784844927875.391
0.255,-0.29,-0.861,14.86,-25.06,40.53,1784844927881.2402
0.286,-0.295,-0.833,13.95,-24.66,40.25,1784844927892.016
0.311,-0.301,-0.833,12.82,-25.54,38.24,1784844927905.078
0.284,-0.271,-0.853,10.13,-26.12,32.56,1784844927911.154
0.264,-0.229,-0.877,5.98,-27.31,30.95,1784844927921.512
0.262,-0.241,-0.897,-0.92,-28.35,33.97,1784844927932.1558
0.264,-0.256,-0.904,-8.15,-28.81,34.33,1784844927945.431
0.276,-0.273,-0.901,-11.29,-28.05,33.27,1784844927951.124
0.296,-0.269,-0.869,-10.1,-27.68,31.83,1784844927961.4878
0.319,-0.233,-0.866,-7.48,-28.17,32.38,1784844927972.29
0.292,-0.278,-0.928,-6.04,-27.77,38.54,1784844927985.6428
0.283,-0.217,-0.973,-2.44,-26.8,25.79,1784844927991.1768
0.267,-0.244,-1.025,-8.09,-25.57,22.37,1784844928001.546
0.273,-0.318,-0.984,-17.12,-18.43,24.02,1784844928014.834
0.289,-0.369,-0.923,-17.7,-16.17,15.66,1784844928021.135
0.311,-0.431,-0.839,-9.92,-11.29,10.04,1784844928031.199
0.35,-0.416,-0.833,3.3,-13.28,7.17,1784844928041.65
0.357,-0.367,-0.934,15.53,-14.89,7.54,1784844928054.891
0.304,-0.305,-1.028,24.72,-9.03,5.52,1784844928060.6357
0.269,-0.254,-1.064,25.33,-7.6,-0.15,1784844928070.901
0.275,-0.276,-0.999,19.07,-3.42,0.73,1784844928081.4663
0.303,-0.31,-0.889,17.79,0.0,0.27,1784844928092.0168
0.326,-0.301,-0.845,22.46,-1.46,-4.36,1784844928105.2139
0.328,-0.267,-0.895,24.69,-3.54,-8.15,1784844928110.917
0.299,-0.238,-0.967,19.65,-4.18,-10.22,1784844928121.1038
0.288,-0.216,-1.008,10.56,-4.67,-10.07,1784844928131.855
0.296,-0.219,-0.995,1.07,-4.36,-8.48,1784844928142.0522
0.321,-0.25,-0.957,-5.55,-3.66,-6.38,1784844928155.295
0.328,-0.275,-0.925,-7.14,-2.35,-6.1,1784844928161.345
0.316,-0.286,-0.896,-6.1,-0.7,-7.66,1784844928170.958
0.318,-0.288,-0.89,-6.01,-0.24,-8.88,1784844928181.4668
0.313,-0.279,-0.895,-6.29,-0.64,-10.32,1784844928191.979
0.298,-0.263,-0.91,-5.55,-1.56,-10.16,1784844928205.15
0.296,-0.253,-0.934,-5.04,-2.44,-7.93,1784844928210.9011
0.303,-0.25,-0.933,-4.94,-2.56,-5.89,1784844928220.7998
