ax,ay,az,gx,gy,gz,timestamp_ms
0.335,-0.363,-0.916,7.78,6.74,1.13,1784844887084.834
0.354,-0.356,-0.864,1.89,8.06,0.31,1784844887085.449
0.367,-0.351,-0.838,-0.58,6.44,0.49,1784844887086.017
0.374,-0.372,-0.84,0.58,5.89,1.01,1784844887086.5989
0.367,-0.394,-0.831,1.65,6.96,0.03,1784844887087.1702
0.362,-0.406,-0.855,2.41,6.84,-1.34,1784844887087.73
0.353,-0.412,-0.819,2.75,8.45,-2.14,1784844887088.301
0.35,-0.403,-0.776,5.25,8.64,-4.18,1784844887088.8599
0.362,-0.385,-0.765,9.16,6.01,-6.16,1784844887089.877
0.363,-0.347,-0.763,11.47,3.81,-8.67,1784844887090.589
0.355,-0.315,-0.802,11.51,2.17,-9.77,1784844887091.0862
0.339,-0.318,-0.802,8.0,2.69,-8.91,1784844887091.5598
0.335,-0.341,-0.749,4.58,2.93,-8.73,1784844887092.033
0.366,-0.352,-0.764,3.48,-0.03,-8.79,1784844887092.509
0.381,-0.351,-0.774,2.44,-0.46,-8.45,1784844887092.9978
0.377,-0.327,-0.796,1.56,-1.46,-8.91,1784844887093.469
0.376,-0.288,-0.855,0.85,-3.3,-9.03,1784844887093.95
0.365,-0.276,-0.893,-3.88,-2.99,-7.9,1784844887094.454
0.347,-0.29,-0.857,-12.76,-1.98,-6.96,1784844887095.014
0.353,-0.315,-0.784,-17.76,-2.23,-5.95,1784844887095.4868
0.389,-0.349,-0.765,-15.47,-4.18,-5.01,1784844887095.9622
0.406,-0.373,-0.821,-9.67,-5.43,-5.49,1784844887096.428
0.405,-0.378,-0.85,-3.88,-4.06,-5.86,1784844887096.886
0.42,-0.372,-0.926,-1.65,-4.09,-6.2,1784844887097.3499
0.415,-0.346,-0.956,-5.65,-2.44,-6.65,1784844887097.818
0.385,-0.314,-0.905,-10.93,-0.34,-6.62,1784844887098.29
0.381,-0.3,-0.859,-11.35,-0.4,-6.71,1784844887098.7551
0.393,-0.301,-0.823,-8.58,-1.22,-7.35,1784844887099.221
0.398,-0.308,-0.812,-5.25,-2.14,-7.08,1784844887099.6858
0.404,-0.318,-0.861,-2.14,-2.78,-5.34,1784844887100.1458
0.401,-0.326,-0.918,-0.76,-1.53,-2.66,1784844887100.612
0.399,-0.341,-0.939,-1.31,0.12,0.06,1784844887101.08
0.401,-0.346,-0.927,-3.39,1.31,1.59,1784844887101.544
0.402,-0.343,-0.883,-4.27,2.14,1.89,1784844887102.018
0.404,-0.326,-0.857,-1.74,2.14,0.73,1784844887102.45
0.391,-0.303,-0.843,2.87,2.08,-0.52,1784844887102.849
0.379,-0.302,-0.835,6.32,1.95,-0.31,1784844887103.242
0.386,-0.319,-0.87,6.04,1.19,0.18,1784844887103.641
0.386,-0.337,-0.897,2.35,1.74,0.89,1784844887104.042
0.386,-0.345,-0.877,-1.5,2.9,1.92,1784844887104.6199
0.403,-0.348,-0.862,-2.35,2.93,2.44,1784844887105.647
0.412,-0.351,-0.86,-0.64,2.81,2.2,1784844887106.0679
0.397,-0.349,-0.838,1.04,3.57,2.14,1784844887106.47
0.385,-0.329,-0.825,2.23,3.36,2.38,1784844887106.867
0.381,-0.318,-0.853,2.11,2.29,2.96,1784844887107.269
0.373,-0.333,-0.871,-1.86,2.2,3.14,1784844887107.6711
0.376,-0.356,-0.85,-6.04,2.17,3.42,1784844887108.1028
0.397,-0.375,-0.828,-5.62,1.95,4.46,1784844887108.51
0.409,-0.382,-0.803,-1.53,2.04,5.19,1784844887108.9229
0.412,-0.369,-0.81,3.36,1.65,4.79,1784844887109.335
0.408,-0.349,-0.839,6.16,1.34,3.85,1784844887109.7441
0.403,-0.343,-0.879,4.46,1.22,2.96,1784844887110.155
0.396,-0.351,-0.889,-0.82,1.46,2.38,1784844887110.57
0.394,-0.355,-0.862,-5.55,1.74,2.72,1784844887111.032
0.408,-0.359,-0.84,-6.62,1.43,3.63,1784844887111.4458
0.414,-0.364,-0.822,-4.97,1.28,4.7,1784844887111.855
0.416,-0.371,-0.807,-2.14,1.16,5.34,1784844887112.211
0.416,-0.378,-0.82,0.24,0.89,4.49,1784844887112.588
0.407,-0.373,-0.822,0.58,1.04,3.39,1784844887113.022
0.406,-0.363,-0.825,0.61,0.85,3.39,1784844887113.374
0.408,-0.356,-0.823,1.65,1.13,3.51,1784844887113.729
0.406,-0.356,-0.813,3.48,1.53,3.51,1784844887114.0852
0.402,-0.355,-0.804,4.79,1.37,3.6,1784844887114.434
0.403,-0.352,-0.81,5.31,0.73,3.91,1784844887114.8228
0.403,-0.352,-0.81,4.09,-0.03,3.75,1784844887115.1682
0.407,-0.355,-0.844,-0.12,-0.03,3.33,1784844887115.5461
0.392,-0.359,-0.85,-4.52,-0.64,3.75,1784844887115.8982
0.387,-0.363,-0.84,-6.29,-1.4,4.46,1784844887116.253
0.401,-0.365,-0.836,-6.29,-1.4,4.46,1784844887116.611
0.407,-0.367,-0.814,-5.31,-0.95,4.73,1784844887116.972
0.408,-0.371,-0.807,-2.69,-1.1,4.7,1784844887117.3342
0.404,-0.369,-0.825,0.15,-1.83,3.88,1784844887117.676
0.395,-0.367,-0.845,0.98,-1.31,3.27,1784844887117.9941
0.389,-0.373,-0.842,0.03,-0.09,3.85,1784844887118.309
0.394,-0.376,-0.851,-1.01,-1.13,4.27,1784844887118.6208
0.41,-0.382,-0.847,-0.61,-0.82,4.55,1784844887118.937
0.413,-0.383,-0.838,0.92,-0.4,4.15,1784844887119.2498
0.401,-0.377,-0.828,2.38,-0.82,3.85,1784844887119.571
0.398,-0.379,-0.825,3.63,-1.01,4.09,1784844887119.8872
0.407,-0.377,-0.827,4.85,-1.43,4.21,1784844887120.201
0.415,-0.377,-0.855,4.88,-1.77,4.3,1784844887120.516
0.408,-0.379,-0.877,1.95,-1.37,3.63,1784844887120.83
0.4,-0.381,-0.878,-2.04,-0.7,2.59,1784844887121.1519
0.399,-0.381,-0.859,-4.91,-0.55,1.95,1784844887121.4678
0.394,-0.39,-0.838,-5.92,-0.73,1.65,1784844887121.781
0.393,-0.401,-0.832,-4.97,-1.22,1.59,1784844887122.0952
0.394,-0.404,-0.825,-2.78,-1.5,1.8,1784844887122.414
0.403,-0.399,-0.833,0.0,-1.74,2.08,1784844887122.73
0.406,-0.391,-0.85,1.53,-1.62,2.14,1784844887123.0479
0.394,-0.386,-0.858,1.34,-1.04,2.32,1784844887123.3643
0.391,-0.389,-0.863,0.89,-0.64,2.14,1784844887123.674
0.393,-0.388,-0.854,1.04,-0.34,1.1,1784844887123.991
0.393,-0.386,-0.837,1.74,-0.18,0.27,1784844887124.309
0.391,-0.385,-0.832,2.66,-0.34,0.18,1784844887124.627
0.385,-0.384,-0.828,3.51,-0.31,0.12,1784844887124.94
0.391,-0.383,-0.833,4.06,-0.61,0.31,1784844887125.257
0.399,-0.38,-0.85,3.6,-1.13,0.12,1784844887125.581
0.391,-0.373,-0.862,2.35,-0.89,-0.06,1784844887125.8992
0.383,-0.367,-0.86,0.55,-0.73,-0.06,1784844887126.2222
0.383,-0.365,-0.857,-1.1,-1.31,-0.06,1784844887126.5469
0.383,-0.37,-0.844,-2.75,-1.46,0.43,1784844887126.8699
0.385,-0.381,-0.829,-3.45,-1.53,0.7,1784844887127.1902
0.395,-0.386,-0.82,-2.14,-1.5,0.61,1784844887127.51
0.405,-0.387,-0.831,-0.03,-1.86,0.21,1784844887127.838
0.4,-0.381,-0.848,1.68,-1.83,-0.12,1784844887128.205
0.387,-0.365,-0.851,2.29,-1.37,-0.06,1784844887128.663
0.378,-0.35,-0.847,2.47,-1.19,0.52,1784844887128.983
0.379,-0.349,-0.849,1.89,-1.31,1.28,1784844887129.2988
0.38,-0.362,-0.841,0.31,-1.13,1.65,1784844887129.6538
0.385,-0.373,-0.828,-0.18,-1.04,1.77,1784844887129.9683
0.398,-0.383,-0.842,1.31,-1.37,1.5,1784844887130.29
0.399,-0.389,-0.854,3.08,-0.98,1.01,1784844887130.6062
0.391,-0.384,-0.86,4.24,-0.61,0.64,1784844887130.922
0.381,-0.368,-0.864,4.73,-0.49,0.4,1784844887131.233
0.374,-0.358,-0.866,4.18,-0.46,0.79,1784844887131.5562
0.37,-0.353,-0.845,2.69,-0.31,1.71,1784844887131.8718
0.379,-0.365,-0.833,1.71,-0.76,2.56,1784844887132.185
0.388,-0.383,-0.834,1.28,-1.1,2.29,1784844887132.5068
0.396,-0.389,-0.83,2.2,-0.89,1.59,1784844887132.8179
0.399,-0.387,-0.838,4.27,-1.04,1.01,1784844887133.276
0.397,-0.377,-0.865,5.25,-1.22,0.58,1784844887133.723
0.384,-0.367,-0.873,3.36,-0.7,0.67,1784844887134.2341
0.383,-0.363,-0.854,0.61,-0.58,1.19,1784844887134.748
0.394,-0.369,-0.846,-1.01,-1.43,1.34,1784844887135.324
0.391,-0.38,-0.844,-1.95,-1.74,1.16,1784844887135.951
0.38,-0.38,-0.844,-2.23,-1.8,0.92,1784844887136.466
0.378,-0.379,-0.842,-1.65,-2.23,0.82,1784844887136.802
0.381,-0.379,-0.85,-1.53,-2.93,0.89,1784844887137.2192
0.386,-0.376,-0.861,-2.04,-2.66,0.89,1784844887137.586
0.39,-0.381,-0.875,-2.53,-2.08,0.95,1784844887137.8948
0.384,-0.381,-0.869,-3.11,-1.28,0.24,1784844887138.3108
0.381,-0.379,-0.861,-3.02,-1.37,-0.09,1784844887138.73
0.389,-0.378,-0.858,-1.92,-1.16,0.09,1784844887139.1099
0.391,-0.376,-0.862,-0.49,-0.55,0.15,1784844887139.4592
0.384,-0.375,-0.88,0.7,-0.43,0.52,1784844887139.7812
0.379,-0.382,-0.882,1.31,0.82,0.89,1784844887140.4001
0.367,-0.383,-0.875,1.19,0.92,0.98,1784844887141.255
0.365,-0.381,-0.875,1.34,0.67,1.46,1784844887142.8853
0.372,-0.383,-0.874,1.83,1.28,1.8,1784844887143.6428
0.385,-0.381,-0.862,2.56,1.62,1.86,1784844887145.553
0.401,-0.382,-0.874,3.08,1.37,1.46,1784844887147.0698
0.398,-0.383,-0.887,2.87,1.86,0.7,1784844887148.5498
0.385,-0.382,-0.882,2.01,2.72,0.18,1784844887149.047
0.38,-0.377,-0.867,1.16,2.9,0.31,1784844887149.3882
0.384,-0.375,-0.862,0.58,2.38,0.52,1784844887149.8042
0.389,-0.379,-0.867,-0.06,2.29,0.61,1784844887150.1418
0.392,-0.39,-0.869,0.09,2.66,0.92,1784844887150.511
0.398,-0.399,-0.867,0.61,3.23,0.82,1784844887150.8127
0.401,-0.392,-0.857,0.98,3.45,0.92,1784844887151.1199
0.404,-0.375,-0.866,1.22,2.96,1.83,1784844887151.4438
0.4,-0.373,-0.887,-0.09,2.99,1.95,1784844887151.7483
0.39,-0.387,-0.889,-3.36,3.54,1.13,1784844887152.086
0.387,-0.401,-0.859,-5.74,4.12,0.76,1784844887152.416
0.395,-0.413,-0.836,-5.49,4.03,0.67,1784844887153.368
0.394,-0.415,-0.824,-3.08,3.75,0.21,1784844887154.7708
0.387,-0.408,-0.824,-0.18,3.88,-0.79,1784844887155.3
0.386,-0.403,-0.835,1.71,3.6,-1.25,1784844887155.709
0.392,-0.395,-0.843,2.2,3.3,-1.22,1784844887156.018
0.396,-0.384,-0.85,1.19,3.27,-0.95,1784844887156.3188
0.386,-0.382,-0.849,-0.24,3.39,-0.92,1784844887156.622
0.382,-0.378,-0.841,-1.68,3.2,-1.31,1784844887156.9312
0.389,-0.377,-0.832,-2.69,3.08,-1.71,1784844887157.3682
0.393,-0.381,-0.816,-3.42,2.9,-2.08,1784844887157.6772
0.394,-0.386,-0.811,-2.78,2.47,-2.53,1784844887158.008
0.397,-0.386,-0.825,-1.13,2.26,-3.05,1784844887158.314
0.396,-0.39,-0.835,0.24,2.56,-3.14,1784844887158.614
0.393,-0.389,-0.831,0.95,3.11,-2.78,1784844887158.921
0.398,-0.378,-0.824,1.53,3.14,-2.29,1784844887159.232
0.398,-0.362,-0.822,2.01,2.35,-2.04,1784844887159.532
0.401,-0.358,-0.815,1.83,1.86,-1.92,1784844887159.838
0.401,-0.352,-0.817,1.37,1.59,-2.08,1784844887160.147
0.398,-0.347,-0.818,1.4,1.53,-2.14,1784844887160.4512
0.403,-0.35,-0.823,1.13,1.4,-1.56,1784844887160.7512
0.0,-0.343,-0.093,0.49,-7.72,7.81,1784844887161.062
0.406,-0.362,-0.83,-1.01,1.16,-0.49,1784844887161.377
0.401,-0.368,-0.819,-0.7,1.43,0.12,1784844887161.705
-0.885,-0.343,-0.098,0.09,-7.63,6.44,1784844887162.414
-0.891,-0.342,-0.099,-0.31,-7.54,5.52,1784844887162.7148
-0.9,-0.347,-0.095,-1.1,-7.63,5.07,1784844887163.02
-0.906,-0.347,-0.093,-2.17,-7.54,4.73,1784844887163.321
-0.91,-0.345,-0.088,-3.54,-7.02,4.09,1784844887163.625
-0.91,-0.346,-0.082,-4.12,-6.26,3.2,1784844887163.931
-0.905,-0.348,-0.078,-4.09,-5.28,1.77,1784844887169.412
-0.902,-0.348,-0.073,-3.36,-4.7,0.15,1784844887179.672
-0.904,-0.345,-0.075,-2.62,-4.43,-1.53,1784844887190.0051
-0.902,-0.342,-0.075,-2.38,-4.3,-2.93,1784844887200.337
-0.895,-0.337,-0.078,-2.75,-4.18,-4.52,1784844887210.732
-0.89,-0.342,-0.079,-2.81,-3.36,-5.71,1784844887224.074
-0.89,-0.349,-0.097,-3.85,-3.27,-8.06,1784844887229.495
-0.907,-0.322,-0.104,-10.1,-6.13,-12.51,1784844887239.847
-0.904,-0.327,-0.102,-15.5,-5.25,-12.42,1784844887250.415
-0.908,-0.343,-0.102,-18.83,-4.7,-11.35,1784844887260.941
-0.895,-0.356,-0.104,-20.33,-4.61,-10.53,1784844887274.297
-0.888,-0.342,-0.104,-23.41,-5.52,-11.08,1784844887279.9502
-0.878,-0.333,-0.091,-27.62,-6.23,-11.87,1784844887290.477
-0.877,-0.338,-0.082,-31.22,-6.9,-12.82,1784844887300.947
-0.879,-0.348,-0.08,-34.03,-7.39,-13.55,1784844887314.377
-0.876,-0.356,-0.08,-36.47,-7.97,-14.56,1784844887320.093
-0.878,-0.371,-0.078,-37.81,-7.75,-16.88,1784844887330.554
-0.882,-0.387,-0.077,-37.57,-7.17,-19.29,1784844887341.063
-0.887,-0.401,-0.078,-36.74,-6.35,-20.69,1784844887354.301
-0.891,-0.412,-0.082,-36.62,-5.28,-21.36,1784844887360.11
-0.897,-0.408,-0.082,-37.32,-4.36,-22.25,1784844887370.636
-0.902,-0.396,-0.088,-38.45,-3.08,-22.49,1784844887381.126
-0.907,-0.392,-0.086,-39.7,-1.62,-21.82,1784844887394.5469
-0.907,-0.389,-0.081,-40.65,-0.52,-21.45,1784844887400.121
-0.898,-0.386,-0.067,-40.83,0.37,-22.16,1784844887410.646
-0.89,-0.388,-0.051,-39.74,1.07,-23.77,1784844887421.075
-0.89,-0.386,-0.041,-38.21,1.56,-25.36,1784844887434.476
-0.888,-0.378,-0.03,-36.56,1.83,-26.22,1784844887440.167
-0.884,-0.37,-0.022,-34.76,1.53,-26.55,1784844887450.4587
-0.888,-0.363,-0.022,-33.27,0.43,-27.19,1784844887461.081
-0.891,-0.359,-0.025,-32.69,-0.92,-28.29,1784844887474.546
-0.895,-0.358,-0.021,-33.57,-2.23,-29.57,1784844887480.213
-0.9,-0.361,-0.016,-35.43,-3.6,-30.61,1784844887490.5679
-0.905,-0.365,-0.011,-37.57,-4.82,-30.61,1784844887501.058
-0.908,-0.371,-0.001,-39.52,-5.83,-29.69,1784844887514.438
-0.903,-0.376,0.005,-40.8,-6.65,-28.02,1784844887520.163
-0.895,-0.377,0.01,-41.99,-7.87,-25.97,1784844887530.603
-0.894,-0.377,0.01,-43.67,-9.13,-24.51,1784844887541.064
-0.9,-0.373,0.005,-46.69,-10.59,-23.68,1784844887554.309
-0.908,-0.364,-0.005,-51.52,-12.18,-22.89,1784844887560.11
-0.921,-0.348,-0.022,-59.69,-13.92,-21.58,1784844887570.7341
-0.94,-0.329,-0.037,-72.3,-15.41,-19.59,1784844887584.0452
-0.949,-0.32,-0.055,-88.81,-16.6,-17.88,1784844887589.8909
-0.944,-0.323,-0.064,-107.06,-17.15,-16.79,1784844887600.477
-0.934,-0.349,-0.046,-121.56,-17.55,-16.79,1784844887613.863
-0.933,-0.387,-0.021,-129.86,-19.01,-17.73,1784844887619.601
-0.936,-0.428,0.004,-131.53,-20.69,-18.59,1784844887630.5752
-0.945,-0.453,0.021,-125.74,-21.97,-18.98,1784844887651.351
-0.958,-0.462,0.021,-112.4,-22.13,-17.79,1784844887651.9
-0.977,-0.468,0.014,-94.58,-21.58,-15.81,1784844887660.22
-0.993,-0.46,-0.002,-76.42,-20.75,-14.47,1784844887670.94
-0.989,-0.439,-0.016,-60.09,-19.75,-13.18,1784844887684.3938
-0.968,-0.42,-0.034,-46.27,-18.68,-11.66,1784844887689.97
-0.945,-0.411,-0.058,-35.58,-17.55,-10.35,1784844887700.713
-0.932,-0.405,-0.076,-28.32,-16.72,-9.06,1784844887714.108
-0.919,-0.405,-0.095,-23.99,-16.3,-7.63,1784844887719.7012
-0.904,-0.408,-0.115,-22.25,-16.63,-7.17,1784844887730.3018
-0.895,-0.412,-0.124,-22.92,-17.3,-8.73,1784844887740.808
-0.894,-0.415,-0.132,-24.78,-18.13,-11.26,1784844887754.0632
-0.899,-0.423,-0.14,-26.76,-18.83,-14.04,1784844887759.849
-0.902,-0.436,-0.143,-27.77,-19.62,-16.3,1784844887770.4949
-0.902,-0.436,-0.143,-27.1,-20.39,-17.94,1784844887784.084
-0.899,-0.448,-0.144,-24.45,-20.51,-18.28,1784844887794.392
-0.891,-0.459,-0.148,-21.0,-19.84,-17.98,1784844887800.158
-0.879,-0.471,-0.159,-18.28,-18.56,-17.49,1784844887810.7532
-0.872,-0.48,-0.173,-17.18,-17.12,-16.21,1784844887824.373
-0.868,-0.484,-0.183,-17.18,-17.12,-16.21,1784844887829.7952
-0.862,-0.487,-0.19,-18.22,-15.69,-14.56,1784844887840.4238
-0.857,-0.491,-0.205,-21.79,-14.4,-13.28,1784844887851.178
-0.85,-0.499,-0.218,-26.76,-12.45,-11.75,1784844887864.554
-0.845,-0.502,-0.224,-31.8,-10.44,-10.68,1784844887870.1692
-0.839,-0.515,-0.22,-35.83,-8.79,-9.86,1784844887880.7822
-0.836,-0.532,-0.214,-36.87,-7.02,-9.46,1784844887891.247
-0.841,-0.538,-0.208,-35.65,-4.76,-9.8,1784844887904.4138
-0.841,-0.542,-0.201,-33.6,-2.5,-9.61,1784844887910.092
-0.841,-0.546,-0.207,-31.5,-0.27,-9.46,1784844887920.328
-0.847,-0.547,-0.213,-29.97,2.23,-9.92,1784844887930.847
-0.853,-0.55,-0.214,-28.53,5.04,-10.22,1784844887944.137
-0.855,-0.556,-0.218,-26.76,7.08,-10.74,1784844887949.811
-0.855,-0.549,-0.223,-25.91,9.06,-11.51,1784844887960.286
-0.861,-0.544,-0.227,-25.88,11.14,-11.81,1784844887970.872
-0.863,-0.546,-0.234,-26.46,12.36,-12.15,1784844887984.1777
-0.863,-0.544,-0.239,-28.14,13.92,-13.34,1784844887989.943
-0.873,-0.548,-0.246,-29.79,15.56,-15.35,1784844888000.5261
-0.883,-0.558,-0.244,-30.95,17.24,-17.76,1784844888015.6702
-0.89,-0.56,-0.229,-30.92,19.01,-19.78,1784844888019.701
-0.899,-0.557,-0.218,-29.11,20.97,-21.33,1784844888030.439
-0.922,-0.554,-0.222,-26.8,22.43,-22.43,1784844888040.975
-0.955,-0.539,-0.259,-27.77,23.16,-22.58,1784844888054.2239
-0.971,-0.528,-0.312,-34.85,23.96,-21.55,1784844888060.0012
-0.974,-0.534,-0.376,-48.16,25.85,-21.79,1784844888070.6948
-0.978,-0.548,-0.397,-65.13,28.99,-23.5,1784844888084.0671
-0.972,-0.574,-0.39,-79.04,32.5,-25.88,1784844888089.7212
-0.958,-0.602,-0.363,-85.36,37.32,-29.02,1784844888100.2651
-0.951,-0.626,-0.333,-82.03,43.49,-32.81,1784844888111.001
-0.95,-0.641,-0.302,-70.28,50.69,-36.99,1784844888124.286
-0.952,-0.641,-0.292,-54.6,57.65,-41.23,1784844888130.4363
-0.953,-0.638,-0.295,-38.88,63.45,-45.87,1784844888140.632
-0.952,-0.646,-0.302,-25.76,67.84,-52.43,1784844888153.856
-0.963,-0.64,-0.316,-17.37,70.62,-60.34,1784844888159.574
-0.962,-0.622,-0.341,-13.79,71.84,-66.87,1784844888170.259
-0.945,-0.62,-0.355,-13.18,72.45,-71.81,1784844888180.968
-0.934,-0.64,-0.357,-13.28,71.69,-77.06,1784844888194.308
-0.939,-0.674,-0.379,-13.89,69.37,-83.62,1784844888200.0132
-0.947,-0.699,-0.387,-15.59,67.45,-90.7,1784844888210.709
-0.951,-0.714,-0.386,-15.66,66.35,-96.87,1784844888224.083
-0.945,-0.726,-0.382,-14.77,65.55,-101.5,1784844888229.9368
-0.937,-0.727,-0.362,-15.14,64.58,-105.47,1784844888240.7197
-0.919,-0.715,-0.365,-17.46,62.78,-108.68,1784844888253.887
-0.888,-0.705,-0.359,-20.97,62.04,-110.23,1784844888259.88
-0.866,-0.741,-0.369,-22.74,60.46,-111.91,1784844888270.7178
-0.841,-0.785,-0.369,-23.83,59.05,-115.45,1784844888283.961
-0.817,-0.808,-0.371,-21.27,58.29,-119.94,1784844888289.7742
-0.804,-0.818,-0.385,-14.31,58.35,-122.81,1784844888300.6458
-0.789,-0.808,-0.407,-7.51,58.05,-122.78,1784844888313.8938
-0.767,-0.77,-0.458,-5.13,57.62,-120.7,1784844888319.732
-0.719,-0.739,-0.503,-4.85,58.99,-117.13,1784844888330.453
-0.678,-0.744,-0.526,-5.98,60.03,-114.69,1784844888341.2039
-0.642,-0.755,-0.532,-12.27,59.63,-113.83,1784844888354.429
-0.594,-0.774,-0.521,-21.15,60.24,-114.02,1784844888360.585
-0.555,-0.831,-0.507,-27.5,60.73,-114.75,1784844888370.938
-0.533,-0.889,-0.504,-29.69,61.13,-116.58,1784844888384.2612
-0.517,-0.936,-0.496,-26.06,62.41,-118.26,1784844888389.93
-0.506,-0.964,-0.504,-17.15,62.72,-119.85,1784844888401.207
-0.497,-0.97,-0.538,-7.87,63.57,-119.88,1784844888414.2048
-0.479,-0.895,-0.542,-4.61,66.47,-117.59,1784844888419.9731
-0.438,-0.796,-0.521,-2.9,68.12,-112.06,1784844888430.6008
-0.386,-0.782,-0.548,-2.01,65.25,-106.78,1784844888443.808
-0.352,-0.846,-0.572,-8.7,61.1,-106.48,1784844888449.7249
-0.344,-0.97,-0.621,-21.85,56.18,-111.15,1784844888460.361
-0.322,-1.068,-0.641,-40.8,54.05,-116.58,1784844888471.321
-0.28,-1.075,-0.564,-60.09,56.09,-119.11,1784844888484.478
-0.239,-1.041,-0.538,-74.16,55.18,-117.98,1784844888490.2559
-0.189,-0.973,-0.501,-83.99,54.2,-116.03,1784844888501.0823
-0.124,-0.878,-0.461,-84.96,55.64,-117.68,1784844888514.2798
-0.08,-0.775,-0.492,-76.72,56.52,-123.33,1784844888520.0342
-0.071,-0.68,-0.563,-63.57,58.78,-127.96,1784844888531.1028
-0.075,-0.602,-0.618,-52.89,62.72,-129.34,1784844888544.628
-0.075,-0.544,-0.67,-48.25,64.42,-127.54,1784844888550.145
-0.071,-0.49,-0.688,-52.61,63.3,-122.81,1784844888561.044
-0.045,-0.44,-0.684,-64.15,61.62,-114.69,1784844888574.484
-0.005,-0.439,-0.679,-77.27,60.12,-104.74,1784844888580.0461
0.032,-0.465,-0.647,-90.33,59.27,-96.1,1784844888591.004
0.06,-0.5,-0.644,-98.7,59.72,-89.69,1784844888604.0718
0.068,-0.532,-0.644,-103.95,61.13,-84.99,1784844888610.081
0.061,-0.53,-0.615,-105.35,63.14,-80.69,1784844888620.7
0.066,-0.518,-0.615,-99.19,64.39,-74.83,1784844888634.3901
0.079,-0.49,-0.582,-90.27,66.99,-68.51,1784844888640.112
0.1,-0.47,-0.56,-81.7,68.06,-62.5,1784844888650.399
0.113,-0.485,-0.575,-77.91,66.74,-57.83,1784844888661.286
0.121,-0.504,-0.58,-80.23,65.98,-55.48,1784844888674.5652
0.124,-0.506,-0.581,-85.51,65.13,-54.35,1784844888680.734
0.129,-0.49,-0.583,-89.18,64.21,-52.34,1784844888690.8071
0.143,-0.481,-0.594,-88.32,63.45,-48.8,1784844888704.263
0.156,-0.478,-0.625,-85.91,62.87,-44.77,1784844888710.448
0.176,-0.492,-0.64,-84.11,63.3,-41.41,1784844888720.5388
0.189,-0.498,-0.626,-84.72,62.78,-40.65,1784844888731.4229
0.198,-0.481,-0.665,-86.61,60.64,-41.02,1784844888744.7512
0.21,-0.473,-0.688,-86.55,61.95,-39.58,1784844888750.3303
0.224,-0.466,-0.667,-84.14,64.76,-36.96,1784844888760.806
0.242,-0.443,-0.662,-80.39,65.19,-33.3,1784844888774.354
0.263,-0.426,-0.675,-76.27,65.03,-29.33,1784844888780.0498
0.271,-0.408,-0.688,-74.89,64.58,-26.95,1784844888790.549
0.284,-0.39,-0.687,-73.98,63.91,-25.48,1784844888804.0042
0.3,-0.395,-0.703,-71.57,63.39,-24.69,1784844888809.9893
0.316,-0.394,-0.714,-69.52,63.45,-25.03,1784844888820.1921
0.329,-0.385,-0.683,-67.05,63.36,-25.54,1784844888831.1438
0.334,-0.381,-0.66,-63.72,61.28,-25.61,1784844888844.341
0.342,-0.355,-0.635,-61.31,58.78,-25.45,1784844888849.9949
0.361,-0.327,-0.642,-56.98,55.7,-23.99,1784844888860.786
0.385,-0.322,-0.688,-51.7,52.28,-22.74,1784844888874.274
0.401,-0.316,-0.676,-49.96,49.96,-22.43,1784844888888.6567
0.412,-0.288,-0.648,-49.62,46.11,-22.43,1784844888890.442
0.422,-0.253,-0.657,-46.82,41.05,-22.4,1784844888900.9048
0.427,-0.221,-0.662,-42.39,37.35,-21.64,1784844888914.2551
0.43,-0.193,-0.656,-38.48,33.72,-20.45,1784844888919.945
0.436,-0.165,-0.671,-35.68,29.11,-19.5,1784844888930.733
0.446,-0.131,-0.682,-33.05,25.33,-18.52,1784844888943.886
0.459,-0.107,-0.683,-29.66,22.16,-16.72,1784844888949.884
0.469,-0.094,-0.688,-26.76,18.98,-14.62,1784844888960.365
0.478,-0.082,-0.731,-25.91,15.47,-11.87,1784844888971.225
0.485,-0.074,-0.77,-26.95,13.28,-8.67,1784844888984.548
0.492,-0.08,-0.795,-28.63,12.21,-5.95,1784844888990.0632
0.508,-0.095,-0.83,-30.46,11.54,-4.3,1784844889000.4731
0.541,-0.109,-0.868,-31.34,11.51,-3.51,1784844889011.132
0.579,-0.118,-0.899,-32.26,12.88,-3.42,1784844889024.7869
0.61,-0.116,-0.921,-34.42,14.86,-4.06,1784844889030.007
0.637,-0.106,-0.923,-37.75,16.91,-4.85,1784844889040.664
0.655,-0.094,-0.923,-42.15,18.77,-5.07,1784844889051.166
0.656,-0.073,-0.89,-47.52,20.29,-5.04,1784844889064.393
0.656,-0.073,-0.89,-51.67,19.44,-4.12,1784844889069.977
0.635,-0.046,-0.856,-52.8,16.57,-1.98,1784844889080.5718
0.621,-0.037,-0.865,-53.47,14.62,-0.27,1784844889091.166
0.619,-0.051,-0.889,-54.17,13.06,-0.31,1784844889104.3782
0.629,-0.076,-0.908,-53.41,11.54,-2.23,1784844889110.2432
0.657,-0.105,-0.926,-53.41,11.54,-2.23,1784844889120.4622
0.699,-0.133,-0.944,-52.77,10.53,-5.07,1784844889131.1582
0.733,-0.145,-0.931,-54.05,10.99,-8.55,1784844889144.3672
0.747,-0.13,-0.892,-55.73,11.47,-11.44,1784844889150.735
0.737,-0.094,-0.865,-56.4,10.62,-12.05,1784844889160.875
0.716,-0.051,-0.861,-57.07,9.67,-10.62,1784844889171.224
0.701,-0.029,-0.882,-57.31,9.4,-7.87,1784844889184.525
0.692,-0.047,-0.887,-57.37,10.77,-5.86,1784844889190.393
0.679,-0.087,-0.859,-58.17,12.39,-5.22,1784844889200.659
0.67,-0.121,-0.842,-58.87,13.52,-4.55,1784844889211.235
0.675,-0.129,-0.831,-58.23,15.26,-2.81,1784844889224.618
0.682,-0.112,-0.814,-56.73,17.61,0.46,1784844889230.415
0.683,-0.066,-0.797,-54.84,19.1,5.49,1784844889240.784
0.68,-0.015,-0.803,-52.64,18.56,11.66,1784844889251.3699
0.66,0.027,-0.8,-49.59,17.67,17.79,1784844889264.663
0.641,0.038,-0.775,-45.72,16.36,24.14,1784844889270.396
0.621,-0.01,-0.746,-39.52,13.73,28.47,1784844889280.971
0.599,-0.118,-0.717,-30.24,10.9,28.78,1784844889294.251
0.58,-0.195,-0.692,-24.6,7.54,26.64,1784844889300.062
0.572,-0.18,-0.686,-23.62,3.3,26.12,1784844889310.515
0.561,-0.118,-0.731,-20.11,-0.09,29.82,1784844889321.038
0.546,-0.064,-0.835,-17.09,-1.8,37.75,1784844889334.593
0.529,-0.003,-0.891,-20.6,-0.55,47.21,1784844889340.034
0.507,0.041,-0.937,-26.0,-0.79,55.57,1784844889350.373
0.476,0.028,-0.993,-29.51,-1.71,62.35,1784844889361.064
0.452,-0.098,-0.975,-29.97,0.12,66.62,1784844889374.4111
0.425,-0.283,-0.922,-28.96,0.34,65.28,1784844889380.2979
0.395,-0.391,-0.854,-32.47,-1.04,62.69,1784844889390.431
0.406,-0.393,-0.804,-33.08,-2.84,62.87,1784844889400.9888
0.438,-0.339,-0.829,-22.4,-3.85,64.36,1784844889414.391
0.445,-0.267,-0.86,-4.97,-2.01,66.35,1784844889419.996
0.429,-0.197,-0.86,10.13,-1.19,69.98,1784844889430.481
0.407,-0.133,-0.888,17.82,-3.27,74.34,1784844889440.791
0.388,-0.085,-0.929,19.04,-4.76,78.31,1784844889454.18
0.369,-0.093,-0.922,17.7,-4.09,81.58,1784844889459.9358
0.344,-0.166,-0.901,12.85,-4.94,83.38,1784844889470.308
0.324,-0.224,-0.91,1.25,-7.81,82.34,1784844889480.759
0.309,-0.241,-0.899,-11.96,-9.92,81.39,1784844889494.239
0.294,-0.25,-0.89,-18.77,-11.17,82.4,1784844889500.0068
0.275,-0.255,-0.858,-17.58,-10.74,84.78,1784844889510.667
0.271,-0.258,-0.805,-10.86,-11.08,88.14,1784844889521.163
0.267,-0.28,-0.805,-5.62,-16.48,92.84,1784844889534.841
0.231,-0.339,-0.913,-2.96,-19.62,93.14,1784844889541.452
0.219,-0.37,-0.916,-2.44,-17.82,85.79,1784844889550.4639
0.198,-0.391,-0.934,-3.02,-19.38,81.21,1784844889561.007
0.221,-0.353,-0.932,-2.08,-19.5,78.65,1784844889574.542
0.262,-0.297,-0.928,3.81,-19.38,78.95,1784844889580.523
0.306,-0.274,-0.925,8.73,-20.02,83.59,1784844889590.487
0.271,-0.313,-1.008,6.01,-19.78,86.61,1784844889601.001
0.286,-0.288,-0.987,-2.53,-15.11,77.94,1784844889614.3958
0.263,-0.318,-1.048,-15.47,-17.58,74.04,1784844889619.956
0.26,-0.366,-1.022,-23.77,-11.26,67.54,1784844889630.95
0.279,-0.398,-0.948,-25.42,-7.23,57.53,1784844889644.1758
0.282,-0.401,-0.9,-22.98,-4.97,52.1,1784844889649.676
0.3,-0.38,-0.865,-16.14,-2.66,50.36,1784844889660.089
0.311,-0.357,-0.857,-7.32,-0.52,49.53,1784844889670.506
0.299,-0.339,-0.861,1.19,1.16,47.85,1784844889681.153
0.278,-0.288,-0.829,7.69,2.47,46.3,1784844889694.393
0.232,-0.288,-0.855,11.26,-0.06,52.46,1784844889700.614
0.275,-0.249,-0.823,17.85,3.94,48.31,1784844889710.6218
0.291,-0.245,-0.843,19.47,2.62,44.37,1784844889720.944
0.305,-0.222,-0.804,14.01,2.32,44.89,1784844889734.4512
0.31,-0.206,-0.835,10.25,-0.85,46.78,1784844889740.402
0.285,-0.2,-0.869,7.9,-2.32,46.97,1784844889750.346
0.256,-0.183,-0.887,2.69,-4.0,49.26,1784844889760.702
0.2,-0.214,-0.915,-5.16,-5.65,55.24,1784844889774.2898
0.225,-0.18,-0.856,-8.3,-2.9,54.81,1784844889779.9092
0.26,-0.209,-0.859,-7.35,-4.0,58.47,1784844889789.945
0.277,-0.214,-0.823,-5.95,-4.03,62.11,1784844889800.3699
0.251,-0.186,-0.815,-2.78,-6.26,66.32,1784844889811.136
0.223,-0.142,-0.819,-0.92,-7.87,71.23,1784844889824.28
0.172,-0.16,-0.816,-3.88,-12.36,81.0,1784844889830.483
0.172,-0.157,-0.821,-4.82,-11.99,81.61,1784844889840.6401
0.187,-0.225,-0.785,-5.95,-11.26,78.62,1784844889850.807
0.223,-0.287,-0.733,-4.39,-11.6,77.03,1784844889864.2222
0.271,-0.391,-0.777,6.87,-12.7,75.41,1784844889869.939
0.27,-0.471,-0.759,19.99,-11.57,68.64,1784844889880.3682
0.217,-0.501,-0.781,32.53,-11.9,58.57,1784844889891.1482
0.188,-0.5,-0.807,43.64,-10.74,47.85,1784844889904.211
0.21,-0.483,-0.786,52.31,-9.8,36.68,1784844889910.419
0.25,-0.474,-0.806,59.02,-10.47,26.06,1784844889923.8909
0.29,-0.469,-0.813,63.45,-10.59,17.0,1784844889934.6829
0.328,-0.44,-0.949,62.72,-12.7,8.3,1784844889939.917
0.298,-0.377,-1.052,49.47,-10.65,1.07,1784844889950.2231
0.219,-0.346,-1.006,27.95,-7.32,-3.2,1784844889960.634
0.205,-0.343,-0.971,8.0,-9.16,-7.11,1784844889971.097
0.248,-0.354,-0.925,-7.35,-11.75,-11.38,1784844889984.3408
0.289,-0.358,-0.885,-15.99,-13.43,-14.13,1784844889990.1199
0.307,-0.367,-0.948,-16.79,-14.5,-15.41,1784844890000.5708
0.274,-0.376,-0.96,-15.72,-11.51,-15.47,1784844890013.934
0.23,-0.37,-0.911,-14.28,-9.09,-12.79,1784844890019.5972
0.236,-0.365,-0.876,-9.67,-9.0,-9.37,1784844890030.07
0.258,-0.378,-0.824,0.18,-8.79,-7.23,1784844890040.355
0.306,-0.382,-0.888,11.17,-9.92,-5.71,1784844890050.925
0.319,-0.383,-0.94,17.0,-8.42,-6.26,1784844890064.1821
0.283,-0.361,-0.945,18.22,-6.04,-7.23,1784844890069.778
0.269,-0.316,-0.952,16.85,-5.58,-7.87,1784844890080.093
0.271,-0.293,-0.958,13.03,-6.2,-7.66,1784844890090.672
