ax,ay,az,gx,gy,gz,timestamp_ms
0.403,-0.423,-0.831,-1.43,2.66,-11.05,1785084778706.869
0.402,-0.433,-0.822,-2.56,2.78,-11.51,1785084778707.406
0.401,-0.447,-0.811,-2.14,2.72,-11.93,1785084778707.9192
0.4,-0.46,-0.8,-0.55,2.14,-12.73,1785084778708.522
0.408,-0.459,-0.797,1.46,1.31,-13.18,1785084778709.11
0.413,-0.447,-0.8,3.3,0.79,-12.91,1785084778709.646
0.417,-0.434,-0.803,4.09,0.82,-12.57,1785084778710.1582
0.427,-0.432,-0.808,4.0,1.19,-13.46,1785084778710.698
0.426,-0.435,-0.815,3.66,1.92,-15.17,1785084778712.867
0.42,-0.435,-0.818,3.63,3.08,-16.42,1785084778713.3691
0.409,-0.443,-0.819,4.82,3.91,-17.46,1785084778713.814
0.4,-0.459,-0.817,6.78,4.27,-18.86,1785084778714.1812
0.392,-0.47,-0.812,9.06,4.09,-19.71,1785084778714.5332
0.392,-0.472,-0.802,12.02,3.48,-20.02,1785084778714.892
0.391,-0.472,-0.795,15.44,2.72,-21.15,1785084778715.2659
0.386,-0.47,-0.792,19.04,2.35,-23.93,1785084778715.6282
0.385,-0.464,-0.793,22.89,2.26,-27.68,1785084778715.981
0.376,-0.458,-0.802,26.4,2.69,-31.86,1785084778716.335
0.362,-0.455,-0.813,28.9,3.39,-36.53,1785084778716.692
0.342,-0.464,-0.816,30.3,4.7,-41.72,1785084778717.043
0.316,-0.479,-0.814,31.07,6.35,-47.61,1785084778717.3992
0.287,-0.494,-0.803,31.92,8.58,-53.87,1785084778717.813
0.252,-0.515,-0.782,34.46,10.96,-61.1,1785084778718.1802
0.223,-0.532,-0.773,39.46,12.88,-70.53,1785084778718.534
0.21,-0.531,-0.767,46.66,14.95,-80.48,1785084778718.9272
0.196,-0.525,-0.753,54.84,16.21,-90.85,1785084778719.342
0.137,-0.505,-0.75,61.77,16.72,-101.44,1785084778719.752
0.089,-0.476,-0.732,65.92,17.09,-110.75,1785084778720.156
0.047,-0.468,-0.714,70.07,17.12,-120.49,1785084778720.566
-0.0,-0.465,-0.701,73.73,17.76,-129.73,1785084778720.986
-0.04,-0.441,-0.684,76.2,18.71,-136.54,1785084778721.39
-0.048,-0.397,-0.675,77.18,18.95,-140.57,1785084778721.7952
-0.019,-0.335,-0.668,75.78,18.92,-142.8,1785084778722.209
0.015,-0.279,-0.673,70.47,18.86,-143.44,1785084778722.698
0.025,-0.245,-0.672,60.52,19.47,-142.8,1785084778723.1099
0.019,-0.224,-0.657,47.36,19.87,-141.88,1785084778723.5232
0.031,-0.198,-0.64,34.27,19.75,-139.04,1785084778723.936
0.064,-0.171,-0.632,23.16,19.75,-133.79,1785084778724.344
0.095,-0.148,-0.616,13.61,20.48,-127.14,1785084778724.745
0.119,-0.134,-0.595,4.03,21.94,-120.24,1785084778725.148
0.137,-0.135,-0.574,-5.52,24.23,-114.02,1785084778725.549
0.158,-0.135,-0.557,-14.16,26.49,-107.79,1785084778725.972
0.191,-0.117,-0.542,-22.13,29.05,-99.89,1785084778726.5269
0.224,-0.091,-0.528,-29.63,31.04,-89.6,1785084778726.9958
0.258,-0.063,-0.512,-38.54,31.74,-77.18,1785084778727.405
0.287,-0.044,-0.494,-48.52,31.37,-63.08,1785084778727.808
0.302,-0.043,-0.474,-57.31,30.79,-48.31,1785084778728.3762
0.314,-0.065,-0.451,-63.26,30.18,-33.45,1785084778728.929
0.317,-0.073,-0.401,-64.97,28.41,-19.96,1785084778729.4111
0.342,-0.061,-0.372,-64.06,25.94,-4.36,1785084778729.9111
0.428,-0.032,-0.331,-63.05,20.17,15.26,1785084778730.397
0.501,-0.024,-0.317,-60.76,10.56,33.2,1785084778730.8108
0.526,-0.022,-0.307,-57.34,1.4,49.17,1785084778731.211
0.535,-0.031,-0.287,-50.42,-7.6,65.16,1785084778731.62
0.536,-0.045,-0.246,-39.58,-17.0,82.06,1785084778732.0251
0.529,-0.051,-0.194,-25.21,-27.44,101.26,1785084778732.4312
0.529,-0.051,-0.194,-8.3,-38.67,122.68,1785084778732.83
0.512,-0.065,-0.143,9.8,-52.46,144.02,1785084778733.233
0.506,-0.13,-0.094,26.25,-70.1,161.99,1785084778733.6409
0.51,-0.205,-0.102,41.51,-89.18,179.54,1785084778734.049
0.534,-0.201,-0.155,58.05,-108.04,198.89,1785084778734.46
0.56,-0.167,-0.249,58.05,-108.04,198.89,1785084778734.874
0.489,-0.162,-0.371,74.25,-126.47,217.51,1785084778735.2908
0.404,-0.166,-0.456,87.01,-136.88,232.18,1785084778735.7068
0.326,-0.239,-0.588,97.14,-144.47,243.26,1785084778736.112
0.255,-0.373,-0.651,107.64,-147.43,255.96,1785084778736.5498
0.199,-0.506,-0.696,119.17,-145.63,269.02,1785084778736.968
0.173,-0.572,-0.7,127.54,-140.05,275.37,1785084778737.3801
0.158,-0.658,-0.674,128.48,-141.97,283.36,1785084778737.793
0.171,-0.78,-0.647,124.45,-153.05,294.66,1785084778738.2122
0.125,-0.869,-0.651,120.58,-162.69,303.2,1785084778738.6228
0.042,-0.974,-0.708,122.53,-167.24,310.98,1785084778739.0398
-0.057,-1.094,-0.818,129.4,-167.79,311.29,1785084778739.4502
-0.172,-1.204,-0.932,136.33,-167.15,304.85,1785084778739.865
-0.248,-1.323,-1.051,143.1,-163.82,296.03,1785084778740.299
-0.31,-1.451,-1.107,150.55,-154.82,284.49,1785084778740.714
-0.367,-1.513,-1.046,156.9,-144.47,273.9,1785084778741.123
-0.382,-1.474,-0.918,167.06,-137.7,270.42,1785084778741.539
-0.355,-1.368,-0.824,184.58,-132.42,271.98,1785084778741.954
-0.343,-1.263,-0.771,202.37,-126.41,272.29,1785084778742.37
-0.383,-1.253,-0.764,211.0,-120.46,268.26,1785084778742.781
-0.469,-1.304,-0.791,201.51,-112.61,258.16,1785084778743.193
-0.579,-1.356,-0.824,173.41,-100.22,246.99,1785084778743.604
-0.657,-1.329,-0.792,132.73,-86.89,241.31,1785084778744.098
-0.656,-1.225,-0.716,93.78,-77.18,241.1,1785084778744.51
-0.628,-1.119,-0.688,68.24,-72.24,240.3,1785084778744.9138
-0.53,-1.074,-0.67,50.6,-59.97,240.3,1785084778745.5361
-0.542,-0.988,-0.705,31.16,-53.62,231.64,1785084778746.1472
-0.59,-0.924,-0.734,8.48,-50.36,222.57,1785084778746.5488
-0.615,-0.946,-0.79,-17.91,-43.79,214.33,1785084778746.961
-0.7,-0.984,-0.828,-50.6,-36.56,199.65,1785084778747.366
-0.78,-1.011,-0.806,-85.15,-30.92,188.45,1785084778747.773
-0.831,-1.014,-0.753,-113.53,-25.48,183.23,1785084778748.197
-0.843,-1.014,-0.696,-131.87,-20.36,184.24,1785084778748.6091
-0.85,-0.93,-0.561,-142.8,-18.13,181.52,1785084778749.022
-0.902,-0.85,-0.494,-141.7,-26.06,176.92,1785084778749.439
-0.9,-0.826,-0.482,-133.46,-30.52,174.66,1785084778749.8628
-0.914,-0.799,-0.45,-126.83,-30.67,165.5,1785084778750.278
-0.971,-0.766,-0.425,-121.01,-32.84,152.44,1785084778750.693
-0.996,-0.764,-0.413,-114.47,-34.82,142.74,1785084778751.101
-0.985,-0.788,-0.428,-104.16,-36.07,135.17,1785084778751.507
-0.973,-0.801,-0.436,-88.84,-37.29,127.38,1785084778752.0142
-0.967,-0.782,-0.414,-69.12,-36.71,120.61,1785084778752.428
-0.979,-0.763,-0.389,-45.05,-36.96,114.6,1785084778752.84
-0.999,-0.738,-0.366,-18.59,-39.09,108.92,1785084778753.242
-1.008,-0.7,-0.353,8.39,-41.99,103.31,1785084778753.647
-1.001,-0.632,-0.358,32.87,-44.53,97.35,1785084778754.049
-0.98,-0.549,-0.37,53.04,-44.8,91.8,1785084778754.455
-0.959,-0.496,-0.396,69.49,-43.18,85.79,1785084778754.858
-0.951,-0.466,-0.42,80.6,-40.47,78.16,1785084778755.2642
-0.94,-0.446,-0.436,86.7,-37.17,69.15,1785084778755.668
-0.929,-0.422,-0.441,89.79,-34.18,58.84,1785084778756.0662
-0.921,-0.387,-0.43,89.79,-31.34,47.76,1785084778756.4722
-0.914,-0.351,-0.407,86.67,-29.05,37.39,1785084778756.875
-0.911,-0.32,-0.393,80.6,-27.44,28.5,1785084778757.275
-0.907,-0.295,-0.39,70.65,-25.88,20.45,1785084778757.673
-0.907,-0.27,-0.383,57.89,-24.38,13.09,1785084778758.081
-0.895,-0.257,-0.372,43.95,-23.44,5.95,1785084778758.482
-0.908,-0.238,-0.373,29.39,-23.65,-2.78,1785084778758.877
-0.909,-0.253,-0.375,15.47,-22.28,-8.0,1785084778759.274
-0.9,-0.288,-0.38,3.97,-19.29,-11.66,1785084778759.673
-0.904,-0.308,-0.37,-3.72,-16.91,-16.48,1785084778760.073
-0.912,-0.314,-0.353,-7.72,-15.9,-20.84,1785084778760.473
-0.909,-0.317,-0.336,-9.61,-14.8,-23.32,1785084778760.9238
-0.905,-0.319,-0.323,-10.1,-13.95,-25.39,1785084778761.437
-0.899,-0.32,-0.315,-10.1,-13.58,-27.07,1785084778761.847
-0.892,-0.317,-0.311,-9.95,-13.58,-28.2,1785084778762.2578
-0.895,-0.308,-0.319,-9.83,-13.82,-29.91,1785084778762.665
-0.893,-0.306,-0.329,-9.89,-13.0,-29.91,1785084778763.0667
-0.895,-0.301,-0.335,-9.92,-11.87,-29.51,1785084778763.4639
-0.9,-0.292,-0.34,-9.34,-10.99,-29.42,1785084778763.8662
-0.9,-0.284,-0.342,-8.42,-10.04,-28.78,1785084778764.266
-0.895,-0.275,-0.342,-7.45,-9.31,-28.17,1785084778764.66
-0.902,-0.26,-0.342,-7.29,-8.88,-28.02,1785084778765.0518
-0.905,-0.253,-0.343,-8.48,-8.18,-26.55,1785084778765.446
-0.898,-0.255,-0.349,-10.62,-7.9,-24.38,1785084778765.842
-0.903,-0.247,-0.36,-13.52,-7.69,-22.95,1785084778766.2349
-0.909,-0.243,-0.371,-16.24,-6.74,-21.0,1785084778766.6318
-0.907,-0.246,-0.375,-18.46,-5.8,-18.83,1785084778767.0332
-0.905,-0.244,-0.374,-20.14,-4.91,-17.27,1785084778767.607
-0.907,-0.24,-0.369,-21.24,-4.3,-16.36,1785084778768.003
-0.906,-0.241,-0.358,-21.64,-3.91,-15.17,1785084778768.4
-0.904,-0.244,-0.349,-22.0,-3.66,-13.7,1785084778768.8188
-0.901,-0.244,-0.341,-22.1,-3.97,-11.99,1785084778769.217
-0.897,-0.242,-0.342,-21.97,-4.49,-10.25,1785084778769.611
-0.893,-0.24,-0.355,-21.97,-4.73,-8.64,1785084778770.005
-0.893,-0.233,-0.365,-22.0,-4.36,-7.45,1785084778770.396
-0.891,-0.225,-0.367,-21.76,-3.11,-6.23,1785084778770.787
-0.886,-0.22,-0.362,-21.0,-1.62,-5.74,1785084778771.1821
-0.883,-0.225,-0.346,-19.65,-0.34,-4.94,1785084778771.5762
-0.878,-0.233,-0.331,-17.98,0.31,-3.81,1785084778771.9722
-0.879,-0.236,-0.317,-16.02,0.43,-2.72,1785084778772.362
-0.885,-0.238,-0.309,-13.86,0.15,-1.25,1785084778772.753
-0.89,-0.24,-0.315,-12.6,-0.15,0.21,1785084778773.1462
-0.893,-0.241,-0.329,-11.66,0.0,1.71,1785084778773.535
-0.892,-0.24,-0.34,-10.56,0.85,3.08,1785084778773.9302
-0.891,-0.24,-0.346,-8.3,2.32,4.12,1785084778774.343
-0.892,-0.241,-0.344,-4.91,3.88,5.1,1785084778774.7368
-0.894,-0.24,-0.335,-1.13,5.07,6.2,1785084778775.1218
-0.896,-0.243,-0.321,2.53,5.89,7.39,1785084778775.511
-0.894,-0.249,-0.308,5.92,6.29,8.55,1785084778775.903
-0.893,-0.255,-0.304,9.06,6.2,9.77,1785084778776.291
-0.892,-0.259,-0.311,11.93,6.16,10.62,1785084778776.688
-0.893,-0.259,-0.316,14.86,6.16,11.17,1785084778777.087
-0.892,-0.256,-0.322,17.27,6.07,11.57,1785084778777.494
-0.893,-0.254,-0.325,19.04,6.56,11.57,1785084778777.992
-0.892,-0.252,-0.324,19.99,6.96,11.38,1785084778778.393
-0.895,-0.252,-0.318,20.26,7.39,11.2,1785084778778.792
-0.901,-0.252,-0.313,19.81,7.45,10.86,1785084778779.184
-0.902,-0.259,-0.309,16.57,6.96,9.67,1785084778780.4958
-0.903,-0.26,-0.304,15.47,6.93,9.16,1785084778780.965
-0.889,-0.264,-0.276,7.69,0.24,5.4,1785084778781.4841
-0.887,-0.271,-0.273,7.6,-0.06,5.58,1785084778781.9368
-0.887,-0.271,-0.275,7.69,-0.49,5.62,1785084778782.3848
-0.885,-0.272,-0.279,8.12,-0.73,5.68,1785084778782.835
-0.888,-0.272,-0.278,8.97,-0.76,5.68,1785084778783.297
-0.891,-0.274,-0.276,9.92,-1.13,5.77,1785084778784.654
-0.893,-0.273,-0.275,10.44,-1.68,5.68,1785084778790.0842
-0.893,-0.271,-0.272,10.53,-2.35,5.55,1785084778800.275
-0.895,-0.272,-0.274,10.07,-3.08,5.28,1785084778810.6438
-0.894,-0.275,-0.277,9.4,-3.85,4.94,1785084778820.9941
-0.895,-0.275,-0.284,8.3,-4.55,4.82,1785084778831.421
-0.896,-0.273,-0.292,6.47,-5.19,4.46,1785084778841.5889
-0.895,-0.27,-0.299,4.06,-5.62,3.91,1785084778854.8733
-0.892,-0.268,-0.304,1.34,-5.74,3.36,1785084778860.041
-0.893,-0.27,-0.306,-1.19,-5.52,2.78,1785084778870.239
-0.888,-0.27,-0.301,-3.08,-5.28,2.29,1785084778880.446
-0.886,-0.272,-0.294,-4.46,-5.31,1.65,1785084778890.8591
-0.888,-0.274,-0.289,-5.13,-5.46,1.01,1785084778901.106
-0.894,-0.275,-0.286,-5.55,-5.95,0.52,1785084778911.329
-0.903,-0.275,-0.291,-5.89,-6.47,0.06,1785084778924.663
-0.905,-0.274,-0.297,-6.5,-6.59,-0.21,1785084778929.892
-0.904,-0.272,-0.303,-6.71,-6.44,-0.52,1785084778940.042
-0.902,-0.271,-0.312,-6.2,-5.89,-0.95,1785084778950.381
-0.901,-0.27,-0.309,-4.97,-5.43,-1.43,1785084778960.6772
-0.905,-0.269,-0.304,-3.69,-5.01,-2.04,1785084778971.0059
-0.902,-0.27,-0.303,-2.66,-4.91,-2.29,1785084778981.2522
-0.902,-0.27,-0.302,-1.89,-4.85,-2.38,1785084778991.7341
-0.901,-0.271,-0.303,-1.53,-4.76,-2.41,1785084779005.141
-0.901,-0.271,-0.306,-1.28,-4.82,-2.44,1785084779010.7148
-0.9,-0.268,-0.313,-1.37,-4.85,-2.53,1785084779020.552
-0.899,-0.264,-0.324,-1.8,-4.67,-2.78,1785084779030.901
-0.896,-0.26,-0.329,-2.44,-4.24,-3.11,1785084779041.54
-0.896,-0.259,-0.331,-2.87,-3.63,-3.39,1785084779051.595
-0.896,-0.258,-0.33,-3.11,-3.02,-3.66,1785084779061.365
-0.895,-0.258,-0.326,-3.36,-2.5,-4.03,1785084779074.778
-0.899,-0.257,-0.322,-3.57,-2.2,-4.33,1785084779079.9849
-0.901,-0.258,-0.32,-3.45,-2.08,-4.36,1785084779090.167
-0.902,-0.257,-0.32,-3.05,-1.71,-4.33,1785084779100.3342
-0.899,-0.256,-0.322,-2.87,-1.34,-4.27,1785084779110.7268
-0.899,-0.255,-0.323,-2.72,-0.89,-4.3,1785084779120.9421
-0.902,-0.254,-0.321,-2.87,-0.64,-4.18,1785084779131.219
-0.903,-0.251,-0.32,-3.33,-0.27,-4.06,1785084779141.571
-0.905,-0.248,-0.324,-4.0,0.09,-3.81,1785084779155.0168
-0.906,-0.247,-0.325,-4.49,0.58,-3.63,1785084779160.2249
-0.905,-0.247,-0.323,-4.64,1.13,-3.3,1785084779170.2102
-0.905,-0.247,-0.323,-4.49,1.62,-3.02,1785084779180.4622
-0.905,-0.251,-0.319,-4.27,1.92,-2.78,1785084779190.8171
-0.904,-0.251,-0.317,-3.97,2.14,-2.38,1785084779201.097
-0.902,-0.251,-0.315,-3.45,2.29,-1.89,1785084779211.457
-0.903,-0.252,-0.313,-2.96,2.5,-1.25,1785084779224.735
-0.903,-0.252,-0.314,-2.32,2.53,-0.76,1785084779229.964
-0.901,-0.249,-0.313,-1.68,2.78,-0.34,1785084779240.0188
-0.9,-0.248,-0.311,-1.13,3.17,0.0,1785084779250.6519
-0.898,-0.248,-0.307,-0.61,3.39,0.27,1785084779261.272
-0.898,-0.248,-0.302,-0.21,3.54,0.46,1785084779271.056
-0.9,-0.247,-0.3,0.0,3.54,0.85,1785084779281.251
-0.9,-0.249,-0.299,0.03,3.57,1.28,1785084779291.742
-0.9,-0.251,-0.298,0.06,3.51,1.68,1785084779305.0283
-0.901,-0.251,-0.295,0.0,3.45,1.98,1785084779310.157
-0.899,-0.252,-0.297,-0.21,3.39,2.11,1785084779320.3562
-0.898,-0.251,-0.296,-0.37,3.36,2.38,1785084779330.7422
-0.9,-0.252,-0.293,-0.55,3.27,2.59,1785084779340.9531
-0.902,-0.252,-0.292,-0.82,3.23,2.72,1785084779351.0908
-0.903,-0.254,-0.289,-0.82,3.17,2.87,1785084779361.469
-0.902,-0.256,-0.286,-0.55,2.84,3.02,1785084779371.9712
-0.904,-0.256,-0.284,-0.15,2.62,2.96,1785084779385.0142
-0.903,-0.258,-0.284,0.34,2.5,2.87,1785084779390.45
-0.904,-0.258,-0.283,0.73,2.32,2.78,1785084779400.5151
-0.902,-0.26,-0.281,1.04,1.95,2.56,1785084779410.594
-0.902,-0.261,-0.283,1.25,1.68,2.56,1785084779420.886
-0.898,-0.259,-0.283,1.19,1.4,2.41,1785084779431.389
-0.896,-0.257,-0.286,1.25,1.19,2.11,1785084779441.631
-0.898,-0.257,-0.286,1.43,1.16,2.01,1785084779454.921
-0.9,-0.257,-0.284,1.56,1.07,1.89,1785084779460.2207
-0.898,-0.259,-0.283,1.71,0.98,1.77,1785084779470.7761
-0.891,-0.262,-0.28,2.01,0.85,1.59,1785084779480.542
-0.889,-0.262,-0.281,2.41,0.64,1.43,1785084779490.937
-0.888,-0.261,-0.279,2.75,0.24,1.34,1785084779501.968
-0.893,-0.258,-0.28,2.93,-0.34,1.37,1785084779511.783
-0.903,-0.256,-0.285,2.53,-0.79,1.4,1785084779522.029
-0.908,-0.256,-0.29,1.74,-1.13,1.46,1785084779535.25
-0.91,-0.261,-0.299,0.67,-1.16,1.28,1785084779540.4292
-0.91,-0.27,-0.307,-0.58,-0.82,0.79,1785084779550.573
-0.914,-0.28,-0.308,-1.83,-0.37,0.09,1785084779561.066
-0.913,-0.292,-0.309,-2.38,0.06,-0.85,1785084779570.994
-0.915,-0.311,-0.324,-2.35,0.67,-2.35,1785084779583.7922
-0.924,-0.327,-0.328,-2.62,1.83,-4.97,1785084779591.706
-0.931,-0.338,-0.317,-2.69,2.84,-8.21,1785084779604.912
-0.932,-0.343,-0.309,-0.55,3.57,-11.44,1785084779610.475
-0.933,-0.352,-0.313,3.63,4.88,-15.5,1785084779620.534
-0.938,-0.382,-0.329,9.34,7.02,-21.0,1785084779630.927
-0.95,-0.419,-0.324,14.83,9.92,-28.81,1785084779641.543
-0.959,-0.482,-0.31,22.28,12.54,-38.18,1785084779654.5952
-0.98,-0.545,-0.278,31.8,14.4,-48.83,1785084779660.448
-0.995,-0.591,-0.263,40.83,14.34,-58.6,1785084779670.826
-0.981,-0.585,-0.273,46.21,14.86,-67.02,1785084779681.3892
-0.964,-0.558,-0.334,49.04,19.07,-76.17,1785084779694.5332
-0.969,-0.518,-0.416,47.06,25.27,-87.47,1785084779700.321
-0.963,-0.49,-0.481,37.2,31.22,-99.25,1785084779710.8591
-0.925,-0.528,-0.511,18.8,37.42,-110.97,1785084779721.266
-0.912,-0.593,-0.574,-6.38,44.56,-124.7,1785084779734.7532
-0.954,-0.641,-0.652,-30.49,54.66,-134.59,1785084779740.494
-0.986,-0.714,-0.704,-45.35,65.22,-139.13,1785084779750.973
-0.99,-0.784,-0.733,-50.11,73.21,-142.06,1785084779761.67
-0.939,-0.827,-0.714,-46.97,77.7,-142.06,1785084779774.963
-0.798,-0.85,-0.822,-41.78,72.57,-141.85,1785084779780.6667
-0.531,-0.837,-1.215,-41.72,67.32,-141.76,1785084779791.328
-0.405,-0.872,-1.375,-50.57,80.72,-135.99,1785084779804.5308
-0.561,-1.012,-1.275,-70.68,98.73,-129.22,1785084779810.2778
-0.799,-1.199,-1.171,-94.64,115.73,-128.61,1785084779821.16
-0.932,-1.268,-1.068,-100.07,135.93,-135.84,1785084779834.4277
-0.869,-1.337,-0.995,-68.97,155.86,-150.03,1785084779840.1768
-0.821,-1.411,-0.966,-27.44,171.36,-174.87,1785084779851.0872
-0.919,-1.411,-1.005,-6.04,188.18,-201.12,1785084779864.311
-1.064,-1.372,-1.028,-6.68,200.96,-217.35,1785084779870.083
-1.142,-1.31,-1.065,-16.69,203.5,-224.07,1785084779881.191
-1.1,-1.338,-1.136,-22.1,209.11,-227.88,1785084779891.822
-1.057,-1.374,-1.13,-23.56,221.47,-241.4,1785084779905.048
-1.052,-1.327,-1.019,-20.05,227.52,-255.71,1785084779910.815
-0.991,-1.308,-0.951,-6.26,228.49,-260.14,1785084779921.6267
-0.917,-1.293,-0.934,10.25,235.18,-267.95,1785084779935.147
-0.899,-1.342,-0.931,24.57,238.47,-286.54,1785084779940.7092
-0.916,-1.308,-0.886,25.42,237.16,-307.57,1785084779951.6301
-0.916,-1.308,-0.886,17.03,237.46,-317.0,1785084779964.8352
-0.852,-1.187,-0.831,7.48,237.65,-320.41,1785084779971.3699
-0.724,-1.077,-0.828,-2.75,237.13,-325.66,1785084779981.3398
-0.597,-0.984,-0.808,-14.4,236.3,-329.6,1785084779995.317
-0.485,-0.851,-0.746,-14.4,236.3,-329.6,1785084780000.4812
-0.374,-0.721,-0.713,-24.02,234.84,-330.45,1785084780011.2869
-0.306,-0.543,-0.66,-36.87,236.12,-332.22,1785084780025.491
-0.226,-0.398,-0.565,-51.76,238.17,-328.71,1785084780032.317
-0.102,-0.377,-0.471,-62.62,235.3,-321.36,1785084780041.3928
-0.023,-0.349,-0.387,-73.18,231.85,-319.38,1785084780055.064
0.06,-0.306,-0.33,-82.49,228.43,-314.31,1785084780060.3452
0.108,-0.256,-0.286,-88.72,224.71,-310.89,1785084780071.1592
0.169,-0.251,-0.274,-94.33,220.4,-302.65,1785084780084.83
0.233,-0.22,-0.203,-99.58,215.49,-294.69,1785084780090.2742
0.307,-0.141,-0.112,-100.89,206.31,-284.1,1785084780101.223
0.421,-0.095,-0.073,-93.23,196.72,-269.6,1785084780114.816
0.52,-0.055,-0.043,-82.0,186.5,-258.92,1785084780120.188
0.579,0.031,-0.035,-73.7,174.69,-250.47,1785084780131.428
0.623,0.1,-0.034,-69.49,165.53,-239.3,1785084780144.386
0.654,0.112,-0.006,-68.42,157.78,-226.75,1785084780150.593
0.687,0.136,0.052,-70.19,148.38,-212.96,1785084780161.0972
0.753,0.188,0.099,-72.39,135.96,-193.33,1785084780174.6572
0.819,0.219,0.126,-70.47,122.07,-171.85,1785084780180.57
0.83,0.242,0.149,-66.38,107.55,-152.1,1785084780191.2708
0.818,0.269,0.169,-61.98,93.02,-132.97,1785084780204.376
0.832,0.268,0.166,-56.28,79.9,-116.31,1785084780210.2202
0.849,0.255,0.151,-50.6,68.61,-102.18,1785084780220.9102
0.847,0.247,0.145,-45.78,57.95,-87.77,1785084780231.3489
0.838,0.253,0.154,-40.74,46.66,-71.78,1785084780244.616
0.851,0.279,0.158,-35.65,34.24,-54.78,1785084780250.4429
0.881,0.309,0.172,-31.8,20.84,-38.79,1785084780260.8152
0.899,0.348,0.2,-28.32,6.32,-23.99,1785084780271.328
0.913,0.354,0.204,-23.1,-8.3,-10.28,1785084780284.68
0.907,0.352,0.176,-18.83,-21.79,1.04,1785084780290.831
0.875,0.356,0.138,-17.73,-34.06,12.67,1785084780300.7832
0.854,0.329,0.086,-18.92,-45.32,23.74,1785084780311.1228
0.837,0.29,0.018,-21.88,-55.27,33.3,1785084780321.612
0.805,0.249,-0.033,-24.87,-63.69,42.12,1785084780334.95
0.783,0.207,-0.074,-27.13,-72.94,50.33,1785084780340.5981
0.759,0.17,-0.099,-29.21,-82.83,57.92,1785084780351.0908
0.76,0.134,-0.127,-29.79,-93.3,64.85,1785084780361.654
0.761,0.117,-0.153,-28.66,-103.49,71.81,1785084780376.037
0.761,0.104,-0.169,-26.43,-113.47,78.55,1785084780384.1592
0.795,0.087,-0.198,-25.18,-123.78,84.44,1785084780391.829
0.756,0.03,-0.235,-22.95,-132.21,88.14,1785084780404.753
0.616,-0.031,-0.272,-16.75,-139.81,88.87,1785084780410.502
0.478,-0.054,-0.311,-7.66,-148.38,91.49,1785084780421.0662
0.432,-0.004,-0.364,-1.25,-158.76,99.86,1785084780431.627
0.426,0.026,-0.44,-0.24,-169.1,110.81,1785084780444.917
0.398,0.036,-0.5,-4.49,-178.29,118.53,1785084780450.8958
0.38,0.029,-0.571,-11.84,-187.48,123.39,1785084780461.477
0.302,-0.024,-0.636,-18.77,-195.9,124.21,1785084780474.6921
0.171,-0.115,-0.688,-21.15,-204.17,120.88,1785084780480.838
0.031,-0.222,-0.707,-18.37,-211.52,117.53,1785084780491.5571
-0.093,-0.311,-0.7,-9.67,-219.43,117.31,1785084780504.5571
-0.209,-0.318,-0.736,4.09,-227.64,122.47,1785084780510.2122
-0.28,-0.274,-0.776,14.89,-233.68,132.33,1785084780521.0613
-0.305,-0.205,-0.853,19.9,-238.17,139.56,1785084780534.271
-0.319,-0.022,-1.033,12.94,-236.18,148.69,1785084780540.169
-0.309,0.155,-1.163,-10.74,-224.28,163.4,1785084780551.289
-0.279,0.278,-1.295,-45.29,-206.92,173.25,1785084780564.276
-0.254,0.31,-1.424,-87.44,-180.15,180.36,1785084780570.045
-0.236,0.163,-1.399,-127.96,-146.89,179.91,1785084780581.075
-0.166,-0.098,-1.245,-152.07,-117.04,169.87,1785084780594.3657
-0.059,-0.449,-1.067,-151.68,-92.84,155.1,1785084780600.189
0.003,-0.791,-1.034,-128.79,-74.43,134.77,1785084780611.105
0.116,-0.949,-1.092,-95.07,-56.09,114.66,1785084780626.845
0.318,-1.154,-1.008,-49.17,-38.91,90.91,1785084780630.141
0.387,-1.098,-0.991,7.81,-26.8,51.94,1785084780640.5173
0.433,-0.891,-0.844,75.75,-17.49,26.18,1785084780651.084
0.333,-0.66,-0.922,144.26,-19.17,-6.53,1785084780664.468
0.245,-0.247,-1.029,183.29,-20.54,-23.99,1785084780670.097
0.21,0.018,-1.16,187.23,-17.64,-25.94,1785084780680.7192
0.203,0.104,-1.225,155.0,-9.03,-28.11,1785084780691.319
0.202,0.099,-1.214,106.72,2.23,-31.62,1785084780704.5188
0.206,0.02,-1.105,60.55,11.44,-30.46,1785084780710.25
0.228,-0.093,-0.975,25.57,14.4,-26.31,1785084780720.766
0.25,-0.191,-0.884,3.23,11.11,-22.06,1785084780731.236
0.254,-0.257,-0.838,-9.74,4.39,-19.65,1785084780741.5737
0.261,-0.299,-0.82,-16.69,-2.23,-17.94,1785084780754.8389
0.28,-0.314,-0.846,-19.53,-8.3,-14.86,1785084780760.652
0.291,-0.291,-0.879,-20.2,-12.82,-9.74,1785084780771.086
0.323,-0.246,-0.944,-20.75,-16.02,-3.14,1785084780781.23
0.348,-0.204,-0.989,-24.11,-15.63,2.5,1785084780794.518
0.357,-0.217,-0.994,-29.3,-13.58,3.81,1785084780800.083
0.373,-0.253,-0.999,-35.07,-11.78,2.93,1785084780810.6638
0.379,-0.269,-1.016,-40.01,-9.37,2.35,1785084780820.995
0.373,-0.282,-1.016,-43.0,-6.2,0.98,1785084780831.412
0.371,-0.304,-1.008,-43.61,-2.93,-2.47,1785084780841.773
0.369,-0.326,-0.994,-40.8,-0.09,-6.32,1785084780855.041
0.363,-0.344,-0.979,-35.8,1.86,-9.37,1785084780860.637
0.36,-0.341,-0.957,-29.54,2.96,-10.8,1785084780870.904
0.355,-0.323,-0.94,-22.16,3.02,-10.93,1785084780881.32
0.345,-0.297,-0.933,-14.22,3.14,-10.28,1785084780891.6777
0.345,-0.276,-0.935,-7.45,3.42,-9.7,1785084780905.0723
0.346,-0.255,-0.932,-2.93,3.91,-9.09,1785084780910.4631
0.346,-0.246,-0.916,-1.04,4.43,-7.69,1785084780924.542
0.354,-0.252,-0.906,-0.43,3.97,-6.26,1785084780930.878
0.35,-0.262,-0.902,-0.03,3.2,-5.28,1785084780940.8572
0.338,-0.297,-0.898,1.68,2.62,-5.01,1785084780951.0588
0.332,-0.334,-0.898,4.61,1.16,-5.95,1785084780961.375
0.335,-0.334,-0.903,8.79,-0.64,-5.89,1785084780971.7068
0.343,-0.305,-0.928,13.67,-2.11,-4.55,1785084780984.9531
0.347,-0.274,-0.947,17.12,-2.08,-4.0,1785084780990.5657
0.342,-0.262,-0.939,18.8,-1.16,-5.25,1785084781000.581
0.343,-0.251,-0.918,18.59,-0.73,-6.68,1785084781012.5989
0.345,-0.247,-0.911,16.97,-0.55,-7.14,1785084781021.751
0.338,-0.25,-0.904,13.79,0.18,-8.09,1785084781034.7632
0.334,-0.257,-0.904,8.94,0.52,-9.25,1785084781040.0781
0.335,-0.26,-0.922,3.69,0.7,-9.89,1785084781050.136
0.329,-0.266,-0.938,0.18,1.4,-10.16,1785084781060.653
0.33,-0.279,-0.943,-1.04,1.83,-10.56,1785084781071.46
0.337,-0.286,-0.942,-0.55,2.04,-11.17,1785084781081.535
0.34,-0.282,-0.933,1.01,1.98,-11.23,1785084781091.755
0.342,-0.274,-0.916,3.48,2.14,-11.11,1785084781104.95
0.345,-0.271,-0.903,5.92,2.41,-11.38,1785084781110.828
0.355,-0.272,-0.899,8.15,2.14,-12.33,1785084781120.482
0.358,-0.26,-0.902,9.77,2.01,-12.73,1785084781131.1592
0.365,-0.246,-0.912,10.86,1.74,-11.9,1785084781141.6587
0.368,-0.233,-0.93,10.5,1.65,-11.54,1785084781155.0532
0.364,-0.229,-0.937,8.58,2.41,-11.54,1785084781160.379
0.356,-0.236,-0.936,5.92,3.51,-11.35,1785084781170.5579
0.351,-0.249,-0.915,3.69,4.58,-11.05,1785084781180.783
0.347,-0.261,-0.897,3.05,5.07,-10.9,1785084781191.339
0.351,-0.277,-0.886,3.57,4.97,-10.62,1785084781201.67
0.356,-0.284,-0.885,4.91,4.27,-10.35,1785084781215.05
0.364,-0.275,-0.886,7.26,3.45,-9.58,1785084781220.8262
0.376,-0.263,-0.896,9.95,2.69,-8.64,1785084781230.625
0.377,-0.26,-0.905,12.09,2.78,-8.33,1785084781240.646
0.377,-0.26,-0.905,12.24,3.81,-8.12,1785084781251.289
0.367,-0.245,-0.908,11.72,5.19,-7.63,1785084781261.785
0.362,-0.247,-0.897,12.67,6.07,-8.33,1785084781275.0608
0.361,-0.276,-0.878,16.85,6.29,-10.44,1785084781280.684
0.359,-0.329,-0.863,16.85,6.29,-10.44,1785084781290.966
0.355,-0.403,-0.856,25.48,5.95,-14.16,1785084781301.31
0.355,-0.459,-0.85,38.03,4.55,-18.46,1785084781311.751
0.365,-0.487,-0.86,53.29,2.35,-21.88,1785084781325.037
0.366,-0.455,-0.882,67.17,1.22,-23.74,1785084781330.449
0.371,-0.386,-0.901,75.62,1.1,-23.93,1785084781340.966
0.372,-0.319,-0.901,78.1,1.68,-23.62,1785084781351.399
0.376,-0.291,-0.892,76.48,2.29,-24.35,1785084781361.8418
0.381,-0.286,-0.881,73.09,2.62,-25.76,1785084781376.905
0.385,-0.291,-0.895,69.4,2.5,-26.28,1785084781381.151
0.382,-0.284,-0.919,63.88,2.99,-25.15,1785084781390.972
0.381,-0.281,-0.921,56.43,3.97,-22.98,1785084781401.591
0.372,-0.305,-0.911,48.8,4.82,-22.46,1785084781414.9028
0.368,-0.33,-0.886,40.89,4.94,-21.79,1785084781420.182
0.371,-0.335,-0.861,34.55,4.49,-19.71,1785084781430.614
0.375,-0.321,-0.848,29.63,3.78,-16.54,1785084781440.9448
0.378,-0.301,-0.846,25.15,2.87,-13.49,1785084781451.3862
0.378,-0.281,-0.845,19.78,2.23,-10.99,1785084781464.782
0.379,-0.267,-0.839,13.34,1.5,-8.94,1785084781470.3647
0.389,-0.262,-0.833,6.44,1.04,-6.96,1785084781485.989
0.396,-0.269,-0.83,-0.55,1.13,-5.13,1785084781490.6462
0.397,-0.283,-0.825,-6.74,1.31,-3.42,1785084781500.9082
0.395,-0.3,-0.824,-11.84,1.71,-2.17,1785084781511.317
0.39,-0.314,-0.822,-15.32,1.74,-1.19,1785084781521.7139
0.386,-0.317,-0.819,-17.49,1.62,-0.06,1785084781535.166
0.385,-0.324,-0.813,-18.49,1.31,0.52,1785084781540.607
0.387,-0.328,-0.812,-18.68,1.1,0.52,1785084781550.729
0.386,-0.335,-0.807,-17.85,1.13,0.67,1785084781561.061
0.378,-0.35,-0.792,-15.38,0.85,0.61,1785084781571.6108
0.374,-0.371,-0.781,-11.75,-0.06,-0.18,1785084781584.864
0.375,-0.377,-0.775,-7.08,-0.98,-1.01,1785084781590.154
0.381,-0.365,-0.78,-2.17,-1.86,-0.98,1785084781600.091
0.388,-0.342,-0.799,2.14,-2.81,-0.58,1785084781610.469
0.39,-0.319,-0.819,4.91,-3.23,-0.27,1785084781620.708
0.389,-0.314,-0.832,5.98,-2.99,-0.15,1785084781631.172
0.385,-0.318,-0.835,5.37,-2.35,-0.37,1785084781641.388
0.382,-0.329,-0.825,4.33,-1.95,-0.21,1785084781651.568
0.387,-0.346,-0.813,4.06,-1.89,0.09,1785084781665.3062
0.388,-0.363,-0.801,5.68,-1.98,0.27,1785084781670.3308
0.386,-0.377,-0.794,8.94,-2.38,0.0,1785084781680.5032
0.387,-0.38,-0.799,12.7,-3.05,-0.31,1785084781690.9492
0.387,-0.377,-0.81,16.51,-3.97,-0.09,1785084781701.1042
0.386,-0.374,-0.819,19.56,-4.82,0.4,1785084781711.706
