ax,ay,az,gx,gy,gz,timestamp_ms
-0.856,-0.414,-0.326,-11.63,-4.33,5.74,1785101597238.518
-0.853,-0.401,-0.323,-17.49,-5.37,3.51,1785101597238.7942
-0.847,-0.408,-0.342,-24.02,-5.86,1.16,1785101597239.036
-0.843,-0.42,-0.353,-30.55,-6.04,-1.71,1785101597239.292
-0.847,-0.422,-0.353,-36.68,-6.62,-4.06,1785101597239.5242
-0.861,-0.432,-0.284,-42.27,-7.39,-4.76,1785101597239.7717
-0.875,-0.376,-0.317,-49.26,-13.15,-2.29,1785101597240.0051
-0.78,-0.381,-0.38,-44.95,-8.76,-0.58,1785101597240.2292
-0.815,-0.447,-0.407,-38.64,-4.79,-10.1,1785101597240.4639
-0.852,-0.43,-0.374,-41.51,-5.8,-12.09,1785101597240.695
-0.841,-0.403,-0.344,-43.89,-6.74,-7.75,1785101597240.932
-0.833,-0.404,-0.348,-43.43,-5.83,-6.71,1785101597241.215
-0.835,-0.406,-0.352,-43.64,-4.88,-7.02,1785101597241.483
-0.836,-0.406,-0.332,-44.1,-5.01,-6.47,1785101597241.771
-0.836,-0.401,-0.299,-43.21,-6.44,-4.97,1785101597242.008
-0.826,-0.39,-0.286,-40.38,-7.6,-3.2,1785101597242.229
-0.823,-0.388,-0.312,-35.68,-7.39,-2.93,1785101597242.48
-0.835,-0.378,-0.344,-32.44,-7.29,-3.81,1785101597242.717
-0.84,-0.373,-0.365,-30.76,-6.87,-3.17,1785101597242.95
-0.84,-0.386,-0.376,-28.66,-5.65,-2.41,1785101597243.171
-0.839,-0.402,-0.37,-26.28,-4.7,-1.89,1785101597243.379
-0.839,-0.414,-0.352,-23.19,-4.21,-1.46,1785101597243.594
-0.84,-0.417,-0.334,-19.14,-4.21,-1.22,1785101597243.816
-0.841,-0.401,-0.313,-14.83,-4.85,-1.19,1785101597244.035
-0.839,-0.373,-0.314,-12.12,-5.34,-1.56,1785101597244.238
-0.842,-0.365,-0.325,-11.72,-5.13,-2.2,1785101597244.4492
-0.844,-0.359,-0.344,-14.13,-5.04,-2.87,1785101597244.666
-0.841,-0.368,-0.372,-17.37,-4.15,-3.66,1785101597244.873
-0.843,-0.391,-0.385,-19.99,-2.62,-5.16,1785101597245.087
-0.852,-0.415,-0.38,-21.15,-1.98,-6.68,1785101597245.2969
-0.857,-0.419,-0.361,-20.66,-2.11,-6.74,1785101597245.501
-0.856,-0.409,-0.335,-18.86,-2.56,-6.56,1785101597245.712
-0.86,-0.383,-0.298,-17.85,-3.81,-6.99,1785101597245.923
-0.855,-0.353,-0.287,-19.56,-5.55,-6.1,1785101597246.144
-0.843,-0.349,-0.307,-22.55,-5.8,-5.07,1785101597246.361
-0.843,-0.356,-0.334,-26.09,-5.22,-5.19,1785101597246.5852
-0.841,-0.355,-0.337,-29.11,-3.66,-5.19,1785101597246.874
-0.849,-0.36,-0.329,-29.73,-2.75,-5.07,1785101597247.0771
-0.842,-0.372,-0.347,-27.65,-2.01,-4.49,1785101597247.2861
-0.837,-0.384,-0.372,-23.74,-0.34,-4.58,1785101597247.51
-0.842,-0.382,-0.383,-19.23,1.28,-5.31,1785101597247.715
-0.844,-0.373,-0.383,-15.11,2.72,-5.13,1785101597247.9229
-0.843,-0.371,-0.376,-11.54,3.91,-5.04,1785101597248.137
-0.848,-0.357,-0.36,-9.34,4.49,-4.55,1785101597248.338
-0.849,-0.34,-0.34,-7.32,4.7,-3.33,1785101597248.5278
-0.854,-0.322,-0.331,-5.49,4.73,-2.2,1785101597248.7249
-0.855,-0.312,-0.338,-4.76,5.31,-1.01,1785101597248.9421
-0.851,-0.318,-0.36,-6.32,6.04,-0.24,1785101597249.1309
-0.853,-0.323,-0.386,-9.46,6.99,-0.73,1785101597249.3289
-0.862,-0.336,-0.389,-12.48,8.36,-0.95,1785101597249.549
-0.871,-0.353,-0.377,-14.13,8.88,-1.25,1785101597249.7458
-0.879,-0.362,-0.332,-14.47,8.21,-1.04,1785101597249.94
-0.884,-0.347,-0.266,-13.55,5.52,0.18,1785101597250.14
-0.876,-0.309,-0.209,-11.93,1.56,2.62,1785101597250.345
-0.852,-0.28,-0.216,-8.06,-0.46,4.91,1785101597250.5542
-0.839,-0.292,-0.253,-0.85,0.24,4.85,1785101597250.782
-0.85,-0.306,-0.337,5.98,1.07,3.39,1785101597250.9802
-0.865,-0.297,-0.398,7.6,3.14,2.66,1785101597251.1711
-0.875,-0.303,-0.416,6.1,5.8,2.5,1785101597251.387
-0.872,-0.321,-0.409,3.45,7.54,1.62,1785101597251.601
-0.871,-0.328,-0.365,0.24,7.26,1.07,1785101597251.7952
-0.863,-0.333,-0.312,-1.01,5.52,2.11,1785101597251.9941
-0.85,-0.321,-0.275,1.25,3.54,3.05,1785101597252.189
-0.84,-0.306,-0.27,5.16,1.53,2.53,1785101597252.3853
-0.834,-0.296,-0.298,6.2,0.06,0.7,1785101597252.573
-0.817,-0.275,-0.334,1.83,-0.21,-0.18,1785101597252.768
-0.805,-0.264,-0.356,-4.12,0.85,-1.43,1785101597252.9668
-0.804,-0.28,-0.369,-9.22,1.19,-3.88,1785101597253.175
-0.813,-0.296,-0.383,-12.24,1.71,-5.07,1785101597253.3828
-0.82,-0.303,-0.352,-11.99,2.04,-3.23,1785101597253.5789
-0.82,-0.309,-0.342,-8.48,0.95,-2.62,1785101597253.771
-0.822,-0.31,-0.355,-4.97,0.61,-2.69,1785101597253.96
-0.83,-0.305,-0.36,-2.99,0.37,-2.01,1785101597254.15
-0.841,-0.301,-0.355,-2.08,-0.95,-1.77,1785101597254.3362
-0.851,-0.299,-0.339,-1.43,-2.93,-1.19,1785101597254.5212
-0.858,-0.297,-0.329,-0.64,-5.13,0.85,1785101597254.7158
-0.853,-0.299,-0.347,-0.55,-6.68,2.59,1785101597254.9119
-0.856,-0.293,-0.377,-2.84,-7.02,3.39,1785101597255.096
-0.853,-0.302,-0.4,-7.35,-7.2,4.21,1785101597255.2869
-0.846,-0.323,-0.407,-12.76,-7.11,4.27,1785101597255.48
-0.841,-0.33,-0.389,-17.91,-7.75,4.52,1785101597255.668
-0.837,-0.33,-0.376,-19.38,-8.3,5.62,1785101597255.856
-0.846,-0.335,-0.363,-15.81,-8.88,5.77,1785101597256.052
-0.856,-0.321,-0.342,-11.17,-10.19,5.71,1785101597256.2407
-0.858,-0.3,-0.337,-7.81,-11.99,6.26,1785101597256.434
-0.85,-0.291,-0.349,-6.68,-13.12,7.32,1785101597256.63
-0.841,-0.289,-0.374,-9.46,-13.43,7.48,1785101597256.823
-0.834,-0.296,-0.388,-14.74,-12.73,6.68,1785101597257.014
-0.832,-0.311,-0.392,-20.17,-12.54,5.52,1785101597257.209
-0.83,-0.325,-0.398,-24.6,-11.6,4.09,1785101597257.405
-0.831,-0.34,-0.397,-26.22,-10.65,3.02,1785101597257.594
-0.842,-0.344,-0.4,-25.24,-10.53,1.59,1785101597257.804
-0.861,-0.342,-0.392,-23.07,-11.02,0.85,1785101597258.0
-0.869,-0.33,-0.372,-20.42,-11.54,0.98,1785101597258.1958
-0.877,-0.309,-0.364,-17.0,-11.78,0.79,1785101597258.385
-0.884,-0.291,-0.375,-16.05,-11.54,0.15,1785101597258.5862
-0.892,-0.289,-0.388,-18.43,-10.99,0.12,1785101597258.784
-0.89,-0.293,-0.397,-23.22,-10.22,0.15,1785101597258.9739
-0.894,-0.301,-0.405,-28.05,-9.49,-0.31,1785101597259.167
-0.898,-0.313,-0.411,-31.31,-9.06,-0.43,1785101597259.3633
-0.903,-0.322,-0.412,-32.72,-9.43,0.06,1785101597259.5479
-0.898,-0.327,-0.401,-32.47,-9.58,0.43,1785101597259.737
-0.9,-0.317,-0.386,-30.92,-10.1,-0.58,1785101597259.927
-0.902,-0.296,-0.386,-29.05,-10.74,-1.34,1785101597260.117
-0.906,-0.284,-0.379,-28.02,-10.35,-0.64,1785101597260.295
-0.896,-0.288,-0.377,-27.8,-10.47,0.52,1785101597260.485
-0.881,-0.28,-0.374,-28.78,-10.71,0.92,1785101597260.672
-0.87,-0.275,-0.386,-30.3,-10.47,0.37,1785101597260.855
-0.865,-0.286,-0.406,-31.65,-9.7,-0.85,1785101597261.041
-0.869,-0.286,-0.418,-33.05,-9.06,-2.11,1785101597261.23
-0.867,-0.276,-0.411,-34.12,-8.7,-2.38,1785101597261.454
-0.858,-0.258,-0.398,-35.62,-8.55,-2.66,1785101597261.6628
-0.851,-0.25,-0.393,-37.97,-8.64,-2.93,1785101597261.858
-0.842,-0.266,-0.401,-39.09,-8.15,-3.45,1785101597262.079
-0.843,-0.286,-0.409,-38.36,-7.29,-5.01,1785101597262.28
-0.858,-0.274,-0.397,-37.66,-7.02,-6.07,1785101597262.479
-0.858,-0.261,-0.386,-36.87,-7.11,-5.19,1785101597262.697
-0.852,-0.258,-0.392,-35.37,-6.93,-5.01,1785101597262.896
-0.846,-0.254,-0.396,-33.78,-6.01,-5.62,1785101597263.124
-0.846,-0.261,-0.392,-30.98,-4.91,-5.34,1785101597263.333
-0.852,-0.251,-0.385,-27.13,-4.0,-4.39,1785101597263.5142
-0.855,-0.239,-0.376,-23.01,-3.63,-3.33,1785101597263.78
-0.85,-0.246,-0.365,-18.28,-3.11,-2.56,1785101597263.9949
-0.855,-0.25,-0.345,-14.59,-3.36,-3.33,1785101597264.181
-0.855,-0.25,-0.345,-12.54,-4.18,-2.69,1785101597264.3872
-0.854,-0.245,-0.325,-12.02,-4.52,-2.17,1785101597264.5837
-0.851,-0.224,-0.335,-12.45,-2.53,-2.29,1785101597264.77
-0.839,-0.232,-0.378,-14.77,0.09,-3.88,1785101597264.9658
-0.855,-0.244,-0.398,-14.77,0.09,-3.88,1785101597265.1528
-0.868,-0.258,-0.394,-17.15,1.28,-4.46,1785101597265.3381
-0.872,-0.268,-0.379,-16.82,2.38,-4.21,1785101597265.534
-0.871,-0.274,-0.367,-13.06,3.39,-3.78,1785101597265.719
-0.875,-0.268,-0.336,-6.26,3.36,-3.88,1785101597265.9011
-0.874,-0.255,-0.341,1.1,2.59,-3.27,1785101597266.0889
-0.88,-0.248,-0.344,6.93,2.59,-2.14,1785101597266.269
-0.883,-0.24,-0.356,11.17,2.32,-2.08,1785101597266.4531
-0.885,-0.223,-0.379,13.06,2.96,-2.81,1785101597266.648
-0.899,-0.213,-0.397,12.7,3.45,-4.55,1785101597266.819
-0.908,-0.209,-0.391,9.09,3.14,-4.3,1785101597266.9958
-0.903,-0.187,-0.369,5.16,3.14,-3.45,1785101597267.195
-0.893,-0.19,-0.365,2.62,2.69,-3.45,1785101597267.3652
-0.88,-0.207,-0.381,0.76,2.26,-3.63,1785101597267.568
-0.888,-0.209,-0.399,-2.01,2.17,-5.13,1785101597267.748
-0.903,-0.199,-0.399,-5.07,2.08,-5.19,1785101597267.919
-0.903,-0.181,-0.391,-8.36,2.08,-4.91,1785101597268.11
-0.909,-0.162,-0.374,-12.57,1.62,-4.73,1785101597268.289
-0.915,-0.147,-0.361,-17.82,-0.12,-3.94,1785101597268.467
-0.909,-0.154,-0.367,-22.22,-1.37,-3.14,1785101597268.638
-0.9,-0.192,-0.374,-24.14,-1.56,-3.72,1785101597268.814
-0.902,-0.215,-0.37,-23.74,-1.89,-4.36,1785101597268.9878
-0.907,-0.211,-0.363,-21.21,-2.72,-2.56,1785101597269.1572
-0.91,-0.208,-0.377,-16.82,-2.93,-0.95,1785101597269.333
-0.915,-0.222,-0.39,-10.86,-2.32,-0.61,1785101597269.521
-0.921,-0.238,-0.392,-4.03,-2.23,-0.73,1785101597269.6982
-0.927,-0.238,-0.388,3.23,-2.75,-0.79,1785101597269.876
-0.926,-0.238,-0.407,10.16,-3.05,0.03,1785101597270.055
-0.917,-0.243,-0.431,15.81,-1.68,1.1,1785101597270.229
-0.913,-0.241,-0.43,20.48,0.31,1.8,1785101597270.4001
-0.913,-0.241,-0.415,25.03,1.56,2.93,1785101597270.577
-0.911,-0.234,-0.399,28.93,1.92,4.61,1785101597270.7551
-0.9,-0.224,-0.387,32.69,2.35,6.04,1785101597270.9272
-0.896,-0.215,-0.381,35.55,2.47,7.02,1785101597271.1758
-0.887,-0.216,-0.404,37.26,2.75,7.54,1785101597271.362
-0.88,-0.223,-0.434,37.39,4.85,6.93,1785101597271.5369
-0.881,-0.228,-0.452,35.31,6.81,6.5,1785101597271.719
-0.872,-0.235,-0.451,31.34,8.67,7.6,1785101597271.903
-0.866,-0.249,-0.424,27.47,9.83,9.16,1785101597272.0781
-0.862,-0.248,-0.392,23.65,9.89,11.32,1785101597272.2603
-0.853,-0.224,-0.358,19.2,9.58,13.58,1785101597272.4458
-0.865,-0.204,-0.329,14.83,7.54,14.1,1785101597272.624
-0.871,-0.192,-0.302,9.58,4.43,14.92,1785101597272.795
-0.854,-0.193,-0.304,4.61,2.11,15.69,1785101597272.9722
-0.847,-0.218,-0.353,-5.25,1.92,14.04,1785101597273.3518
-0.851,-0.248,-0.375,-9.67,1.92,12.7,1785101597273.54
-0.892,-0.268,-0.334,-2.93,0.7,-1.5,1785101597273.8992
-0.89,-0.266,-0.329,-2.9,1.19,-1.1,1785101597274.076
-0.889,-0.267,-0.325,-2.69,1.22,-0.79,1785101597276.602
-0.889,-0.265,-0.323,-2.62,0.92,-0.49,1785101597286.907
-0.887,-0.267,-0.322,-2.01,0.92,-0.03,1785101597297.28
-0.887,-0.268,-0.32,-0.79,1.07,0.31,1785101597307.61
-0.885,-0.273,-0.318,0.64,1.04,0.4,1785101597320.935
-0.886,-0.273,-0.318,1.5,0.85,0.21,1785101597326.293
-0.884,-0.271,-0.324,1.98,0.76,0.43,1785101597336.632
-0.883,-0.268,-0.323,2.38,0.79,0.85,1785101597346.918
-0.883,-0.266,-0.318,2.62,0.79,1.28,1785101597357.368
-0.884,-0.266,-0.32,3.02,0.61,1.4,1785101597367.703
-0.882,-0.277,-0.324,3.3,0.85,1.22,1785101597380.9763
-0.887,-0.278,-0.319,2.2,0.55,0.58,1785101597386.407
-0.886,-0.271,-0.32,0.64,0.03,0.61,1785101597396.712
-0.885,-0.27,-0.318,-0.24,0.15,1.04,1785101597407.027
-0.887,-0.267,-0.318,-0.37,0.03,0.89,1785101597417.433
-0.885,-0.273,-0.322,-0.15,-0.03,0.89,1785101597427.825
-0.886,-0.278,-0.323,0.76,0.24,0.52,1785101597441.109
-0.887,-0.273,-0.327,1.71,0.21,0.64,1785101597446.5781
-0.889,-0.282,-0.324,1.5,0.4,0.61,1785101597456.769
-0.89,-0.294,-0.323,2.08,0.34,0.24,1785101597467.1682
-0.89,-0.302,-0.32,3.11,0.37,-0.31,1785101597477.502
-0.888,-0.288,-0.321,3.39,0.24,-0.43,1785101597487.9968
-0.885,-0.284,-0.334,3.75,0.52,-0.21,1785101597501.2322
-0.886,-0.278,-0.345,3.69,1.07,-0.49,1785101597506.874
-0.885,-0.275,-0.355,2.93,1.74,-0.92,1785101597516.9448
-0.886,-0.279,-0.358,1.5,2.35,-1.53,1785101597527.51
-0.888,-0.284,-0.355,-0.43,2.69,-2.08,1785101597537.8672
-0.888,-0.287,-0.349,-2.47,2.66,-2.87,1785101597548.1658
-0.879,-0.29,-0.351,-4.24,2.53,-3.69,1785101597561.447
-0.87,-0.292,-0.363,-6.01,2.9,-4.82,1785101597567.071
-0.871,-0.296,-0.369,-7.84,3.6,-6.99,1785101597577.123
-0.877,-0.306,-0.367,-8.91,4.49,-9.67,1785101597587.473
-0.885,-0.316,-0.356,-8.91,5.22,-12.27,1785101597597.98
-0.893,-0.32,-0.353,-8.0,5.65,-14.4,1785101597611.126
-0.896,-0.331,-0.359,-5.74,6.26,-16.27,1785101597617.047
-0.894,-0.339,-0.363,-3.08,7.42,-18.83,1785101597627.1648
-0.893,-0.334,-0.377,-0.18,8.82,-21.91,1785101597638.072
-0.888,-0.334,-0.386,2.59,10.83,-23.87,1785101597648.178
-0.894,-0.344,-0.379,6.29,12.39,-26.43,1785101597661.449
-0.897,-0.336,-0.342,9.77,12.82,-28.93,1785101597667.436
-0.887,-0.336,-0.327,13.06,12.6,-31.34,1785101597677.771
-0.862,-0.365,-0.356,15.72,13.89,-34.91,1785101597691.026
-0.855,-0.421,-0.412,16.36,16.42,-40.89,1785101597696.9421
-0.866,-0.462,-0.444,15.41,20.36,-46.82,1785101597707.199
-0.871,-0.462,-0.479,14.68,24.63,-50.97,1785101597718.185
-0.868,-0.45,-0.504,12.54,29.36,-51.85,1785101597731.5112
-0.881,-0.45,-0.496,8.24,34.33,-53.56,1785101597737.861
-0.913,-0.492,-0.485,6.44,38.12,-59.39,1785101597747.638
-0.898,-0.538,-0.495,13.67,41.54,-67.54,1785101597758.33
-0.874,-0.514,-0.508,19.65,47.4,-75.29,1785101597771.461
-0.883,-0.532,-0.53,17.76,52.92,-81.09,1785101597777.2998
-0.894,-0.575,-0.573,10.5,56.15,-86.73,1785101597788.0042
-0.893,-0.593,-0.611,0.12,60.76,-90.55,1785101597801.437
-0.882,-0.581,-0.646,-12.12,67.08,-92.59,1785101597806.8218
-0.863,-0.65,-0.656,-22.95,72.94,-93.91,1785101597817.41
-0.867,-0.676,-0.653,-30.79,77.73,-100.13,1785101597830.8152
-0.858,-0.689,-0.664,-32.56,82.8,-105.72,1785101597836.834
-0.822,-0.751,-0.675,-28.47,88.41,-105.35,1785101597847.3752
-0.831,-0.733,-0.675,-25.51,93.97,-109.78,1785101597860.8032
-0.826,-0.677,-0.69,-24.02,99.73,-114.32,1785101597866.329
-0.815,-0.721,-0.713,-21.67,104.62,-114.11,1785101597877.381
-0.787,-0.743,-0.747,-18.95,109.53,-115.76,1785101597890.766
-0.775,-0.791,-0.775,-18.13,115.7,-117.01,1785101597896.816
-0.742,-0.8,-0.805,-19.17,121.74,-116.89,1785101597907.6018
-0.708,-0.769,-0.821,-23.19,126.99,-118.56,1785101597921.302
-0.681,-0.756,-0.832,-29.57,130.16,-122.56,1785101597927.041
-0.633,-0.746,-0.814,-37.69,134.1,-123.2,1785101597937.9539
-0.594,-0.674,-0.826,-41.23,137.42,-122.75,1785101597951.3481
-0.54,-0.682,-0.822,-43.76,140.51,-121.71,1785101597957.385
-0.49,-0.717,-0.819,-45.14,142.89,-123.84,1785101597970.625
-0.454,-0.749,-0.846,-42.36,145.12,-126.32,1785101597976.4968
-0.439,-0.753,-0.877,-39.19,147.74,-127.84,1785101597987.766
-0.435,-0.709,-0.875,-39.55,149.48,-128.33,1785101598001.0781
-0.402,-0.7,-0.898,-40.74,151.13,-127.14,1785101598006.72
-0.367,-0.7,-0.888,-45.05,152.99,-126.93,1785101598017.8362
-0.33,-0.673,-0.882,-49.87,153.45,-126.53,1785101598031.02
-0.277,-0.678,-0.896,-52.34,154.73,-126.01,1785101598037.366
-0.253,-0.687,-0.895,-56.28,156.07,-127.78,1785101598047.9648
-0.224,-0.701,-0.937,-60.43,157.14,-128.94,1785101598061.447
-0.198,-0.723,-0.957,-64.39,159.79,-129.52,1785101598067.1292
-0.19,-0.69,-0.911,-68.12,161.23,-130.28,1785101598080.831
-0.147,-0.646,-0.867,-66.56,160.77,-128.3,1785101598086.768
-0.083,-0.622,-0.865,-62.59,160.16,-127.05,1785101598097.7622
-0.07,-0.556,-0.816,-61.77,159.43,-129.22,1785101598110.8423
-0.052,-0.547,-0.876,-63.02,159.55,-128.42,1785101598116.8252
-0.008,-0.49,-0.874,-69.37,158.48,-125.03,1785101598128.0078
0.025,-0.483,-0.907,-73.55,158.67,-123.17,1785101598141.3372
0.039,-0.504,-0.901,-81.73,160.41,-120.64,1785101598147.274
0.062,-0.547,-0.909,-88.5,160.71,-117.31,1785101598158.25
0.073,-0.581,-0.876,-91.22,160.53,-116.0,1785101598171.531
0.083,-0.539,-0.838,-91.83,158.12,-114.54,1785101598177.403
0.127,-0.498,-0.853,-89.94,156.83,-109.65,1785101598190.738
0.159,-0.468,-0.855,-88.81,156.41,-105.41,1785101598196.707
0.188,-0.452,-0.876,-86.37,155.49,-103.27,1785101598207.614
0.204,-0.472,-0.912,-83.59,156.19,-103.06,1785101598221.091
0.205,-0.467,-0.867,-84.87,156.8,-102.63,1785101598226.9238
0.222,-0.44,-0.804,-86.31,154.55,-100.13,1785101598238.107
0.251,-0.392,-0.763,-86.89,151.34,-96.47,1785101598251.2053
0.285,-0.367,-0.81,-86.89,149.05,-93.3,1785101598257.2788
0.293,-0.347,-0.816,-89.27,148.5,-93.08,1785101598267.9072
0.293,-0.319,-0.833,-92.01,146.46,-91.53,1785101598281.15
0.321,-0.318,-0.812,-93.39,146.67,-87.68,1785101598287.2378
0.335,-0.281,-0.731,-93.69,144.02,-85.33,1785101598298.044
0.374,-0.25,-0.719,-90.06,141.03,-82.77,1785101598311.136
0.391,-0.233,-0.687,-86.7,138.92,-80.84,1785101598317.412
0.396,-0.22,-0.697,-84.57,135.81,-79.07,1785101598327.7969
0.4,-0.221,-0.682,-83.93,133.7,-77.24,1785101598341.113
0.402,-0.229,-0.657,-83.5,130.07,-74.68,1785101598347.146
0.429,-0.238,-0.641,-81.73,126.9,-71.41,1785101598357.9377
0.442,-0.225,-0.57,-78.01,122.71,-69.49,1785101598371.1958
0.468,-0.191,-0.551,-70.71,116.76,-67.26,1785101598377.168
0.496,-0.178,-0.556,-62.53,113.47,-65.46,1785101598387.704
0.493,-0.151,-0.529,-56.61,109.41,-65.55,1785101598401.3599
0.5,-0.113,-0.553,-51.79,104.59,-64.52,1785101598406.772
0.503,-0.088,-0.538,-49.35,101.84,-62.65,1785101598417.8628
0.502,-0.056,-0.509,-48.4,97.69,-60.49,1785101598430.9968
0.513,-0.044,-0.497,-46.91,94.03,-57.37,1785101598437.08
0.513,-0.04,-0.459,-46.57,90.27,-54.75,1785101598447.5798
0.528,-0.032,-0.461,-46.6,85.45,-51.73,1785101598458.033
0.528,-0.032,-0.461,-45.53,82.43,-49.17,1785101598471.518
0.548,-0.043,-0.474,-44.34,78.92,-47.88,1785101598477.023
0.557,-0.036,-0.442,-40.96,75.14,-45.78,1785101598487.9128
0.591,-0.025,-0.442,-36.71,71.93,-43.92,1785101598501.2532
0.609,-0.019,-0.406,-32.5,67.26,-42.05,1785101598506.937
0.621,-0.007,-0.395,-32.5,67.26,-42.05,1785101598517.637
0.639,0.0,-0.404,-29.51,63.94,-39.37,1785101598528.275
0.643,0.015,-0.371,-27.89,60.46,-37.23,1785101598541.74
0.667,0.025,-0.369,-24.29,56.31,-34.61,1785101598547.452
0.684,0.044,-0.349,-19.68,52.71,-32.81,1785101598557.968
0.698,0.077,-0.353,-14.53,48.92,-31.5,1785101598571.291
0.709,0.088,-0.386,-10.41,46.82,-30.55,1785101598577.208
0.705,0.092,-0.393,-10.19,44.95,-29.88,1785101598587.748
0.717,0.109,-0.374,-12.15,41.9,-28.08,1785101598601.096
0.744,0.112,-0.374,-12.12,39.03,-24.87,1785101598606.601
0.762,0.113,-0.368,-11.17,36.74,-22.25,1785101598617.394
0.78,0.104,-0.371,-9.74,34.73,-20.57,1785101598627.771
0.798,0.104,-0.356,-8.09,32.35,-19.65,1785101598641.122
0.819,0.105,-0.344,-5.01,29.91,-18.13,1785101598647.1172
0.828,0.121,-0.341,-1.22,27.5,-17.0,1785101598657.3848
0.835,0.135,-0.35,1.95,25.27,-15.72,1785101598667.777
0.832,0.151,-0.345,3.91,23.29,-14.98,1785101598681.0242
0.842,0.155,-0.357,5.04,21.45,-14.25,1785101598687.252
0.833,0.161,-0.348,5.62,19.44,-13.7,1785101598697.354
0.845,0.17,-0.36,7.11,17.12,-11.38,1785101598707.768
0.862,0.188,-0.365,8.06,16.6,-9.83,1785101598721.088
0.902,0.191,-0.372,7.35,14.56,-10.99,1785101598727.0642
0.813,0.212,-0.382,6.16,12.18,-12.45,1785101598737.408
0.883,0.157,-0.368,5.65,11.29,-3.57,1785101598747.743
0.922,0.195,-0.374,6.99,10.41,-4.97,1785101598758.2021
0.897,0.211,-0.368,9.52,10.1,-6.99,1785101598771.497
0.929,0.195,-0.366,8.64,7.9,-4.97,1785101598777.208
0.946,0.205,-0.378,7.17,6.38,-5.16,1785101598787.075
0.898,0.211,-0.406,6.01,7.11,-6.32,1785101598797.496
0.926,0.208,-0.386,3.42,8.36,-5.4,1785101598808.0662
0.96,0.224,-0.399,4.91,5.62,-5.31,1785101598821.18
0.906,0.198,-0.414,4.79,6.5,-4.91,1785101598826.533
0.912,0.21,-0.406,2.78,6.04,-3.88,1785101598837.038
0.968,0.192,-0.41,3.11,6.65,-3.02,1785101598847.273
0.934,0.209,-0.407,3.42,7.51,-6.23,1785101598857.707
0.954,0.22,-0.395,3.81,6.99,-5.95,1785101598868.032
0.941,0.24,-0.38,3.36,6.93,-6.1,1785101598881.482
0.941,0.214,-0.389,3.57,7.08,-3.72,1785101598886.982
0.926,0.211,-0.394,2.38,7.14,-4.36,1785101598897.043
0.912,0.222,-0.383,0.31,6.78,-4.24,1785101598907.297
0.924,0.207,-0.367,-0.98,6.29,-1.89,1785101598917.608
0.926,0.209,-0.36,-1.74,5.55,-2.11,1785101598928.1301
0.921,0.204,-0.381,-2.38,5.22,-2.35,1785101598941.3792
0.909,0.196,-0.379,-3.94,5.34,-2.59,1785101598947.051
0.914,0.19,-0.382,-4.85,4.67,-2.41,1785101598956.888
0.923,0.175,-0.388,-4.82,4.55,-2.2,1785101598967.425
0.919,0.174,-0.376,-4.64,4.06,-2.23,1785101598977.8318
0.918,0.176,-0.367,-4.24,3.6,-1.86,1785101598988.2458
0.917,0.174,-0.37,-4.09,3.36,-1.8,1785101599001.6838
0.914,0.168,-0.37,-3.72,3.11,-2.29,1785101599006.733
0.916,0.173,-0.35,-3.08,2.29,-3.05,1785101599017.1467
0.924,0.191,-0.328,-1.86,0.61,-2.84,1785101599027.515
0.924,0.209,-0.328,-0.46,-0.82,-2.26,1785101599037.9697
0.917,0.217,-0.325,-0.21,-1.86,-2.35,1785101599051.157
0.912,0.23,-0.334,-1.56,-3.27,-1.98,1785101599056.876
0.914,0.223,-0.349,-3.02,-3.75,-0.73,1785101599066.657
0.915,0.227,-0.336,-4.61,-4.61,-0.34,1785101599077.14
0.925,0.221,-0.327,-4.52,-5.83,0.79,1785101599087.488
0.932,0.222,-0.314,-3.6,-7.2,2.14,1785101599097.949
0.937,0.241,-0.31,-2.41,-9.06,3.3,1785101599111.0588
0.944,0.248,-0.329,-1.5,-10.04,4.43,1785101599116.738
0.947,0.25,-0.33,-2.47,-10.74,4.58,1785101599126.82
0.967,0.234,-0.36,-4.12,-11.02,5.19,1785101599137.67
0.97,0.22,-0.354,-6.35,-10.28,5.68,1785101599147.866
0.983,0.224,-0.331,-6.87,-10.83,6.74,1785101599161.237
0.996,0.249,-0.299,-4.85,-12.27,8.27,1785101599167.0542
0.996,0.283,-0.263,-2.23,-14.37,9.67,1785101599177.226
0.997,0.323,-0.277,-0.92,-16.57,10.74,1785101599187.816
0.985,0.319,-0.335,-2.5,-16.21,11.29,1785101599201.1033
0.97,0.307,-0.341,-8.42,-15.56,10.71,1785101599206.507
0.998,0.283,-0.368,-13.28,-15.99,11.29,1785101599217.1719
1.009,0.25,-0.368,-15.53,-15.23,11.66,1785101599227.894
1.029,0.252,-0.333,-15.41,-16.05,12.33,1785101599241.211
1.066,0.272,-0.288,-12.54,-17.88,14.19,1785101599247.1108
1.09,0.289,-0.253,-8.36,-19.84,16.3,1785101599257.527
1.091,0.303,-0.236,-5.28,-21.94,17.85,1785101599267.93
1.063,0.305,-0.276,-4.82,-24.23,19.41,1785101599281.568
1.02,0.272,-0.334,-7.29,-23.5,19.84,1785101599286.9119
0.995,0.256,-0.343,-13.86,-23.38,19.65,1785101599297.622
1.001,0.221,-0.385,-18.74,-24.32,21.12,1785101599308.121
0.99,0.181,-0.394,-20.39,-23.71,21.42,1785101599322.413
1.019,0.174,-0.347,-19.5,-24.99,21.76,1785101599327.092
1.076,0.19,-0.306,-14.95,-28.08,23.26,1785101599338.1008
1.085,0.194,-0.296,-8.18,-30.46,24.2,1785101599351.072
1.058,0.202,-0.295,-3.57,-32.78,24.45,1785101599356.938
1.037,0.219,-0.306,-3.2,-36.07,25.54,1785101599367.43
0.987,0.188,-0.377,-5.8,-38.15,27.28,1785101599378.388
0.92,0.158,-0.4,-9.74,-37.05,26.12,1785101599391.27
0.91,0.137,-0.406,-11.9,-38.97,26.15,1785101599397.137
0.922,0.117,-0.408,-11.54,-41.26,27.95,1785101599407.452
0.93,0.117,-0.379,-8.82,-43.98,29.36,1785101599418.066
0.95,0.134,-0.353,-3.6,-48.4,30.76,1785101599431.5032
0.961,0.16,-0.352,0.92,-53.13,32.32,1785101599437.0
0.948,0.177,-0.357,2.35,-57.13,34.52,1785101599447.561
0.913,0.18,-0.39,1.31,-60.76,37.11,1785101599458.1099
0.85,0.154,-0.47,-1.31,-62.2,39.06,1785101599471.2961
0.794,0.12,-0.5,-6.9,-61.8,39.49,1785101599476.9248
0.792,0.085,-0.49,-12.54,-64.03,39.64,1785101599487.714
0.817,0.047,-0.472,-13.49,-67.11,40.86,1785101599501.0837
0.786,0.044,-0.462,-10.8,-74.19,41.69,1785101599506.7397
0.784,0.06,-0.456,-3.97,-78.86,43.64,1785101599517.278
0.784,0.04,-0.469,4.55,-79.99,45.47,1785101599527.6301
0.768,0.034,-0.488,10.25,-84.63,46.6,1785101599541.1682
0.741,0.053,-0.513,11.81,-92.68,48.86,1785101599547.0322
0.685,0.06,-0.559,12.42,-95.31,51.18,1785101599557.569
0.629,0.039,-0.607,11.17,-94.97,52.8,1785101599567.9849
0.593,0.02,-0.637,8.03,-97.63,53.1,1785101599581.4531
0.571,0.015,-0.647,4.85,-101.69,54.72,1785101599587.5999
0.574,0.037,-0.645,2.69,-104.89,57.04,1785101599597.7988
0.586,0.056,-0.651,1.01,-108.49,59.54,1785101599611.035
0.585,0.048,-0.661,-0.76,-113.25,60.76,1785101599616.8142
0.565,0.012,-0.675,-1.65,-117.4,61.01,1785101599627.537
0.529,-0.041,-0.696,-0.12,-120.27,61.46,1785101599638.0952
0.481,-0.087,-0.714,3.3,-122.53,63.14,1785101599651.479
0.399,-0.122,-0.751,7.66,-124.88,67.96,1785101599657.397
0.338,-0.167,-0.794,9.55,-126.65,73.98,1785101599667.723
0.326,-0.195,-0.809,9.98,-129.4,76.78,1785101599680.9768
0.343,-0.194,-0.815,12.24,-133.12,78.71,1785101599687.295
0.337,-0.178,-0.832,17.43,-135.72,79.1,1785101599697.789
0.299,-0.167,-0.849,22.77,-136.54,76.82,1785101599710.904
0.266,-0.197,-0.845,26.61,-137.52,73.0,1785101599716.831
0.214,-0.221,-0.869,28.9,-140.35,69.22,1785101599727.71
0.148,-0.161,-0.95,23.5,-141.94,71.47,1785101599740.991
0.103,-0.134,-1.004,10.1,-141.64,75.96,1785101599746.9229
0.103,-0.134,-1.004,-3.39,-140.26,75.75,1785101599757.497
0.094,-0.143,-1.022,-11.14,-136.51,74.62,1785101599770.9119
0.109,-0.191,-1.012,-9.83,-132.66,71.32,1785101599776.793
0.134,-0.25,-0.973,0.67,-128.18,65.46,1785101599787.178
0.138,-0.311,-0.941,15.99,-122.9,58.9,1785101599798.108
0.092,-0.321,-0.97,15.99,-122.9,58.9,1785101599811.2742
0.062,-0.254,-1.053,23.93,-113.83,60.76,1785101599817.3591
0.08,-0.198,-1.112,18.89,-101.17,66.99,1785101599827.866
0.114,-0.139,-1.125,5.89,-86.34,72.39,1785101599841.4111
0.167,-0.163,-1.061,-3.81,-72.3,75.62,1785101599847.271
0.205,-0.208,-0.998,-3.36,-61.59,72.54,1785101599857.545
0.192,-0.226,-0.973,5.31,-53.07,67.93,1785101599867.926
0.181,-0.268,-0.959,15.5,-46.78,62.62,1785101599881.258
0.176,-0.334,-0.983,24.14,-41.75,53.77,1785101599887.468
0.174,-0.408,-1.006,34.24,-35.98,44.37,1785101599897.792
0.184,-0.441,-1.026,46.78,-30.24,35.43,1785101599911.0432
0.203,-0.401,-1.066,56.67,-23.65,28.84,1785101599917.143
0.209,-0.332,-1.075,59.24,-15.93,23.47,1785101599927.354
0.226,-0.282,-1.06,55.06,-9.67,16.14,1785101599938.076
0.228,-0.222,-1.034,47.73,-4.73,8.55,1785101599951.309
0.229,-0.204,-0.965,42.73,-1.16,4.15,1785101599957.163
0.235,-0.203,-0.926,40.71,-0.98,-0.37,1785101599967.194
0.237,-0.168,-0.933,38.06,-2.47,-2.93,1785101599977.696
0.222,-0.145,-0.952,34.27,-3.39,-3.57,1785101599988.0261
0.207,-0.159,-0.979,27.13,-3.14,-5.37,1785101600001.617
0.192,-0.183,-0.985,16.45,-2.29,-7.93,1785101600006.925
0.179,-0.189,-0.973,5.16,-2.32,-8.73,1785101600017.275
0.181,-0.194,-0.953,-3.85,-3.23,-7.66,1785101600027.452
0.199,-0.21,-0.918,-10.28,-4.79,-6.26,1785101600037.897
0.201,-0.215,-0.947,-15.2,-7.17,-4.97,1785101600051.204
0.213,-0.199,-0.976,-20.66,-7.72,-2.11,1785101600057.445
0.227,-0.2,-0.991,-26.43,-7.72,-0.49,1785101600067.3862
0.227,-0.193,-0.987,-31.68,-6.99,-0.12,1785101600077.648
0.232,-0.191,-0.966,-34.91,-6.32,0.64,1785101600088.2869
0.243,-0.203,-0.95,-36.07,-5.62,0.95,1785101600101.346
0.256,-0.216,-0.941,-35.92,-5.71,0.89,1785101600106.9583
0.262,-0.222,-0.939,-35.13,-5.86,1.01,1785101600117.2732
0.261,-0.229,-0.936,-33.78,-5.55,1.56,1785101600127.869
0.262,-0.239,-0.935,-31.13,-4.85,1.56,1785101600141.1682
0.255,-0.246,-0.934,-27.07,-3.85,0.89,1785101600146.965
0.25,-0.248,-0.927,-21.88,-2.9,0.27,1785101600157.096
0.247,-0.242,-0.916,-16.02,-2.44,-0.34,1785101600167.5461
0.239,-0.226,-0.911,-10.07,-2.87,-0.79,1785101600178.05
0.229,-0.209,-0.918,-5.28,-3.48,-0.98,1785101600191.2188
0.217,-0.195,-0.932,-2.75,-3.78,-0.46,1785101600196.8691
0.205,-0.192,-0.945,-2.14,-3.85,0.43,1785101600206.794
0.202,-0.197,-0.938,-1.86,-3.81,1.56,1785101600217.268
0.209,-0.205,-0.931,-0.85,-4.58,2.53,1785101600227.452
0.205,-0.213,-0.93,0.67,-4.79,3.54,1785101600237.933
0.206,-0.216,-0.93,2.2,-5.13,4.33,1785101600251.2979
0.21,-0.211,-0.941,3.6,-5.34,4.24,1785101600256.9412
0.201,-0.207,-0.947,5.19,-5.31,3.94,1785101600266.8271
0.193,-0.204,-0.944,6.59,-5.58,3.88,1785101600277.2239
0.183,-0.197,-0.944,6.99,-6.26,4.15,1785101600287.745
0.175,-0.2,-0.952,6.01,-6.71,4.73,1785101600298.086
0.172,-0.211,-0.958,3.72,-6.62,5.04,1785101600311.199
0.174,-0.224,-0.962,1.83,-5.95,4.85,1785101600316.915
0.177,-0.242,-0.961,1.77,-5.43,4.79,1785101600327.101
0.184,-0.25,-0.97,2.53,-5.43,4.82,1785101600337.5051
0.185,-0.241,-0.976,3.54,-5.25,4.55,1785101600347.798
0.187,-0.238,-0.977,4.76,-5.01,4.43,1785101600358.1812
0.184,-0.236,-0.98,5.19,-4.06,3.75,1785101600371.4348
0.182,-0.22,-0.969,4.64,-3.33,3.63,1785101600377.076
0.185,-0.21,-0.971,4.03,-3.51,3.6,1785101600386.911
0.176,-0.207,-0.971,2.84,-3.11,2.9,1785101600397.441
0.175,-0.21,-0.967,1.13,-2.78,2.08,1785101600407.9082
0.185,-0.214,-0.975,-0.58,-3.05,1.56,1785101600421.3362
0.189,-0.22,-0.992,-2.14,-2.72,1.25,1785101600426.795
0.191,-0.231,-0.995,-3.81,-1.95,1.4,1785101600436.852
0.199,-0.239,-0.986,-5.43,-1.68,1.74,1785101600447.052
0.215,-0.236,-0.978,-6.16,-1.62,1.53,1785101600457.559
0.227,-0.224,-0.97,-5.86,-1.34,1.34,1785101600467.8882
0.239,-0.208,-0.963,-4.97,-1.1,1.25,1785101600481.2578
0.243,-0.195,-0.96,-4.79,-1.13,0.76,1785101600486.8481
0.242,-0.194,-0.959,-5.89,-1.37,0.34,1785101600496.933
0.237,-0.2,-0.953,-7.51,-1.56,-0.12,1785101600507.168
0.232,-0.205,-0.951,-8.39,-1.71,-0.27,1785101600517.664
0.22,-0.208,-0.952,-8.27,-1.92,-0.12,1785101600527.794
0.21,-0.206,-0.952,-8.18,-2.44,0.27,1785101600541.344
0.202,-0.21,-0.951,-8.24,-2.84,0.73,1785101600546.9438
0.193,-0.213,-0.946,-8.15,-3.14,1.56,1785101600557.049
0.187,-0.204,-0.946,-8.03,-3.69,2.75,1785101600567.1943
0.181,-0.2,-0.953,-8.15,-4.0,4.0,1785101600577.7048
0.17,-0.2,-0.958,-8.73,-3.94,5.01,1785101600588.0178
0.167,-0.204,-0.956,-8.76,-4.3,6.07,1785101600601.597
0.165,-0.203,-0.957,-8.27,-4.55,6.5,1785101600606.846
0.162,-0.205,-0.958,-7.23,-4.3,6.53,1785101600616.987
0.168,-0.213,-0.96,-6.07,-4.0,6.32,1785101600627.1912
0.173,-0.221,-0.964,-4.61,-3.48,5.68,1785101600637.826
0.174,-0.24,-0.961,-2.62,-2.29,5.16,1785101600648.184
0.177,-0.248,-0.954,0.4,-1.53,4.58,1785101600661.4348
0.19,-0.233,-0.953,3.72,-1.68,4.52,1785101600666.802
0.21,-0.209,-0.967,6.32,-1.5,4.64,1785101600676.964
0.222,-0.19,-0.977,7.05,-0.92,4.61,1785101600687.573
0.214,-0.178,-0.974,6.04,-0.09,4.15,1785101600697.812
0.197,-0.178,-0.952,4.3,0.21,3.72,1785101600708.072
0.205,-0.174,-0.948,1.98,-1.01,3.42,1785101600721.532
0.202,-0.167,-0.956,-1.04,-1.8,3.66,1785101600727.0889
0.193,-0.174,-0.953,-4.06,-2.11,4.39,1785101600737.0989
0.193,-0.185,-0.949,-6.93,-3.11,5.04,1785101600747.6743
0.192,-0.194,-0.962,-9.7,-4.79,5.58,1785101600757.771
0.196,-0.191,-0.982,-12.54,-5.86,6.29,1785101600770.967
0.197,-0.184,-0.983,-14.74,-5.89,7.35,1785101600776.7097
0.199,-0.185,-0.982,-15.9,-5.71,7.9,1785101600787.019
0.203,-0.189,-0.988,-16.88,-5.62,7.78,1785101600797.607
0.199,-0.203,-0.988,-17.76,-5.34,7.66,1785101600807.852
0.195,-0.223,-0.984,-18.01,-4.52,7.11,1785101600821.498
0.196,-0.235,-0.987,-17.37,-4.09,6.13,1785101600826.7979
0.194,-0.238,-0.991,-15.75,-3.6,5.16,1785101600837.2942
0.187,-0.247,-0.991,-12.88,-2.81,3.72,1785101600847.5698
0.177,-0.25,-0.99,-9.34,-2.11,2.01,1785101600857.989
0.171,-0.258,-0.993,-5.52,-1.22,0.89,1785101600871.424
0.168,-0.27,-0.993,-1.56,0.09,-0.79,1785101600876.687
0.162,-0.272,-0.988,2.75,1.01,-2.72,1785101600887.033
0.162,-0.262,-0.984,7.54,1.4,-3.94,1785101600897.381
0.168,-0.246,-0.986,12.45,1.89,-4.88,1785101600907.676
0.165,-0.238,-0.99,16.91,2.84,-6.5,1785101600921.084
0.164,-0.243,-0.995,20.36,3.54,-8.55,1785101600926.94
0.164,-0.248,-0.998,22.74,4.0,-10.38,1785101600936.975
0.164,-0.251,-0.993,24.81,4.58,-11.26,1785101600947.6821
0.171,-0.246,-0.982,27.1,4.85,-11.75,1785101600958.341
0.179,-0.226,-0.98,28.53,5.07,-12.42,1785101600971.528
0.182,-0.203,-0.987,28.44,5.25,-12.36,1785101600977.494
0.186,-0.191,-0.994,26.58,5.49,-11.96,1785101600987.565
0.188,-0.19,-0.988,23.47,5.46,-12.05,1785101600998.245
0.189,-0.193,-0.977,20.17,5.13,-12.45,1785101601011.3389
0.195,-0.196,-0.977,16.72,4.76,-12.6,1785101601017.204
0.2,-0.191,-0.972,13.0,4.46,-12.21,1785101601027.4717
0.2,-0.191,-0.972,9.49,4.15,-11.51,1785101601038.066
0.206,-0.192,-0.967,6.38,3.66,-11.23,1785101601051.444
0.212,-0.205,-0.959,3.3,2.87,-10.86,1785101601057.106
0.214,-0.212,-0.958,0.82,2.47,-9.46,1785101601067.1519
0.209,-0.207,-0.957,-1.28,2.35,-8.06,1785101601077.431
0.208,-0.204,-0.958,-1.28,2.35,-8.06,1785101601088.1128
0.208,-0.204,-0.959,-3.57,2.5,-7.54,1785101601101.4998
0.203,-0.201,-0.955,-6.53,2.53,-7.05,1785101601106.549
0.204,-0.202,-0.947,-9.13,2.23,-6.23,1785101601116.81
0.204,-0.2,-0.949,-11.05,1.92,-5.58,1785101601127.303
0.204,-0.196,-0.948,-12.94,1.56,-5.22,1785101601137.8591
0.206,-0.202,-0.947,-14.92,1.34,-4.76,1785101601151.118
0.205,-0.217,-0.949,-16.24,1.4,-4.91,1785101601157.0352
0.203,-0.233,-0.949,-16.27,1.68,-5.58,1785101601166.846
0.2,-0.243,-0.944,-15.08,1.71,-6.26,1785101601177.5562
0.196,-0.24,-0.941,-12.79,1.71,-6.71,1785101601188.061
0.196,-0.24,-0.944,-9.46,2.23,-7.48,1785101601201.426
0.192,-0.249,-0.942,-5.28,2.99,-9.43,1785101601206.6199
0.184,-0.255,-0.935,-0.27,3.48,-11.23,1785101601217.4531
0.185,-0.255,-0.939,4.91,3.6,-11.96,1785101601227.566
0.184,-0.254,-0.945,9.74,4.0,-12.36,1785101601238.0513
0.186,-0.258,-0.955,13.7,4.24,-12.97,1785101601251.0889
0.186,-0.257,-0.97,16.66,4.58,-13.86,1785101601256.958
0.187,-0.247,-0.968,19.1,4.79,-14.16,1785101601267.273
0.2,-0.236,-0.963,21.79,4.43,-14.4,1785101601277.917
0.205,-0.224,-0.969,23.99,4.67,-14.89,1785101601292.34
0.203,-0.211,-0.97,24.66,5.19,-15.32,1785101601296.9102
0.212,-0.203,-0.966,23.44,5.37,-15.47,1785101601307.424
0.22,-0.199,-0.966,20.84,5.25,-15.5,1785101601318.05
0.223,-0.196,-0.97,17.21,4.85,-15.17,1785101601331.054
0.22,-0.193,-0.97,13.31,4.39,-14.4,1785101601336.95
0.219,-0.196,-0.963,9.7,3.85,-13.64,1785101601347.31
0.223,-0.198,-0.96,6.29,3.23,-13.12,1785101601357.7778
0.227,-0.214,-0.951,3.91,2.87,-13.0,1785101601368.246
0.231,-0.234,-0.941,2.38,2.69,-13.58,1785101601381.627
0.229,-0.241,-0.94,1.25,2.53,-13.79,1785101601387.005
0.225,-0.235,-0.939,0.85,2.32,-13.21,1785101601397.4631
0.223,-0.223,-0.939,0.92,2.11,-12.6,1785101601407.678
0.224,-0.213,-0.943,0.64,1.89,-12.27,1785101601421.2742
0.226,-0.208,-0.949,-0.76,2.08,-12.05,1785101601426.613
0.226,-0.2,-0.941,-3.33,2.14,-11.14,1785101601437.105
0.23,-0.193,-0.936,-6.07,1.86,-9.8,1785101601447.3547
0.232,-0.188,-0.932,-8.24,1.83,-8.67,1785101601457.824
0.228,-0.189,-0.938,-9.86,1.89,-7.78,1785101601468.222
0.224,-0.197,-0.94,-11.32,2.2,-7.02,1785101601481.964
0.225,-0.208,-0.939,-12.85,2.38,-6.65,1785101601487.364
0.231,-0.217,-0.94,-13.55,2.41,-6.47,1785101601497.511
0.229,-0.225,-0.936,-12.76,2.53,-6.1,1785101601507.716
0.227,-0.23,-0.94,-10.41,2.78,-5.8,1785101601521.0837
0.227,-0.24,-0.938,-6.84,3.6,-6.32,1785101601526.895
0.225,-0.246,-0.922,-2.81,4.43,-7.57,1785101601536.814
0.228,-0.245,-0.913,1.92,5.1,-8.64,1785101601547.12
0.226,-0.243,-0.911,7.2,5.71,-9.55,1785101601557.6948
0.226,-0.243,-0.912,11.72,6.2,-11.11,1785101601568.194
0.224,-0.24,-0.913,15.05,6.62,-13.09,1785101601581.808
0.223,-0.242,-0.927,17.52,7.11,-14.98,1785101601587.1438
0.221,-0.249,-0.943,19.59,8.42,-16.91,1785101601597.6948
0.217,-0.259,-0.94,22.31,10.16,-19.56,1785101601610.965
0.223,-0.257,-0.93,25.24,11.35,-22.46,1785101601616.859
0.221,-0.24,-0.924,28.38,11.72,-24.72,1785101601627.442
0.215,-0.214,-0.915,31.04,11.35,-25.91,1785101601637.9688
0.219,-0.187,-0.924,30.82,10.53,-26.52,1785101601651.339
0.222,-0.163,-0.93,26.37,9.43,-26.22,1785101601657.0781
0.226,-0.155,-0.927,18.83,8.21,-25.27,1785101601667.424
0.228,-0.171,-0.925,11.05,7.35,-24.05,1785101601677.988
0.235,-0.199,-0.914,5.16,6.5,-23.19,1785101601691.4182
0.243,-0.225,-0.903,1.74,5.52,-22.89,1785101601697.1892
0.248,-0.233,-0.891,-0.46,3.94,-22.71,1785101601707.189
0.251,-0.225,-0.901,-1.71,2.01,-22.13,1785101601717.582
0.251,-0.213,-0.91,-3.27,0.15,-21.39,1785101601728.1511
0.253,-0.202,-0.922,-5.77,-1.83,-20.36,1785101601741.635
0.252,-0.201,-0.938,-9.03,-3.2,-19.26,1785101601747.279
0.255,-0.224,-0.946,-11.57,-3.54,-18.16,1785101601757.536
0.256,-0.255,-0.958,-13.49,-2.41,-17.85,1785101601767.909
0.254,-0.285,-0.944,-13.58,-0.79,-18.07,1785101601781.4897
0.267,-0.306,-0.931,-10.22,0.31,-18.22,1785101601787.3862
0.275,-0.304,-0.933,-4.55,0.49,-18.46,1785101601797.386
0.281,-0.278,-0.931,1.43,0.55,-18.89,1785101601807.7432
0.283,-0.246,-0.953,5.95,0.4,-20.26,1785101601821.172
0.287,-0.209,-0.966,6.81,0.95,-21.55,1785101601826.593
0.281,-0.186,-0.973,5.49,1.68,-22.52,1785101601837.147
0.273,-0.168,-0.98,3.63,3.08,-22.83,1785101601847.511
0.268,-0.157,-0.973,1.16,4.39,-22.55,1785101601858.06
0.266,-0.158,-0.962,-1.77,5.37,-22.34,1785101601871.873
0.269,-0.16,-0.93,-4.97,6.29,-22.06,1785101601876.802
0.274,-0.166,-0.915,-7.29,6.53,-21.55,1785101601887.244
0.278,-0.168,-0.918,-9.16,6.9,-20.63,1785101601897.665
0.272,-0.157,-0.929,-11.17,6.81,-19.01,1785101601908.0051
0.268,-0.165,-0.949,-12.63,6.87,-17.09,1785101601921.3518
0.265,-0.188,-0.966,-14.25,7.75,-16.21,1785101601927.262
0.262,-0.206,-0.952,-15.78,8.94,-15.96,1785101601937.6562
0.273,-0.218,-0.931,-15.5,9.4,-15.41,1785101601948.184
0.279,-0.223,-0.921,-12.76,9.49,-15.14,1785101601961.4949
0.285,-0.217,-0.91,-8.36,9.34,-15.81,1785101601967.415
0.293,-0.206,-0.897,-3.2,8.48,-17.3,1785101601977.538
0.293,-0.206,-0.906,1.68,7.9,-19.47,1785101601987.9092
0.28,-0.21,-0.909,5.28,8.33,-22.19,1785101602001.313
0.273,-0.208,-0.907,7.78,8.58,-24.29,1785101602006.745
0.266,-0.21,-0.913,10.41,9.37,-24.78,1785101602017.123
0.259,-0.218,-0.916,13.15,10.77,-24.78,1785101602027.749
0.248,-0.228,-0.923,16.14,12.73,-25.06,1785101602041.04
0.229,-0.237,-0.915,19.35,15.53,-25.36,1785101602047.064
0.221,-0.238,-0.885,22.13,17.61,-26.58,1785101602057.622
0.229,-0.23,-0.853,23.96,18.07,-28.72,1785101602068.105
0.225,-0.236,-0.835,25.88,17.79,-31.59,1785101602081.3398
0.203,-0.239,-0.816,27.65,17.43,-35.25,1785101602087.616
0.183,-0.243,-0.809,30.95,17.7,-38.45,1785101602097.908
0.155,-0.255,-0.814,36.71,19.04,-41.84,1785101602111.062
0.13,-0.266,-0.818,44.53,21.27,-44.89,1785101602117.234
0.118,-0.287,-0.822,53.56,25.15,-47.06,1785101602127.6338
0.118,-0.305,-0.818,62.87,30.03,-48.19,1785101602138.2192
0.13,-0.301,-0.781,71.57,33.2,-47.64,1785101602151.692
0.153,-0.281,-0.725,79.2,32.04,-45.47,1785101602157.614
0.167,-0.266,-0.679,86.18,27.62,-42.7,1785101602168.136
0.159,-0.254,-0.655,91.4,22.77,-39.7,1785101602181.1687
