ax,ay,az,gx,gy,gz,timestamp_ms
0.21,-0.991,-0.402,38.27,-10.44,119.3,1785101617620.2502
0.246,-1.038,-0.381,39.31,-15.96,123.94,1785101617620.543
0.255,-1.052,-0.356,45.14,-20.36,130.16,1785101617620.7832
0.24,-1.059,-0.338,59.21,-24.81,138.16,1785101617620.9863
0.211,-1.062,-0.404,78.16,-28.26,144.6,1785101617621.196
0.163,-1.052,-0.462,91.71,-28.41,148.53,1785101617621.4011
0.104,-1.025,-0.503,93.23,-28.93,151.55,1785101617621.602
0.075,-0.986,-0.531,82.06,-29.76,155.25,1785101617621.7952
0.076,-0.983,-0.534,62.87,-31.34,158.15,1785101617621.9932
0.084,-0.996,-0.536,38.76,-34.67,157.08,1785101617622.188
0.063,-1.029,-0.545,15.29,-38.67,153.66,1785101617622.3792
0.017,-1.058,-0.533,-4.82,-42.54,150.4,1785101617622.561
-0.027,-1.082,-0.504,-18.1,-47.27,148.87,1785101617622.781
-0.064,-1.132,-0.485,-23.41,-51.27,146.82,1785101617623.002
-0.118,-1.161,-0.473,-24.23,-54.14,143.5,1785101617623.1921
-0.162,-1.152,-0.477,-20.72,-55.82,142.8,1785101617623.387
-0.184,-1.114,-0.488,-15.47,-56.09,144.9,1785101617623.6138
-0.188,-1.054,-0.508,-13.03,-57.25,147.86,1785101617623.8333
-0.177,-0.982,-0.53,-15.96,-59.08,150.36,1785101617624.043
-0.172,-0.928,-0.532,-22.58,-60.58,151.52,1785101617624.264
-0.19,-0.947,-0.52,-27.83,-62.11,150.03,1785101617624.4778
-0.241,-1.004,-0.48,-31.56,-64.33,144.57,1785101617624.6929
-0.317,-1.045,-0.462,-32.99,-66.81,140.51,1785101617624.883
-0.315,-1.078,-0.485,-29.45,-69.28,141.85,1785101617625.078
-0.293,-1.034,-0.523,-22.37,-69.09,137.97,1785101617625.2742
-0.337,-0.946,-0.55,-15.47,-64.15,131.75,1785101617625.4622
-0.36,-0.917,-0.571,-12.09,-60.37,133.85,1785101617625.658
-0.38,-0.869,-0.56,-13.86,-59.6,135.78,1785101617625.866
-0.405,-0.793,-0.539,-16.11,-57.59,138.22,1785101617626.0647
-0.428,-0.792,-0.54,-14.25,-53.87,140.87,1785101617626.2532
-0.449,-0.878,-0.532,-11.17,-50.23,138.98,1785101617626.4497
-0.498,-0.973,-0.505,-8.85,-47.94,131.41,1785101617626.6501
-0.553,-1.01,-0.447,-5.16,-44.83,125.13,1785101617626.8533
-0.589,-1.029,-0.411,5.74,-42.15,126.56,1785101617627.074
-0.577,-1.023,-0.402,21.3,-40.28,132.08,1785101617627.304
-0.576,-0.928,-0.413,35.98,-38.24,133.24,1785101617627.5232
-0.595,-0.811,-0.438,45.78,-35.98,133.76,1785101617627.725
-0.599,-0.727,-0.477,46.08,-33.63,134.62,1785101617627.923
-0.645,-0.668,-0.511,36.68,-30.7,131.75,1785101617628.119
-0.684,-0.665,-0.509,21.64,-27.99,129.22,1785101617628.337
-0.752,-0.698,-0.464,6.74,-24.81,127.6,1785101617628.552
-0.779,-0.767,-0.432,-0.24,-24.08,130.13,1785101617628.77
-0.777,-0.781,-0.406,-3.45,-24.78,129.43,1785101617628.984
-0.793,-0.775,-0.373,-5.16,-23.07,125.19,1785101617629.198
-0.795,-0.802,-0.36,-6.01,-21.42,122.01,1785101617629.3928
-0.822,-0.76,-0.348,-8.18,-22.06,116.09,1785101617629.62
-0.887,-0.709,-0.336,-6.93,-21.3,114.6,1785101617629.827
-0.902,-0.686,-0.351,-5.71,-22.31,119.36,1785101617630.018
-0.886,-0.629,-0.351,-10.07,-23.47,121.34,1785101617630.2322
-0.881,-0.57,-0.366,-14.68,-23.22,118.69,1785101617630.44
-0.897,-0.529,-0.396,-22.16,-22.31,113.8,1785101617630.6328
-0.925,-0.513,-0.419,-36.04,-22.86,109.68,1785101617630.816
-0.929,-0.514,-0.42,-52.43,-24.84,106.72,1785101617631.005
-0.932,-0.502,-0.422,-68.09,-24.93,102.91,1785101617631.2002
-0.943,-0.492,-0.435,-84.54,-24.45,99.0,1785101617631.384
-0.952,-0.489,-0.428,-100.65,-24.81,94.82,1785101617631.5752
-0.957,-0.494,-0.415,-112.22,-25.15,90.15,1785101617631.766
-0.955,-0.501,-0.415,-119.21,-25.33,85.06,1785101617631.9548
-0.947,-0.497,-0.4,-121.56,-25.12,78.74,1785101617632.135
-0.939,-0.504,-0.385,-117.86,-24.08,71.29,1785101617632.3252
-0.935,-0.512,-0.374,-109.04,-23.62,63.14,1785101617632.517
-0.931,-0.5,-0.362,-98.45,-22.77,55.27,1785101617632.696
-0.921,-0.476,-0.351,-88.05,-21.55,47.21,1785101617632.885
-0.905,-0.459,-0.36,-78.68,-19.65,39.12,1785101617633.076
-0.898,-0.441,-0.365,-71.2,-16.63,30.43,1785101617633.265
-0.896,-0.443,-0.377,-62.56,-13.43,22.89,1785101617633.445
-0.889,-0.44,-0.394,-52.37,-9.61,14.65,1785101617633.635
-0.892,-0.427,-0.401,-40.16,-5.31,5.55,1785101617633.8242
-0.903,-0.421,-0.395,-27.28,-1.46,-1.74,1785101617634.004
-0.907,-0.405,-0.384,-16.79,0.73,-6.99,1785101617634.185
-0.899,-0.389,-0.377,-8.61,2.5,-10.32,1785101617634.3748
-0.885,-0.382,-0.378,-2.23,4.33,-12.94,1785101617634.5488
-0.879,-0.372,-0.384,2.11,6.13,-15.96,1785101617634.742
-0.875,-0.358,-0.386,5.25,7.35,-18.59,1785101617634.9282
-0.875,-0.337,-0.388,7.08,8.73,-20.45,1785101617635.107
-0.878,-0.319,-0.387,7.69,10.07,-21.21,1785101617635.283
-0.88,-0.309,-0.386,6.38,10.8,-21.09,1785101617635.457
-0.877,-0.306,-0.381,3.45,11.05,-20.26,1785101617635.629
-0.873,-0.31,-0.372,0.52,11.17,-18.95,1785101617635.795
-0.867,-0.317,-0.364,-1.25,11.17,-17.15,1785101617635.967
-0.857,-0.321,-0.354,-2.01,11.08,-15.05,1785101617636.141
-0.854,-0.317,-0.349,-1.92,10.65,-13.15,1785101617636.31
-0.847,-0.315,-0.347,-1.4,10.44,-10.83,1785101617636.48
-0.841,-0.313,-0.342,-0.76,10.13,-8.97,1785101617636.686
-0.841,-0.305,-0.337,-0.03,9.64,-6.9,1785101617636.863
-0.833,-0.3,-0.329,0.82,9.58,-4.64,1785101617637.029
-0.83,-0.306,-0.331,1.46,9.28,-3.54,1785101617637.2102
-0.835,-0.304,-0.328,1.34,8.51,-2.59,1785101617637.419
-0.84,-0.309,-0.332,1.5,7.81,-1.59,1785101617637.587
-0.847,-0.312,-0.333,2.01,7.39,-1.19,1785101617637.782
-0.853,-0.307,-0.335,2.93,7.08,-0.98,1785101617637.9731
-0.856,-0.304,-0.34,4.27,6.81,-0.82,1785101617638.1387
-0.857,-0.304,-0.345,5.58,6.47,-0.92,1785101617638.3118
-0.859,-0.3,-0.347,6.01,6.56,-1.4,1785101617638.497
-0.864,-0.301,-0.348,5.58,6.65,-2.23,1785101617638.667
-0.873,-0.295,-0.34,3.2,6.35,-3.17,1785101617638.8328
-0.872,-0.294,-0.334,0.52,5.86,-3.75,1785101617639.008
-0.864,-0.3,-0.333,-1.43,5.74,-4.97,1785101617639.1838
-0.863,-0.311,-0.328,-2.29,5.98,-6.9,1785101617639.3489
-0.87,-0.312,-0.323,-2.2,5.92,-8.91,1785101617639.518
-0.879,-0.305,-0.317,-2.04,5.55,-10.41,1785101617639.71
-0.885,-0.302,-0.317,-1.59,5.13,-12.05,1785101617639.8762
-0.89,-0.3,-0.322,-1.77,4.58,-13.76,1785101617640.049
-0.892,-0.304,-0.33,-1.56,4.33,-15.35,1785101617640.258
-0.888,-0.306,-0.324,-0.7,4.06,-16.63,1785101617640.467
-0.88,-0.306,-0.327,0.52,3.51,-18.01,1785101617640.667
-0.882,-0.293,-0.329,0.79,3.08,-19.23,1785101617640.863
-0.881,-0.288,-0.327,0.73,2.62,-19.75,1785101617641.094
-0.881,-0.285,-0.324,-0.12,2.17,-20.36,1785101617641.2742
-0.88,-0.276,-0.317,-1.53,1.04,-20.72,1785101617641.529
-0.88,-0.276,-0.317,-3.11,-0.4,-20.66,1785101617641.719
-0.88,-0.27,-0.314,-5.37,-1.83,-20.6,1785101617641.891
-0.874,-0.268,-0.318,-7.66,-2.93,-20.63,1785101617642.067
-0.868,-0.274,-0.325,-10.65,-4.33,-20.17,1785101617642.2458
-0.873,-0.266,-0.317,-10.65,-4.33,-20.17,1785101617642.419
-0.873,-0.252,-0.308,-13.58,-6.47,-18.31,1785101617642.593
-0.865,-0.253,-0.315,-16.66,-8.27,-16.66,1785101617642.7742
-0.865,-0.26,-0.328,-20.81,-9.52,-16.24,1785101617642.947
-0.868,-0.262,-0.335,-25.45,-10.53,-15.41,1785101617643.115
-0.868,-0.267,-0.338,-29.54,-11.35,-13.79,1785101617643.2869
-0.867,-0.269,-0.339,-32.56,-11.99,-11.87,1785101617643.459
-0.862,-0.274,-0.339,-34.03,-12.57,-9.67,1785101617643.6438
-0.853,-0.282,-0.339,-34.24,-12.97,-7.57,1785101617643.8132
-0.849,-0.288,-0.339,-34.03,-13.46,-5.83,1785101617643.9849
-0.843,-0.291,-0.344,-33.66,-13.55,-4.21,1785101617644.152
-0.844,-0.295,-0.346,-32.59,-13.58,-2.69,1785101617644.32
-0.849,-0.296,-0.347,-31.16,-13.64,-1.4,1785101617644.4968
-0.854,-0.295,-0.354,-29.42,-13.43,-0.24,1785101617644.671
-0.858,-0.295,-0.358,-27.65,-13.25,0.58,1785101617644.834
-0.864,-0.29,-0.36,-27.01,-13.25,1.4,1785101617645.0088
-0.863,-0.284,-0.365,-27.25,-13.03,2.44,1785101617645.184
-0.86,-0.286,-0.367,-27.99,-12.6,3.23,1785101617645.354
-0.859,-0.291,-0.372,-29.21,-12.09,3.39,1785101617645.526
-0.86,-0.297,-0.369,-30.49,-11.44,3.39,1785101617645.704
-0.86,-0.302,-0.361,-31.13,-10.99,3.3,1785101617645.8682
-0.848,-0.311,-0.361,-30.37,-10.47,2.62,1785101617646.035
-0.859,-0.303,-0.358,-29.82,-9.43,1.37,1785101617646.203
-0.87,-0.301,-0.364,-29.63,-9.28,1.28,1785101617646.393
-0.869,-0.303,-0.36,-29.76,-9.16,0.06,1785101617646.553
-0.877,-0.309,-0.363,-28.9,-7.81,-1.92,1785101617646.725
-0.891,-0.314,-0.36,-27.65,-6.96,-3.66,1785101617646.8953
-0.891,-0.317,-0.355,-25.42,-6.59,-5.16,1785101617647.0598
-0.886,-0.314,-0.348,-22.58,-5.92,-6.68,1785101617647.232
-0.881,-0.311,-0.344,-19.84,-5.28,-8.09,1785101617647.406
-0.878,-0.311,-0.347,-17.49,-5.68,-9.64,1785101617647.5708
-0.879,-0.303,-0.353,-16.24,-6.23,-11.14,1785101617647.757
-0.881,-0.291,-0.357,-16.08,-6.44,-12.45,1785101617647.934
-0.88,-0.286,-0.365,-16.94,-6.93,-13.46,1785101617648.134
-0.873,-0.283,-0.371,-18.52,-7.14,-14.44,1785101617648.302
-0.861,-0.283,-0.371,-20.26,-7.29,-15.47,1785101617648.4722
-0.855,-0.285,-0.362,-22.28,-7.78,-16.48,1785101617648.674
-0.855,-0.285,-0.348,-23.93,-8.94,-16.91,1785101617648.8372
-0.86,-0.279,-0.335,-24.72,-10.13,-16.75,1785101617649.009
-0.862,-0.275,-0.332,-24.99,-11.63,-16.14,1785101617649.196
-0.87,-0.274,-0.343,-25.64,-12.79,-16.11,1785101617649.369
-0.885,-0.276,-0.357,-27.5,-13.73,-16.05,1785101617649.539
-0.901,-0.278,-0.369,-30.09,-14.47,-15.11,1785101617649.708
-0.91,-0.281,-0.374,-32.65,-14.95,-13.4,1785101617649.904
-0.92,-0.285,-0.371,-34.49,-15.2,-11.23,1785101617650.0852
-0.921,-0.292,-0.353,-34.67,-15.2,-8.88,1785101617650.251
-0.924,-0.298,-0.338,-32.78,-15.69,-6.65,1785101617650.4478
-0.937,-0.303,-0.333,-29.33,-16.3,-4.55,1785101617650.609
-0.968,-0.302,-0.325,-24.66,-16.79,-2.66,1785101617650.782
-0.999,-0.303,-0.313,-19.44,-17.24,-0.85,1785101617650.951
-1.028,-0.31,-0.312,-13.89,-18.07,0.24,1785101617651.124
-1.045,-0.307,-0.324,-8.79,-19.14,1.53,1785101617651.308
-1.053,-0.298,-0.328,-4.15,-20.08,3.3,1785101617651.467
-1.053,-0.288,-0.339,-0.06,-21.27,5.22,1785101617651.629
-1.039,-0.27,-0.354,2.38,-22.25,7.23,1785101617651.7861
-0.966,-0.255,-0.374,1.89,-24.72,9.52,1785101617652.1
-0.952,-0.244,-0.393,-1.95,-26.31,10.25,1785101617652.259
-0.877,-0.278,-0.343,-8.85,-2.26,4.55,1785101617652.561
-0.877,-0.281,-0.34,-7.51,-2.11,4.21,1785101617652.717
-0.879,-0.283,-0.339,-5.77,-2.11,3.85,1785101617656.9119
-0.882,-0.282,-0.34,-4.0,-1.98,3.81,1785101617667.297
-0.883,-0.283,-0.345,-2.44,-1.8,3.75,1785101617677.669
-0.883,-0.282,-0.348,-1.31,-1.68,3.51,1785101617688.051
-0.883,-0.278,-0.353,-0.7,-1.34,3.27,1785101617701.324
-0.883,-0.277,-0.352,-0.58,-0.98,2.87,1785101617706.6802
-0.882,-0.277,-0.351,-0.34,-0.85,2.69,1785101617716.9458
-0.878,-0.275,-0.349,-0.27,-0.82,2.35,1785101617727.339
-0.875,-0.275,-0.348,-0.15,-0.82,1.98,1785101617737.814
-0.871,-0.274,-0.349,-0.15,-0.92,1.46,1785101617748.1138
-0.871,-0.274,-0.349,-0.34,-0.79,1.1,1785101617761.3672
-0.871,-0.271,-0.351,-0.64,-0.85,0.55,1785101617766.7751
-0.875,-0.269,-0.35,-1.16,-0.85,-0.21,1785101617777.059
-0.88,-0.272,-0.352,-2.04,-0.76,-0.92,1785101617787.505
-0.881,-0.27,-0.352,-2.66,-0.73,-1.37,1785101617797.827
-0.88,-0.273,-0.352,-2.66,-0.73,-1.37,1785101617808.1929
-0.883,-0.275,-0.352,-2.93,-0.58,-1.77,1785101617821.5042
-0.885,-0.273,-0.348,-3.02,-0.46,-1.8,1785101617826.88
-0.883,-0.274,-0.345,-2.44,-0.55,-1.74,1785101617837.211
-0.88,-0.275,-0.348,-1.65,-0.49,-2.17,1785101617847.559
-0.881,-0.27,-0.345,-1.19,-0.46,-2.53,1785101617857.9321
-0.883,-0.266,-0.342,-0.73,-0.52,-2.44,1785101617868.392
-0.882,-0.266,-0.343,-0.18,-0.61,-2.44,1785101617881.5999
-0.88,-0.27,-0.348,0.27,-0.49,-2.75,1785101617887.241
-0.879,-0.269,-0.351,0.43,-0.55,-3.02,1785101617897.27
-0.875,-0.269,-0.351,0.03,-0.67,-3.11,1785101617907.677
-0.874,-0.269,-0.35,-0.46,-0.76,-3.42,1785101617918.386
-0.878,-0.265,-0.349,-1.07,-0.82,-3.85,1785101617928.4922
-0.885,-0.268,-0.349,-1.56,-1.07,-3.97,1785101617942.118
-0.888,-0.265,-0.352,-2.17,-1.46,-4.18,1785101617947.4602
-0.885,-0.263,-0.356,-3.02,-1.53,-4.21,1785101617957.5159
-0.882,-0.264,-0.354,-4.06,-1.71,-4.39,1785101617967.66
-0.881,-0.263,-0.353,-5.25,-1.98,-4.55,1785101617978.252
-0.877,-0.266,-0.354,-6.38,-2.17,-4.49,1785101617991.5269
-0.879,-0.268,-0.353,-7.2,-2.38,-4.33,1785101617997.1772
-0.881,-0.266,-0.351,-7.72,-2.5,-4.24,1785101618007.057
-0.88,-0.265,-0.35,-7.78,-2.69,-4.12,1785101618017.5527
-0.882,-0.264,-0.352,-7.63,-3.02,-4.06,1785101618027.727
-0.885,-0.264,-0.353,-8.18,-3.39,-4.06,1785101618038.379
-0.886,-0.264,-0.353,-9.0,-3.39,-4.03,1785101618051.617
-0.887,-0.266,-0.355,-9.89,-3.48,-4.18,1785101618057.261
-0.888,-0.267,-0.355,-11.23,-3.88,-4.43,1785101618067.363
-0.887,-0.266,-0.357,-12.42,-3.81,-4.67,1785101618077.805
-0.886,-0.265,-0.355,-13.49,-3.72,-4.76,1785101618088.151
-0.882,-0.263,-0.352,-14.31,-4.0,-4.91,1785101618101.438
-0.872,-0.265,-0.352,-14.74,-4.0,-5.49,1785101618107.515
-0.867,-0.264,-0.348,-15.14,-3.85,-6.04,1785101618117.233
-0.862,-0.26,-0.347,-15.08,-3.91,-6.56,1785101618127.88
-0.859,-0.26,-0.35,-15.17,-3.69,-7.35,1785101618138.282
-0.865,-0.254,-0.35,-15.72,-3.33,-8.0,1785101618151.5579
-0.867,-0.249,-0.351,-16.05,-3.08,-8.45,1785101618157.26
-0.868,-0.251,-0.357,-15.96,-2.56,-9.4,1785101618167.455
-0.87,-0.26,-0.365,-16.36,-1.86,-10.32,1785101618178.2278
-0.871,-0.273,-0.365,-17.49,-1.43,-10.96,1785101618191.277
-0.873,-0.276,-0.353,-18.74,-1.13,-11.14,1785101618197.1982
-0.88,-0.274,-0.349,-18.59,-1.31,-10.96,1785101618207.623
-0.881,-0.272,-0.342,-17.52,-1.34,-10.41,1785101618218.178
-0.883,-0.266,-0.336,-16.48,-1.07,-9.83,1785101618231.416
-0.888,-0.26,-0.329,-15.35,-1.1,-8.7,1785101618237.3098
-0.889,-0.251,-0.321,-14.53,-1.5,-7.57,1785101618247.194
-0.887,-0.249,-0.323,-14.1,-1.77,-6.87,1785101618257.8098
-0.888,-0.251,-0.324,-14.47,-1.77,-6.2,1785101618268.2722
-0.886,-0.256,-0.316,-15.11,-2.01,-5.71,1785101618281.3298
-0.884,-0.257,-0.309,-15.23,-2.5,-4.91,1785101618287.1812
-0.882,-0.26,-0.306,-13.95,-2.84,-4.12,1785101618297.426
-0.886,-0.259,-0.312,-12.39,-3.2,-3.51,1785101618307.727
-0.889,-0.257,-0.323,-11.2,-3.23,-2.69,1785101618318.239
-0.89,-0.255,-0.32,-9.92,-3.27,-1.83,1785101618331.496
-0.892,-0.253,-0.323,-8.45,-3.72,-1.25,1785101618337.0151
-0.894,-0.25,-0.324,-7.32,-4.03,-0.82,1785101618347.3079
-0.891,-0.247,-0.32,-6.29,-4.52,0.31,1785101618357.513
-0.885,-0.244,-0.326,-5.31,-5.28,1.13,1785101618367.958
-0.877,-0.244,-0.331,-5.07,-5.71,1.59,1785101618378.449
-0.872,-0.247,-0.341,-5.43,-6.13,1.16,1785101618391.683
-0.87,-0.248,-0.355,-6.53,-6.1,0.52,1785101618397.354
-0.878,-0.248,-0.358,-7.93,-6.01,0.27,1785101618407.344
-0.88,-0.247,-0.355,-9.13,-6.5,0.18,1785101618417.686
-0.881,-0.248,-0.357,-9.98,-6.81,0.18,1785101618428.127
-0.883,-0.247,-0.354,-10.8,-6.87,0.7,1785101618441.54
-0.882,-0.249,-0.358,-11.23,-7.2,1.5,1785101618447.2507
-0.882,-0.248,-0.365,-11.35,-7.39,1.98,1785101618457.31
-0.883,-0.248,-0.362,-11.35,-7.35,2.44,1785101618467.797
-0.881,-0.25,-0.361,-11.44,-7.48,2.41,1785101618478.069
-0.881,-0.251,-0.358,-11.81,-7.17,2.04,1785101618491.4197
-0.882,-0.251,-0.35,-12.36,-7.05,1.59,1785101618497.4048
-0.882,-0.25,-0.34,-12.88,-7.42,1.16,1785101618507.2488
-0.885,-0.246,-0.328,-13.4,-7.97,0.95,1785101618517.996
-0.888,-0.248,-0.32,-13.67,-8.73,0.82,1785101618528.418
-0.886,-0.282,-0.333,-13.0,-8.82,-0.64,1785101618541.6638
-0.89,-0.328,-0.344,-11.69,-7.81,-3.78,1785101618547.084
-0.902,-0.362,-0.338,-9.03,-6.84,-6.81,1785101618557.348
-0.909,-0.373,-0.344,-4.79,-6.68,-7.97,1785101618567.695
-0.9,-0.381,-0.381,-0.4,-6.29,-8.21,1785101618578.271
-0.894,-0.391,-0.407,2.99,-4.7,-10.38,1785101618591.6482
-0.901,-0.401,-0.405,5.86,-1.56,-16.17,1785101618597.535
-0.909,-0.408,-0.394,8.61,1.77,-24.45,1785101618607.209
-0.901,-0.416,-0.393,10.83,5.22,-33.57,1785101618618.0488
-0.898,-0.425,-0.392,11.87,8.88,-43.12,1785101618628.376
-0.897,-0.441,-0.416,10.47,13.61,-52.67,1785101618642.028
-0.91,-0.453,-0.446,5.43,19.5,-62.59,1785101618647.76
-0.915,-0.472,-0.508,-2.53,25.67,-72.54,1785101618658.1262
-0.923,-0.523,-0.574,-11.14,33.14,-82.77,1785101618671.4539
-0.949,-0.596,-0.612,-16.14,42.12,-92.87,1785101618676.8892
-0.966,-0.673,-0.637,-12.97,51.85,-101.93,1785101618687.895
-0.983,-0.729,-0.612,-2.53,60.67,-109.84,1785101618698.5337
-0.992,-0.766,-0.591,16.3,66.68,-116.34,1785101618711.6501
-0.984,-0.773,-0.61,36.5,72.6,-120.85,1785101618717.3528
-0.986,-0.796,-0.68,50.54,79.78,-126.74,1785101618728.416
-1.013,-0.732,-0.74,47.03,87.37,-135.14,1785101618741.932
-1.04,-0.593,-0.784,25.15,93.42,-141.45,1785101618747.2961
-1.007,-0.504,-0.875,-7.78,101.72,-142.61,1785101618758.477
-0.92,-0.777,-0.889,-46.39,114.54,-150.73,1785101618771.806
-0.939,-0.869,-0.896,-68.61,126.19,-172.61,1785101618777.702
-0.899,-1.029,-0.907,-68.21,138.28,-179.66,1785101618791.1748
-0.879,-1.147,-0.916,-54.87,149.02,-186.93,1785101618797.106
-0.882,-1.127,-0.892,-34.09,157.57,-190.44,1785101618808.047
-0.861,-1.099,-0.841,-12.73,162.39,-188.42,1785101618821.4268
-0.821,-1.036,-0.821,5.25,165.35,-187.72,1785101618827.3699
-0.756,-0.986,-0.838,17.94,167.76,-188.48,1785101618838.3481
-0.694,-0.962,-0.887,21.67,170.66,-191.69,1785101618851.46
-0.64,-0.95,-0.914,16.72,174.78,-196.39,1785101618857.2732
-0.591,-0.912,-0.903,7.2,177.98,-201.03,1785101618868.397
-0.532,-0.856,-0.895,-3.14,179.94,-203.71,1785101618881.63
-0.474,-0.806,-0.899,-13.4,182.81,-204.47,1785101618887.709
-0.411,-0.747,-0.871,-23.19,185.55,-203.86,1785101618898.583
-0.362,-0.691,-0.846,-29.79,187.99,-203.1,1785101618911.669
-0.312,-0.71,-0.825,-33.54,187.81,-198.46,1785101618917.7869
-0.265,-0.685,-0.772,-38.88,188.39,-197.52,1785101618930.9802
-0.248,-0.605,-0.758,-45.14,188.42,-199.22,1785101618937.0679
-0.211,-0.59,-0.728,-53.16,187.48,-198.22,1785101618948.197
-0.173,-0.563,-0.673,-64.39,186.35,-196.91,1785101618961.702
-0.127,-0.527,-0.658,-73.85,184.36,-192.91,1785101618967.43
-0.06,-0.535,-0.682,-78.86,183.54,-187.96,1785101618978.308
-0.022,-0.504,-0.661,-84.69,182.1,-184.55,1785101618991.69
0.01,-0.432,-0.63,-89.27,177.5,-178.69,1785101618997.571
0.048,-0.398,-0.595,-92.99,172.55,-171.97,1785101619008.4941
0.085,-0.374,-0.542,-98.79,169.41,-167.0,1785101619021.966
0.122,-0.349,-0.497,-103.24,165.38,-161.78,1785101619027.6921
0.122,-0.349,-0.497,-103.31,160.13,-157.08,1785101619041.1948
0.16,-0.365,-0.465,-102.94,153.08,-154.03,1785101619047.3372
0.169,-0.339,-0.438,-101.05,147.1,-148.47,1785101619058.666
0.188,-0.302,-0.471,-101.11,144.2,-141.88,1785101619071.811
0.203,-0.305,-0.513,-105.5,140.63,-135.75,1785101619078.415
0.215,-0.327,-0.533,-105.5,140.63,-135.75,1785101619091.382
0.244,-0.362,-0.543,-110.2,135.5,-129.22,1785101619097.506
0.273,-0.373,-0.508,-112.58,128.73,-122.99,1785101619110.8857
0.321,-0.361,-0.504,-109.68,121.62,-115.79,1785101619117.0361
0.355,-0.348,-0.518,-104.16,116.21,-109.96,1785101619128.335
0.361,-0.329,-0.554,-100.34,111.24,-106.3,1785101619141.555
0.365,-0.365,-0.589,-97.63,108.4,-103.98,1785101619147.765
0.356,-0.374,-0.564,-97.23,104.77,-102.51,1785101619158.4648
0.374,-0.328,-0.523,-95.58,98.21,-97.17,1785101619171.81
0.417,-0.293,-0.507,-89.88,90.46,-89.57,1785101619177.53
0.453,-0.279,-0.508,-82.83,84.26,-83.86,1785101619188.2722
0.472,-0.255,-0.521,-76.75,79.29,-80.11,1785101619201.45
0.489,-0.227,-0.531,-71.72,75.14,-76.78,1785101619207.1099
0.505,-0.203,-0.554,-66.93,71.17,-73.31,1785101619217.8308
0.517,-0.193,-0.583,-64.06,68.54,-69.61,1785101619228.601
0.528,-0.182,-0.587,-63.97,65.71,-65.58,1785101619241.6638
0.548,-0.158,-0.574,-64.09,62.29,-61.53,1785101619247.5588
0.575,-0.135,-0.557,-62.2,59.08,-57.44,1785101619258.293
0.59,-0.118,-0.562,-58.69,56.95,-54.29,1785101619271.371
0.596,-0.109,-0.56,-55.39,55.73,-52.22,1785101619277.236
0.6,-0.116,-0.568,-52.28,54.2,-49.68,1785101619287.9382
0.61,-0.116,-0.551,-49.81,51.97,-47.49,1785101619301.3171
0.635,-0.111,-0.536,-45.96,49.1,-45.56,1785101619306.9382
0.654,-0.103,-0.534,-40.22,46.33,-43.31,1785101619317.713
0.67,-0.086,-0.525,-33.88,43.61,-40.59,1785101619328.234
0.686,-0.061,-0.521,-27.59,40.25,-37.75,1785101619341.512
0.699,-0.038,-0.524,-21.67,37.45,-35.83,1785101619347.583
0.704,-0.024,-0.532,-17.58,35.55,-34.94,1785101619357.894
0.707,-0.016,-0.536,-15.26,34.15,-33.08,1785101619371.305
0.718,-0.006,-0.533,-14.28,32.26,-30.09,1785101619377.2412
0.727,-0.002,-0.542,-13.64,30.49,-27.65,1785101619387.789
0.744,0.006,-0.53,-13.43,29.42,-25.88,1785101619398.4268
0.761,0.008,-0.526,-12.94,27.31,-23.93,1785101619411.5488
0.765,0.006,-0.547,-11.72,26.34,-22.74,1785101619417.383
0.77,0.01,-0.544,-10.56,25.79,-21.85,1785101619428.15
0.787,0.019,-0.55,-8.18,24.84,-21.73,1785101619441.3381
0.797,0.022,-0.544,-6.38,24.66,-21.49,1785101619447.237
0.818,0.027,-0.528,-4.88,23.9,-21.0,1785101619457.545
0.838,0.04,-0.515,-2.87,22.61,-20.54,1785101619467.9548
0.85,0.057,-0.502,-0.79,21.27,-19.62,1785101619481.651
0.86,0.071,-0.483,0.73,19.81,-19.14,1785101619487.41
0.866,0.084,-0.477,2.04,18.59,-18.89,1785101619497.5989
0.866,0.095,-0.481,2.53,17.18,-18.4,1785101619508.053
0.865,0.1,-0.494,2.11,15.84,-18.19,1785101619521.5303
0.861,0.098,-0.509,1.04,15.05,-17.98,1785101619526.962
0.865,0.102,-0.511,0.24,14.59,-17.09,1785101619537.653
0.886,0.113,-0.5,0.12,13.55,-15.93,1785101619548.137
0.903,0.124,-0.477,0.55,12.39,-15.29,1785101619561.551
0.907,0.14,-0.451,0.92,11.51,-14.8,1785101619566.887
0.903,0.171,-0.45,0.52,10.25,-13.79,1785101619577.427
0.876,0.156,-0.451,-1.74,9.46,-13.37,1785101619588.104
0.884,0.157,-0.44,-2.41,8.21,-12.82,1785101619598.499
0.913,0.146,-0.455,-0.52,6.47,-11.63,1785101619611.588
0.891,0.154,-0.452,0.03,5.4,-12.02,1785101619617.196
0.934,0.142,-0.462,-0.21,3.36,-10.68,1785101619627.691
0.953,0.134,-0.476,-1.74,2.14,-9.86,1785101619638.0352
0.965,0.117,-0.477,-3.63,2.59,-8.85,1785101619648.52
0.955,0.132,-0.471,-3.11,2.96,-8.64,1785101619661.798
0.962,0.127,-0.462,-1.13,3.05,-5.92,1785101619666.934
0.969,0.167,-0.455,1.13,3.94,-4.49,1785101619677.357
0.975,0.184,-0.461,3.42,5.1,-2.59,1785101619687.6118
1.004,0.182,-0.442,0.95,4.49,-3.17,1785101619698.144
1.01,0.197,-0.421,-5.83,2.41,-5.16,1785101619708.504
1.024,0.197,-0.387,-12.76,1.22,-3.27,1785101619721.5847
1.014,0.215,-0.345,-16.02,0.18,-2.5,1785101619727.2087
0.985,0.231,-0.362,-13.4,-2.08,-2.44,1785101619737.647
0.966,0.202,-0.46,-8.82,-1.22,1.25,1785101619748.508
0.948,0.18,-0.513,-10.74,1.04,-1.59,1785101619758.588
0.974,0.158,-0.543,-15.93,2.32,-2.62,1785101619771.685
1.012,0.102,-0.533,-20.81,3.14,-0.15,1785101619777.426
1.057,0.106,-0.465,-21.06,2.99,1.71,1785101619787.79
1.094,0.129,-0.401,-14.92,2.2,4.39,1785101619798.251
1.108,0.189,-0.336,-8.94,-0.95,5.16,1785101619808.58
1.081,0.263,-0.294,-4.94,-5.31,4.91,1785101619821.703
1.052,0.297,-0.302,-3.42,-8.91,5.83,1785101619827.3062
0.995,0.294,-0.384,-6.38,-11.29,6.16,1785101619837.5527
0.919,0.23,-0.476,-13.43,-10.07,5.71,1785101619848.232
0.918,0.183,-0.48,-22.55,-10.1,6.81,1785101619861.624
0.984,0.132,-0.459,-27.74,-13.43,11.11,1785101619866.944
1.009,0.112,-0.42,-25.24,-16.63,15.14,1785101619877.8062
1.034,0.121,-0.382,-17.37,-20.57,19.14,1785101619888.282
1.055,0.136,-0.35,-8.94,-25.15,21.06,1785101619901.6377
1.058,0.159,-0.346,-1.4,-30.46,20.97,1785101619907.2158
1.039,0.178,-0.369,3.17,-35.1,21.21,1785101619917.8318
1.0,0.177,-0.401,4.67,-39.34,22.25,1785101619928.469
0.938,0.15,-0.469,3.81,-42.76,23.62,1785101619941.488
0.85,0.108,-0.539,0.55,-44.07,26.28,1785101619947.4712
0.823,0.052,-0.553,-1.34,-46.3,29.18,1785101619957.9258
0.849,0.008,-0.553,0.55,-51.06,31.16,1785101619968.297
0.878,0.004,-0.545,5.25,-55.91,33.02,1785101619981.554
0.898,0.016,-0.537,12.33,-60.43,33.91,1785101619987.777
0.892,0.048,-0.547,17.55,-64.55,34.67,1785101619998.067
0.862,0.093,-0.571,18.01,-68.06,36.07,1785101620011.157
0.809,0.126,-0.593,14.37,-71.66,39.0,1785101620016.8838
0.754,0.136,-0.613,8.39,-74.31,41.44,1785101620027.61
0.693,0.137,-0.635,1.07,-76.82,44.5,1785101620038.2148
0.653,0.134,-0.626,-6.32,-80.45,49.38,1785101620051.247
0.628,0.054,-0.612,-9.86,-84.63,51.88,1785101620056.988
0.592,-0.074,-0.596,-8.42,-87.68,50.29,1785101620067.673
0.559,-0.172,-0.583,-1.98,-91.46,49.32,1785101620078.242
0.533,-0.196,-0.598,7.02,-96.41,52.1,1785101620091.431
0.508,-0.164,-0.612,15.66,-102.18,56.12,1785101620097.365
0.491,-0.071,-0.654,22.61,-108.49,60.06,1785101620108.0479
0.464,0.034,-0.7,23.71,-112.92,66.47,1785101620121.1672
0.443,0.126,-0.713,18.22,-116.28,74.86,1785101620126.9373
0.412,0.114,-0.715,10.77,-118.75,82.95,1785101620138.119
0.365,-0.061,-0.685,7.29,-119.42,84.6,1785101620148.633
0.314,-0.29,-0.641,12.67,-122.41,79.71,1785101620161.8992
0.249,-0.445,-0.594,27.47,-128.06,75.59,1785101620167.47
0.167,-0.444,-0.643,45.23,-136.14,76.17,1785101620178.47
0.128,-0.275,-0.749,52.64,-143.62,84.41,1785101620191.854
0.109,-0.117,-0.835,47.85,-148.69,92.75,1785101620197.758
0.104,-0.033,-0.861,37.08,-150.24,97.26,1785101620208.39
0.095,-0.018,-0.86,28.6,-148.9,98.57,1785101620221.7942
0.065,-0.033,-0.852,24.51,-145.82,100.16,1785101620227.736
0.011,-0.113,-0.852,23.93,-142.22,100.74,1785101620241.3088
-0.036,-0.159,-0.886,18.8,-138.8,99.8,1785101620247.097
-0.055,-0.179,-0.905,4.73,-136.27,101.29,1785101620257.963
-0.048,-0.107,-0.981,-18.16,-132.94,104.37,1785101620271.013
-0.007,-0.02,-1.046,-47.73,-125.28,108.28,1785101620277.121
0.035,-0.029,-1.11,-74.43,-115.39,104.34,1785101620287.999
0.084,-0.043,-1.18,-93.78,-102.08,94.85,1785101620301.6318
0.132,-0.102,-1.176,-101.05,-84.63,85.54,1785101620306.9749
0.172,-0.221,-1.105,-94.61,-66.96,75.56,1785101620317.915
0.172,-0.221,-1.105,-79.56,-52.55,63.91,1785101620331.309
0.223,-0.37,-1.026,-60.34,-42.27,49.07,1785101620337.208
0.237,-0.528,-1.0,-42.51,-33.78,34.15,1785101620347.6182
0.252,-0.594,-1.017,-25.42,-24.93,20.78,1785101620358.356
0.268,-0.582,-1.03,-6.68,-15.11,6.74,1785101620371.431
0.278,-0.5,-1.052,-6.68,-15.11,6.74,1785101620377.341
0.276,-0.345,-1.034,10.8,-6.74,-5.37,1785101620387.564
0.268,-0.227,-0.979,25.94,-2.2,-13.76,1785101620397.909
0.246,-0.137,-1.01,34.88,0.34,-21.06,1785101620411.3237
0.229,-0.066,-1.009,34.0,3.75,-23.99,1785101620417.26
0.229,-0.062,-0.974,29.15,5.28,-24.32,1785101620427.412
0.234,-0.073,-0.961,23.8,4.79,-23.65,1785101620438.0857
0.225,-0.069,-0.971,17.49,3.23,-20.42,1785101620451.224
0.217,-0.052,-1.0,8.91,1.71,-15.14,1785101620457.345
0.225,-0.057,-1.019,-1.5,0.58,-9.77,1785101620467.162
0.239,-0.083,-1.032,-11.66,-1.22,-5.68,1785101620477.536
0.247,-0.114,-1.036,-19.87,-3.36,-2.14,1785101620488.168
0.256,-0.161,-1.026,-23.87,-4.7,0.89,1785101620501.389
0.267,-0.206,-1.006,-22.64,-4.97,2.17,1785101620507.4172
0.272,-0.228,-0.971,-17.33,-4.58,2.26,1785101620517.426
0.27,-0.227,-0.942,-9.58,-4.15,1.5,1785101620527.827
0.268,-0.204,-0.926,-1.59,-3.94,0.76,1785101620538.167
0.268,-0.178,-0.908,5.13,-4.0,0.24,1785101620548.568
0.266,-0.16,-0.907,9.67,-3.85,-0.46,1785101620561.861
0.262,-0.146,-0.916,11.54,-3.51,-1.07,1785101620567.1292
0.259,-0.141,-0.925,12.12,-2.96,-1.19,1785101620577.587
0.255,-0.15,-0.925,12.91,-2.04,-1.43,1785101620588.175
0.244,-0.172,-0.921,14.74,-1.19,-2.29,1785101620598.5962
0.233,-0.174,-0.916,15.9,-0.7,-3.27,1785101620611.69
0.23,-0.158,-0.904,16.39,-0.85,-3.45,1785101620617.4521
0.237,-0.149,-0.901,16.97,-1.34,-3.78,1785101620627.8027
0.228,-0.141,-0.9,17.15,-1.71,-4.18,1785101620638.3208
0.21,-0.137,-0.888,16.91,-2.69,-3.78,1785101620651.5881
0.214,-0.143,-0.885,16.14,-4.88,-2.93,1785101620657.3289
0.22,-0.145,-0.908,13.92,-6.84,-2.38,1785101620667.286
0.223,-0.132,-0.941,10.47,-8.0,-1.43,1785101620678.1362
0.227,-0.115,-0.97,5.95,-8.15,-0.06,1785101620688.228
0.224,-0.106,-0.983,1.04,-7.63,0.52,1785101620701.3728
0.223,-0.11,-0.983,-4.03,-7.23,0.12,1785101620706.9868
0.228,-0.12,-0.974,-9.37,-6.9,-0.82,1785101620716.975
0.235,-0.138,-0.954,-13.55,-6.5,-1.65,1785101620727.576
0.247,-0.159,-0.944,-15.66,-6.5,-2.5,1785101620738.136
0.253,-0.167,-0.943,-16.51,-6.5,-3.11,1785101620748.6248
0.251,-0.166,-0.944,-16.02,-6.44,-3.2,1785101620762.069
0.25,-0.155,-0.959,-14.83,-6.5,-3.11,1785101620767.3062
0.244,-0.141,-0.98,-13.82,-6.35,-2.66,1785101620777.725
0.236,-0.13,-1.0,-13.52,-6.16,-2.08,1785101620788.4429
0.229,-0.128,-1.005,-13.7,-5.8,-1.25,1785101620801.812
0.225,-0.131,-0.997,-13.86,-5.58,-0.61,1785101620806.9792
0.229,-0.14,-0.983,-13.49,-5.65,-0.12,1785101620817.3672
0.236,-0.146,-0.974,-13.18,-6.23,0.18,1785101620828.0059
0.229,-0.142,-0.965,-13.37,-6.59,0.92,1785101620838.485
0.221,-0.14,-0.969,-13.21,-7.29,2.2,1785101620851.626
0.226,-0.144,-0.984,-12.51,-7.6,2.93,1785101620857.503
0.233,-0.149,-0.997,-11.29,-7.05,3.14,1785101620867.5498
0.239,-0.147,-1.008,-9.34,-6.16,3.63,1785101620877.7412
0.24,-0.141,-1.012,-6.96,-4.76,3.81,1785101620888.3672
0.229,-0.136,-1.003,-5.01,-3.3,3.36,1785101620901.423
0.222,-0.132,-0.992,-3.81,-2.29,2.75,1785101620906.858
0.222,-0.141,-0.977,-2.75,-1.34,1.95,1785101620917.143
0.229,-0.162,-0.961,-1.43,-0.7,0.34,1785101620927.647
0.226,-0.181,-0.953,1.19,-0.37,-0.85,1785101620938.13
0.219,-0.189,-0.952,5.71,-0.61,-1.13,1785101620948.259
0.216,-0.183,-0.968,10.25,-1.13,-1.19,1785101620962.209
0.206,-0.165,-0.987,13.55,-1.01,-1.13,1785101620967.1162
0.196,-0.153,-0.994,15.2,-0.43,-1.01,1785101620977.6042
0.193,-0.144,-0.989,15.84,-0.15,-1.28,1785101620987.9382
0.2,-0.137,-0.982,15.9,-0.67,-1.53,1785101620998.5608
0.207,-0.143,-0.974,15.35,-1.13,-1.19,1785101621011.62
0.211,-0.159,-0.974,14.22,-1.5,-1.01,1785101621017.4038
0.214,-0.168,-0.979,12.57,-1.62,-0.95,1785101621027.7651
0.216,-0.166,-0.976,11.35,-1.77,-0.21,1785101621038.075
0.225,-0.158,-0.977,10.86,-2.04,0.58,1785101621051.45
0.237,-0.145,-0.988,9.86,-1.62,0.82,1785101621057.2852
0.242,-0.139,-0.983,8.12,-0.31,0.24,1785101621067.2021
0.247,-0.146,-0.97,6.65,0.89,-0.82,1785101621077.3462
0.251,-0.152,-0.968,5.52,1.53,-1.98,1785101621087.942
0.25,-0.152,-0.971,4.58,1.77,-2.96,1785101621098.346
0.239,-0.146,-0.977,3.2,2.32,-3.27,1785101621111.4612
0.225,-0.137,-0.98,1.04,2.75,-2.59,1785101621117.0618
0.218,-0.137,-0.973,-1.04,2.93,-1.62,1785101621127.265
0.221,-0.148,-0.963,-2.66,2.93,-0.92,1785101621137.6682
0.231,-0.167,-0.944,-3.27,2.84,-0.7,1785101621148.032
0.235,-0.19,-0.93,-2.35,2.66,-0.76,1785101621158.384
0.23,-0.212,-0.925,0.24,2.35,-1.28,1785101621171.642
0.224,-0.224,-0.925,3.88,1.71,-2.35,1785101621177.2979
0.225,-0.231,-0.921,8.33,0.92,-3.63,1785101621187.114
0.229,-0.231,-0.923,12.63,-0.03,-5.04,1785101621197.8408
0.234,-0.222,-0.935,16.14,-0.73,-5.83,1785101621208.075
0.239,-0.206,-0.95,18.86,-0.67,-6.29,1785101621221.3672
0.24,-0.191,-0.96,20.69,-0.06,-6.47,1785101621227.358
0.235,-0.18,-0.964,21.33,0.55,-7.05,1785101621237.252
0.231,-0.177,-0.962,20.63,1.34,-8.18,1785101621248.0042
0.231,-0.19,-0.959,19.47,1.83,-9.34,1785101621258.36
0.228,-0.213,-0.952,18.98,2.32,-10.59,1785101621271.721
0.229,-0.236,-0.935,20.02,2.5,-11.69,1785101621277.183
0.234,-0.253,-0.922,22.22,1.92,-12.48,1785101621287.7288
0.236,-0.254,-0.924,25.39,1.31,-12.88,1785101621298.412
0.235,-0.241,-0.938,28.47,0.98,-12.73,1785101621311.5361
0.239,-0.218,-0.953,30.06,1.16,-12.39,1785101621317.636
0.238,-0.192,-0.959,29.45,1.83,-11.96,1785101621327.736
0.241,-0.181,-0.958,26.7,2.35,-11.57,1785101621338.393
0.249,-0.192,-0.964,22.95,2.96,-11.17,1785101621351.609
0.255,-0.206,-0.964,18.71,3.48,-10.71,1785101621357.575
0.256,-0.219,-0.957,15.17,3.57,-9.7,1785101621367.778
0.262,-0.234,-0.95,13.18,3.42,-8.94,1785101621378.227
0.261,-0.245,-0.943,12.57,2.87,-8.91,1785101621391.358
0.255,-0.246,-0.933,12.91,2.29,-9.13,1785101621397.2822
0.255,-0.242,-0.932,13.64,1.77,-8.97,1785101621407.162
0.252,-0.238,-0.934,14.28,1.46,-8.64,1785101621417.896
0.25,-0.242,-0.935,14.65,1.22,-8.36,1785101621428.3599
0.248,-0.257,-0.934,14.65,0.95,-8.36,1785101621441.6353
0.241,-0.27,-0.93,14.5,0.55,-8.48,1785101621447.42
0.243,-0.276,-0.928,14.92,-0.4,-8.51,1785101621457.528
0.25,-0.275,-0.936,15.78,-1.28,-8.45,1785101621467.984
0.25,-0.27,-0.947,16.21,-1.43,-8.91,1785101621478.2742
0.249,-0.266,-0.951,15.99,-1.31,-9.55,1785101621491.615
0.247,-0.26,-0.957,15.02,-1.43,-10.32,1785101621497.695
0.242,-0.249,-0.966,13.49,-1.1,-10.74,1785101621507.643
0.243,-0.238,-0.963,11.41,-0.34,-10.47,1785101621520.635
0.244,-0.23,-0.954,8.97,0.21,-10.16,1785101621531.5562
0.246,-0.234,-0.946,6.62,0.61,-9.95,1785101621537.579
0.25,-0.251,-0.935,4.46,0.92,-10.01,1785101621547.4802
0.254,-0.27,-0.931,2.99,0.85,-10.56,1785101621558.0317
0.253,-0.282,-0.933,2.11,0.73,-11.26,1785101621568.414
0.249,-0.282,-0.931,2.32,0.52,-11.57,1785101621581.529
0.249,-0.277,-0.939,3.39,0.15,-11.99,1785101621587.1538
0.249,-0.264,-0.943,4.21,0.15,-12.73,1785101621597.592
0.25,-0.251,-0.946,4.03,0.15,-13.34,1785101621607.898
0.25,-0.251,-0.946,2.59,-0.09,-13.28,1785101621618.573
0.25,-0.241,-0.953,0.09,-0.34,-12.88,1785101621631.692
0.248,-0.237,-0.962,-3.05,-0.31,-12.24,1785101621637.739
0.249,-0.24,-0.967,-5.89,0.09,-11.41,1785101621647.6118
0.25,-0.24,-0.971,-5.89,0.09,-11.41,1785101621658.1572
0.252,-0.241,-0.971,-7.6,0.7,-10.53,1785101621671.4128
0.259,-0.237,-0.96,-8.45,1.37,-9.7,1785101621676.955
0.264,-0.226,-0.948,-9.31,1.59,-8.7,1785101621687.3018
0.267,-0.226,-0.946,-10.32,1.77,-7.84,1785101621697.702
0.262,-0.239,-0.94,-11.38,2.11,-7.6,1785101621707.9282
0.256,-0.26,-0.936,-10.96,2.11,-7.9,1785101621718.4219
0.258,-0.28,-0.933,-8.51,1.89,-8.12,1785101621731.8398
0.256,-0.289,-0.935,-4.36,1.59,-8.33,1785101621737.72
0.254,-0.29,-0.935,0.06,1.53,-8.7,1785101621747.5532
0.252,-0.281,-0.938,4.33,1.4,-9.16,1785101621758.2422
0.249,-0.272,-0.944,7.9,1.22,-9.83,1785101621768.2031
0.249,-0.26,-0.945,10.35,1.37,-9.98,1785101621781.332
0.253,-0.253,-0.946,11.63,1.53,-9.89,1785101621787.122
0.256,-0.252,-0.945,12.33,1.95,-10.22,1785101621797.579
0.263,-0.254,-0.945,12.63,2.41,-10.86,1785101621807.9941
0.267,-0.259,-0.948,12.79,3.2,-11.78,1785101621821.2659
0.264,-0.261,-0.94,13.28,4.39,-12.88,1785101621827.332
0.257,-0.26,-0.928,14.59,5.04,-14.13,1785101621837.67
0.256,-0.253,-0.918,16.36,5.07,-14.86,1785101621847.991
0.256,-0.248,-0.915,17.67,5.01,-15.11,1785101621861.363
0.251,-0.252,-0.919,17.98,4.88,-15.84,1785101621866.955
0.244,-0.268,-0.924,17.7,4.94,-16.48,1785101621877.449
0.244,-0.289,-0.927,17.09,4.85,-17.09,1785101621888.188
0.248,-0.3,-0.907,17.24,4.82,-17.67,1785101621901.1143
0.25,-0.303,-0.901,19.56,4.21,-18.52,1785101621906.995
0.257,-0.294,-0.907,22.4,3.57,-19.44,1785101621917.4368
0.257,-0.282,-0.913,24.45,3.57,-20.69,1785101621928.193
0.249,-0.297,-0.924,26.25,4.61,-22.98,1785101621941.191
0.237,-0.329,-0.917,27.44,6.1,-26.34,1785101621947.0908
0.239,-0.365,-0.899,30.03,7.08,-30.37,1785101621957.567
0.245,-0.389,-0.891,35.49,7.66,-33.78,1785101621967.9849
0.242,-0.39,-0.887,42.54,8.15,-36.19,1785101621981.506
0.237,-0.384,-0.887,49.17,8.48,-38.58,1785101621987.2583
0.234,-0.372,-0.896,53.07,8.61,-41.14,1785101621997.563
0.226,-0.365,-0.917,53.07,9.22,-43.76,1785101622007.977
0.221,-0.379,-0.911,49.65,10.47,-46.42,1785101622021.2148
0.222,-0.403,-0.886,45.41,11.29,-50.14,1785101622026.9692
0.22,-0.419,-0.867,43.06,11.69,-53.9,1785101622037.9463
0.219,-0.425,-0.832,43.7,11.66,-57.37,1785101622048.2292
0.224,-0.412,-0.816,46.91,10.5,-61.31,1785101622061.897
0.23,-0.369,-0.833,49.44,8.58,-64.82,1785101622067.268
0.225,-0.331,-0.854,48.77,7.35,-67.78,1785101622077.8381
0.217,-0.288,-0.894,41.84,7.78,-70.59,1785101622088.5188
0.211,-0.234,-0.919,27.34,9.4,-71.14,1785101622101.738
0.203,-0.146,-0.959,2.29,10.99,-68.82,1785101622107.5562
0.227,-0.031,-0.936,-31.5,11.81,-63.42,1785101622117.902
0.274,-0.057,-0.907,-61.74,13.06,-60.43,1785101622131.172
0.308,-0.135,-0.885,-85.12,15.2,-62.01,1785101622137.271
0.32,-0.208,-0.885,-97.02,17.52,-62.87,1785101622147.829
0.31,-0.262,-0.88,-98.03,20.78,-62.11,1785101622158.391
0.292,-0.299,-0.866,-91.19,23.68,-61.89,1785101622171.769
0.285,-0.326,-0.849,-78.89,26.31,-62.5,1785101622177.6199
0.285,-0.345,-0.802,-63.45,28.75,-63.69,1785101622188.0059
0.309,-0.325,-0.763,-47.3,29.63,-64.42,1785101622201.2788
0.35,-0.281,-0.748,-32.32,29.73,-62.81,1785101622207.155
0.391,-0.262,-0.754,-20.05,28.53,-60.7,1785101622217.8381
0.418,-0.254,-0.799,-12.88,26.8,-58.99,1785101622228.3787
0.414,-0.248,-0.851,-9.98,26.22,-56.64,1785101622241.6738
0.385,-0.246,-0.86,-8.64,26.58,-54.23,1785101622247.627
0.36,-0.239,-0.86,-4.46,26.8,-52.4,1785101622257.951
0.356,-0.239,-0.875,5.4,28.08,-51.0,1785101622268.543
0.357,-0.23,-0.859,19.65,31.28,-51.18,1785101622281.739
0.379,-0.214,-0.834,37.11,34.03,-52.19,1785101622287.6958
0.415,-0.183,-0.824,54.63,35.46,-52.58,1785101622298.224
0.45,-0.158,-0.806,69.06,35.74,-51.76,1785101622311.3333
0.467,-0.127,-0.808,75.26,34.0,-49.47,1785101622317.116
0.474,-0.103,-0.823,72.7,32.32,-45.5,1785101622327.9932
0.464,-0.128,-0.841,64.06,31.4,-41.57,1785101622338.379
0.439,-0.16,-0.868,51.24,31.77,-39.19,1785101622351.796
0.406,-0.192,-0.901,40.28,34.27,-36.59,1785101622357.7358
0.374,-0.239,-0.913,35.4,39.67,-34.15,1785101622368.276
0.36,-0.284,-0.892,36.87,45.93,-33.85,1785101622381.311
0.374,-0.311,-0.864,44.86,51.21,-34.46,1785101622386.998
0.408,-0.31,-0.806,57.34,54.6,-33.48,1785101622397.956
0.457,-0.297,-0.728,72.66,54.45,-31.01,1785101622408.354
0.508,-0.272,-0.67,87.92,51.06,-27.44,1785101622421.7988
0.529,-0.266,-0.652,100.31,47.88,-23.71,1785101622427.835
0.507,-0.272,-0.666,106.08,46.17,-21.85,1785101622438.392
0.465,-0.265,-0.677,104.19,45.38,-20.72,1785101622451.742
0.428,-0.255,-0.692,98.3,45.05,-18.07,1785101622457.702
0.398,-0.269,-0.699,93.45,45.75,-14.53,1785101622468.118
0.369,-0.299,-0.663,92.17,46.85,-11.96,1785101622481.567
0.354,-0.338,-0.58,95.86,46.02,-10.47,1785101622487.373
0.374,-0.366,-0.497,103.4,40.8,-9.86,1785101622498.052
0.439,-0.347,-0.488,110.48,32.69,-8.15,1785101622508.4631
0.507,-0.272,-0.53,111.82,25.73,-4.18,1785101622521.961
0.541,-0.173,-0.599,105.2,20.63,1.46,1785101622527.815
0.544,-0.121,-0.677,91.65,17.49,7.57,1785101622538.198
0.508,-0.146,-0.728,72.21,16.94,11.75,1785101622551.5288
