ax,ay,az,gx,gy,gz,timestamp_ms
0.187,-0.803,-0.42,71.57,-32.35,185.98,1785101633251.888
0.187,-0.803,-0.42,74.07,-32.81,185.58,1785101633306.603
0.157,-0.886,-0.414,88.75,-32.53,185.61,1785101633306.9583
0.219,-1.081,-0.473,104.4,-27.31,171.45,1785101633307.1858
0.236,-1.175,-0.552,106.72,-17.18,157.57,1785101633307.426
0.119,-1.096,-0.566,91.13,-13.67,165.32,1785101633307.659
0.065,-1.008,-0.62,91.13,-13.67,165.32,1785101633307.877
0.066,-0.901,-0.625,53.8,-15.5,173.65,1785101633308.0972
0.057,-0.839,-0.583,6.41,-14.56,175.08,1785101633308.321
0.03,-0.892,-0.518,-35.86,-12.15,174.35,1785101633308.5461
0.001,-1.016,-0.429,-62.78,-12.88,169.99,1785101633308.7612
-0.022,-1.114,-0.365,-70.44,-16.39,162.85,1785101633308.991
-0.042,-1.126,-0.321,-61.4,-19.01,157.84,1785101633309.2192
-0.062,-1.078,-0.311,-37.87,-20.87,158.51,1785101633309.4521
-0.043,-1.057,-0.375,-6.5,-23.35,163.06,1785101633309.667
-0.056,-0.986,-0.439,16.79,-24.38,161.35,1785101633309.888
-0.107,-0.933,-0.498,27.01,-23.74,158.91,1785101633310.108
-0.14,-0.955,-0.518,24.2,-23.01,158.39,1785101633310.325
-0.205,-0.974,-0.493,11.72,-24.2,155.95,1785101633310.549
-0.171,-0.996,-0.45,2.44,-23.22,154.61,1785101633310.7998
-0.193,-0.965,-0.398,-0.06,-18.56,144.08,1785101633311.019
-0.247,-0.991,-0.345,3.14,-16.54,137.09,1785101633311.237
-0.295,-1.078,-0.301,12.63,-17.3,135.84,1785101633311.459
-0.259,-1.143,-0.278,29.54,-18.59,136.88,1785101633311.685
-0.289,-1.084,-0.288,51.24,-15.69,130.59,1785101633311.903
-0.403,-0.974,-0.304,66.93,-15.2,129.7,1785101633312.165
-0.355,-0.961,-0.349,75.56,-15.23,139.38,1785101633312.4038
-0.355,-0.88,-0.377,74.07,-12.42,138.0,1785101633312.656
-0.435,-0.79,-0.408,63.84,-11.05,137.94,1785101633312.8838
-0.455,-0.771,-0.442,43.49,-13.64,139.84,1785101633313.1057
-0.486,-0.781,-0.433,15.59,-12.36,135.81,1785101633313.335
-0.524,-0.812,-0.389,-12.02,-10.32,130.65,1785101633313.556
-0.554,-0.835,-0.328,-32.47,-9.98,127.51,1785101633313.78
-0.581,-0.848,-0.265,-40.8,-10.99,127.14,1785101633314.003
-0.617,-0.863,-0.238,-37.78,-15.44,129.46,1785101633314.2478
-0.595,-0.84,-0.219,-29.05,-18.16,129.61,1785101633314.4697
-0.644,-0.79,-0.222,-17.91,-17.94,123.87,1785101633314.6948
-0.739,-0.805,-0.251,-8.03,-20.42,121.65,1785101633314.927
-0.74,-0.849,-0.28,-1.53,-24.14,122.35,1785101633315.1628
-0.754,-0.814,-0.275,4.73,-23.01,118.5,1785101633315.38
-0.796,-0.737,-0.313,10.01,-22.64,117.13,1785101633315.605
-0.78,-0.679,-0.357,5.86,-23.87,116.4,1785101633315.831
-0.74,-0.664,-0.367,-4.12,-20.2,113.99,1785101633316.0378
-0.765,-0.671,-0.356,-13.28,-13.0,108.01,1785101633316.259
-0.965,-0.678,-0.349,-24.51,-15.23,103.58,1785101633316.468
-1.028,-0.753,-0.326,-36.74,-26.86,112.52,1785101633316.679
-0.946,-0.768,-0.26,-42.45,-29.48,115.85,1785101633316.88
-0.891,-0.724,-0.236,-35.71,-24.05,110.63,1785101633317.085
-0.861,-0.675,-0.248,-26.18,-22.25,104.8,1785101633317.328
-0.889,-0.612,-0.262,-21.64,-22.52,97.14,1785101633317.5317
-0.909,-0.624,-0.287,-19.53,-22.28,95.71,1785101633317.7322
-0.863,-0.626,-0.312,-19.26,-22.37,91.49,1785101633317.9377
-0.893,-0.558,-0.319,-20.17,-19.01,81.15,1785101633318.145
-0.938,-0.524,-0.339,-23.35,-18.34,76.72,1785101633318.344
-0.981,-0.52,-0.341,-30.85,-21.88,77.61,1785101633318.5479
-0.963,-0.542,-0.335,-37.42,-24.75,81.67,1785101633318.748
-0.927,-0.53,-0.321,-41.78,-25.24,82.0,1785101633318.9421
-0.899,-0.479,-0.315,-46.14,-23.9,78.49,1785101633319.129
-0.888,-0.439,-0.312,-52.0,-21.3,72.27,1785101633319.321
-0.906,-0.417,-0.308,-60.98,-20.2,65.07,1785101633319.52
-0.917,-0.422,-0.304,-71.14,-20.91,59.27,1785101633319.71
-0.919,-0.443,-0.3,-77.88,-21.09,54.2,1785101633319.901
-0.919,-0.463,-0.3,-79.13,-20.97,48.65,1785101633320.1
-0.917,-0.471,-0.302,-75.62,-20.45,43.67,1785101633320.292
-0.913,-0.467,-0.311,-69.15,-19.87,38.51,1785101633320.483
-0.908,-0.45,-0.319,-61.98,-18.8,32.99,1785101633320.68
-0.909,-0.435,-0.319,-54.99,-17.64,27.86,1785101633320.8801
-0.907,-0.424,-0.316,-48.43,-16.63,23.35,1785101633321.066
-0.9,-0.422,-0.314,-41.57,-15.63,18.86,1785101633321.2612
-0.898,-0.416,-0.307,-34.49,-14.62,13.92,1785101633321.455
-0.899,-0.405,-0.301,-27.07,-13.64,9.83,1785101633321.6519
-0.899,-0.396,-0.301,-19.35,-12.6,6.32,1785101633321.839
-0.898,-0.381,-0.306,-11.81,-11.26,2.78,1785101633322.035
-0.901,-0.368,-0.316,-5.58,-10.16,-0.79,1785101633322.232
-0.904,-0.353,-0.323,-2.01,-9.52,-3.81,1785101633322.416
-0.903,-0.344,-0.328,-0.67,-8.88,-6.53,1785101633322.607
-0.905,-0.345,-0.337,-0.4,-8.15,-9.0,1785101633322.797
-0.909,-0.337,-0.336,-1.86,-7.54,-10.41,1785101633322.984
-0.903,-0.331,-0.333,-3.63,-6.87,-10.96,1785101633323.172
-0.894,-0.332,-0.334,-5.25,-6.38,-12.09,1785101633323.367
-0.895,-0.322,-0.332,-7.6,-6.07,-12.82,1785101633323.563
-0.889,-0.319,-0.329,-9.58,-5.68,-12.63,1785101633323.7458
-0.885,-0.318,-0.326,-10.77,-5.01,-12.94,1785101633323.947
-0.883,-0.312,-0.323,-11.72,-4.49,-13.37,1785101633324.141
-0.882,-0.306,-0.322,-12.42,-3.88,-13.43,1785101633324.3252
-0.881,-0.305,-0.32,-13.28,-3.02,-13.52,1785101633324.5198
-0.881,-0.308,-0.318,-14.22,-2.26,-13.61,1785101633324.711
-0.881,-0.305,-0.316,-15.23,-1.71,-13.89,1785101633324.888
-0.883,-0.305,-0.312,-15.81,-1.04,-13.67,1785101633325.082
-0.892,-0.306,-0.314,-15.78,-0.76,-12.88,1785101633325.273
-0.894,-0.308,-0.32,-15.87,-1.4,-11.6,1785101633325.4622
-0.885,-0.306,-0.321,-15.72,-1.4,-11.11,1785101633325.6409
-0.887,-0.303,-0.314,-15.66,0.09,-11.08,1785101633325.83
-0.889,-0.304,-0.315,-15.26,0.7,-10.01,1785101633326.024
-0.891,-0.297,-0.318,-15.23,0.7,-9.95,1785101633326.2012
-0.891,-0.289,-0.318,-15.72,1.31,-10.47,1785101633326.3909
-0.893,-0.29,-0.31,-16.85,1.86,-10.47,1785101633326.5762
-0.889,-0.303,-0.309,-17.21,2.23,-9.77,1785101633326.76
-0.891,-0.302,-0.313,-16.69,3.05,-9.92,1785101633326.94
-0.897,-0.293,-0.311,-17.09,3.91,-10.56,1785101633327.133
-0.899,-0.3,-0.305,-17.18,4.39,-10.59,1785101633327.325
-0.904,-0.308,-0.297,-15.44,4.7,-10.35,1785101633327.5242
-0.908,-0.313,-0.293,-12.02,5.19,-9.86,1785101633327.731
-0.91,-0.305,-0.294,-8.21,5.46,-9.52,1785101633327.942
-0.911,-0.292,-0.295,-5.68,5.65,-9.06,1785101633328.157
-0.914,-0.283,-0.292,-5.55,5.52,-8.7,1785101633328.361
-0.912,-0.285,-0.291,-6.53,5.43,-8.33,1785101633328.578
-0.914,-0.291,-0.288,-7.84,5.4,-8.76,1785101633328.793
-0.914,-0.287,-0.284,-9.64,4.94,-8.82,1785101633329.0132
-0.91,-0.287,-0.283,-10.62,4.55,-8.36,1785101633329.236
-0.91,-0.286,-0.286,-11.02,4.18,-8.06,1785101633329.447
-0.909,-0.286,-0.289,-11.2,3.54,-7.66,1785101633329.647
-0.907,-0.282,-0.297,-11.78,3.11,-8.06,1785101633329.8528
-0.903,-0.281,-0.302,-13.0,3.05,-8.27,1785101633330.039
-0.904,-0.285,-0.302,-14.77,3.02,-8.03,1785101633330.2268
-0.906,-0.285,-0.296,-16.79,2.72,-7.45,1785101633330.431
-0.904,-0.294,-0.288,-17.43,2.2,-6.16,1785101633330.6128
-0.9,-0.3,-0.283,-16.91,1.62,-5.43,1785101633330.787
-0.902,-0.296,-0.279,-15.9,1.16,-5.01,1785101633330.965
-0.9,-0.292,-0.282,-14.95,0.21,-3.75,1785101633331.147
-0.898,-0.284,-0.291,-15.08,-0.73,-2.99,1785101633331.329
-0.89,-0.274,-0.291,-16.45,-1.46,-2.62,1785101633331.5
-0.883,-0.278,-0.293,-17.46,-1.77,-1.74,1785101633331.6802
-0.882,-0.278,-0.293,-18.46,-2.23,-1.25,1785101633331.861
-0.879,-0.282,-0.288,-18.56,-2.53,-0.73,1785101633332.0352
-0.869,-0.294,-0.294,-17.37,-2.08,-0.34,1785101633332.215
-0.877,-0.286,-0.292,-17.61,-2.04,-0.43,1785101633332.3982
-0.872,-0.289,-0.286,-17.4,-2.29,0.92,1785101633332.573
-0.87,-0.293,-0.287,-16.21,-2.32,1.04,1785101633332.76
-0.871,-0.289,-0.286,-15.47,-2.69,0.95,1785101633332.9438
-0.871,-0.289,-0.286,-13.76,-3.08,1.92,1785101633333.1243
-0.869,-0.293,-0.287,-12.09,-3.3,2.29,1785101633333.2979
-0.874,-0.291,-0.294,-11.51,-3.51,2.44,1785101633333.482
-0.884,-0.283,-0.302,-11.78,-3.72,2.87,1785101633333.663
-0.884,-0.282,-0.305,-11.78,-3.72,2.87,1785101633333.8352
-0.881,-0.289,-0.306,-11.9,-3.72,3.33,1785101633334.0303
-0.882,-0.288,-0.304,-11.81,-3.75,3.69,1785101633334.2112
-0.881,-0.282,-0.301,-11.99,-3.91,4.3,1785101633334.388
-0.88,-0.284,-0.302,-12.39,-4.18,4.94,1785101633334.5652
-0.876,-0.29,-0.307,-12.82,-4.58,4.85,1785101633334.7522
-0.879,-0.291,-0.307,-13.46,-4.94,4.76,1785101633334.9277
-0.877,-0.29,-0.309,-13.98,-4.97,5.19,1785101633335.103
-0.873,-0.292,-0.31,-13.58,-4.85,5.31,1785101633335.279
-0.873,-0.29,-0.312,-13.06,-4.73,4.76,1785101633335.459
-0.874,-0.287,-0.313,-12.94,-4.64,4.64,1785101633335.631
-0.872,-0.285,-0.318,-12.88,-4.49,4.49,1785101633335.806
-0.871,-0.289,-0.317,-13.0,-4.39,4.0,1785101633335.99
-0.87,-0.293,-0.314,-13.18,-4.12,3.6,1785101633336.163
-0.868,-0.294,-0.312,-12.42,-3.54,3.11,1785101633336.344
-0.87,-0.291,-0.311,-11.14,-3.2,2.81,1785101633336.53
-0.868,-0.286,-0.311,-9.8,-2.75,2.14,1785101633336.7
-0.868,-0.287,-0.312,-8.67,-2.32,1.43,1785101633336.8809
-0.868,-0.286,-0.309,-7.93,-1.89,0.82,1785101633337.076
-0.872,-0.285,-0.306,-6.87,-1.65,0.79,1785101633337.2522
-0.87,-0.288,-0.305,-5.22,-1.31,0.73,1785101633337.423
-0.872,-0.29,-0.307,-3.48,-0.95,0.43,1785101633337.6052
-0.875,-0.29,-0.309,-1.86,-0.73,0.27,1785101633337.781
-0.88,-0.285,-0.309,-0.52,-0.55,0.49,1785101633337.949
-0.88,-0.278,-0.311,0.06,-0.46,0.76,1785101633338.125
-0.883,-0.274,-0.311,0.06,-0.31,0.61,1785101633338.303
-0.886,-0.272,-0.31,-0.58,-0.31,0.55,1785101633338.472
-0.885,-0.275,-0.31,-1.13,-0.03,0.4,1785101633338.6428
-0.883,-0.281,-0.309,-1.13,0.12,0.09,1785101633338.819
-0.883,-0.285,-0.306,-0.89,0.18,-0.27,1785101633338.987
-0.883,-0.292,-0.309,0.18,0.15,-0.43,1785101633339.16
-0.885,-0.285,-0.305,1.34,0.18,-0.27,1785101633339.333
-0.885,-0.277,-0.305,2.35,-0.03,0.09,1785101633339.5059
-0.884,-0.271,-0.308,2.69,-0.15,0.06,1785101633339.699
-0.882,-0.267,-0.307,1.89,-0.31,-0.24,1785101633339.894
-0.879,-0.266,-0.305,1.01,-0.43,-0.37,1785101633340.0728
-0.881,-0.279,-0.304,0.98,-0.24,-0.58,1785101633340.448
-0.886,-0.28,-0.303,1.77,-0.34,-0.49,1785101633340.6238
-0.891,-0.251,-0.321,-6.01,0.15,7.17,1785101633340.938
-0.894,-0.248,-0.32,-7.32,0.09,6.78,1785101633341.1208
-0.892,-0.247,-0.32,-10.22,-0.34,6.5,1785101633341.2878
-0.892,-0.255,-0.323,-13.67,-1.01,5.49,1785101633351.614
-0.89,-0.268,-0.332,-17.0,-1.37,3.48,1785101633357.219
-0.879,-0.28,-0.339,-19.56,-1.01,2.11,1785101633367.5808
-0.878,-0.287,-0.339,-20.39,0.03,1.89,1785101633378.02
-0.88,-0.285,-0.343,-19.87,0.52,1.56,1785101633388.531
-0.878,-0.278,-0.341,-19.17,0.89,1.37,1785101633401.718
-0.878,-0.266,-0.331,-18.16,0.98,1.62,1785101633407.337
-0.883,-0.266,-0.337,-16.75,1.01,1.86,1785101633417.6882
-0.892,-0.259,-0.343,-16.69,1.13,0.52,1785101633428.127
-0.897,-0.248,-0.339,-18.95,1.62,-0.49,1785101633441.397
-0.901,-0.235,-0.327,-23.01,1.4,-0.76,1785101633447.022
-0.899,-0.23,-0.317,-27.22,-0.03,-0.21,1785101633457.366
-0.892,-0.236,-0.31,-30.18,-1.31,0.31,1785101633467.8408
-0.888,-0.243,-0.315,-31.4,-2.26,-0.37,1785101633478.262
-0.879,-0.259,-0.328,-30.88,-2.08,-1.31,1785101633491.659
-0.889,-0.293,-0.346,-28.96,-1.34,-2.75,1785101633497.2422
-0.902,-0.311,-0.359,-27.28,-0.76,-5.31,1785101633507.61
-0.906,-0.31,-0.365,-26.03,0.4,-6.32,1785101633518.019
-0.901,-0.314,-0.383,-24.93,1.5,-7.14,1785101633528.5352
-0.88,-0.293,-0.412,-25.88,3.27,-9.22,1785101633541.7002
-0.865,-0.251,-0.433,-30.34,6.23,-12.39,1785101633547.499
-0.876,-0.231,-0.417,-37.14,8.55,-16.57,1785101633557.914
-0.88,-0.254,-0.404,-41.81,9.98,-21.49,1785101633568.4429
-0.885,-0.287,-0.396,-44.16,12.02,-27.8,1785101633581.6418
-0.898,-0.305,-0.388,-42.42,14.16,-34.94,1785101633587.663
-0.908,-0.303,-0.4,-38.03,15.84,-39.86,1785101633598.2002
-0.908,-0.319,-0.441,-34.91,17.98,-44.37,1785101633611.669
-0.902,-0.34,-0.489,-35.77,21.7,-49.44,1785101633617.4873
-0.921,-0.355,-0.513,-42.05,26.83,-54.57,1785101633627.889
-0.946,-0.365,-0.505,-50.51,31.04,-59.69,1785101633638.7588
-0.94,-0.373,-0.494,-56.79,34.91,-64.46,1785101633651.9402
-0.931,-0.35,-0.484,-60.3,38.24,-68.15,1785101633657.907
-0.917,-0.375,-0.485,-60.27,41.41,-70.83,1785101633668.4102
-0.922,-0.425,-0.501,-56.15,44.53,-76.54,1785101633681.5989
-0.907,-0.414,-0.542,-50.42,48.43,-80.94,1785101633687.706
-0.896,-0.401,-0.586,-51.42,54.63,-80.05,1785101633698.171
-0.909,-0.487,-0.602,-58.84,60.37,-82.55,1785101633708.549
-0.901,-0.473,-0.605,-62.81,63.78,-87.98,1785101633721.949
-0.87,-0.448,-0.592,-65.89,68.27,-87.22,1785101633727.9739
-0.866,-0.463,-0.599,-68.76,71.08,-89.57,1785101633738.372
-0.862,-0.439,-0.596,-71.78,73.24,-92.23,1785101633751.7068
-0.831,-0.46,-0.614,-72.24,75.84,-92.78,1785101633757.712
-0.797,-0.453,-0.649,-71.78,79.62,-92.72,1785101633767.988
-0.797,-0.448,-0.687,-72.94,83.9,-93.17,1785101633779.0862
-0.8,-0.427,-0.713,-78.1,88.11,-92.75,1785101633792.0288
-0.781,-0.441,-0.721,-83.65,92.26,-91.46,1785101633798.006
-0.778,-0.528,-0.74,-83.65,94.88,-92.47,1785101633808.3232
-0.769,-0.609,-0.761,-76.69,98.97,-92.78,1785101633821.79
-0.767,-0.598,-0.774,-66.29,103.92,-93.36,1785101633827.7139
-0.758,-0.599,-0.773,-55.64,108.04,-93.75,1785101633838.452
-0.718,-0.65,-0.789,-41.2,112.37,-93.87,1785101633851.379
-0.723,-0.598,-0.827,-28.57,117.37,-95.61,1785101633857.665
-0.726,-0.589,-0.854,-21.73,122.17,-96.77,1785101633868.577
-0.714,-0.58,-0.871,-18.71,126.32,-101.6,1785101633881.423
-0.701,-0.505,-0.883,-21.06,130.83,-103.21,1785101633888.02
-0.642,-0.519,-0.876,-26.58,135.32,-100.44,1785101633898.562
-0.597,-0.543,-0.887,-29.42,137.91,-101.54,1785101633911.8552
-0.561,-0.556,-0.933,-28.29,140.69,-103.46,1785101633917.726
-0.538,-0.539,-0.968,-28.11,144.47,-104.5,1785101633928.982
-0.51,-0.505,-1.006,-30.27,147.83,-104.1,1785101633941.921
-0.474,-0.532,-1.059,-33.23,152.68,-104.01,1785101633948.063
-0.465,-0.556,-1.036,-39.77,157.84,-106.11,1785101633961.613
-0.445,-0.554,-0.991,-43.82,160.5,-106.6,1785101633967.3972
-0.396,-0.545,-0.974,-42.66,161.99,-105.04,1785101633978.509
-0.349,-0.524,-0.974,-40.19,163.4,-104.04,1785101633991.575
-0.308,-0.511,-0.983,-37.72,164.07,-104.25,1785101633997.728
-0.267,-0.493,-1.009,-35.4,164.8,-104.56,1785101634008.5098
-0.234,-0.507,-1.049,-32.2,166.84,-104.62,1785101634021.78
-0.214,-0.505,-1.068,-31.43,169.16,-105.99,1785101634027.621
-0.177,-0.465,-1.038,-33.51,170.29,-108.19,1785101634038.998
-0.181,-0.473,-1.012,-33.66,171.91,-110.87,1785101634051.865
-0.114,-0.454,-1.067,-37.9,173.1,-108.95,1785101634057.9463
-0.046,-0.356,-1.008,-45.41,172.37,-106.94,1785101634071.6282
0.005,-0.305,-0.969,-52.31,171.85,-104.43,1785101634077.554
0.061,-0.31,-0.994,-61.31,172.43,-100.65,1785101634088.569
0.082,-0.375,-1.021,-70.47,174.75,-100.19,1785101634101.6208
0.054,-0.408,-1.011,-79.87,176.27,-102.21,1785101634107.564
0.051,-0.399,-1.0,-87.16,176.95,-100.86,1785101634118.825
0.085,-0.37,-0.941,-90.18,177.25,-97.26,1785101634131.98
0.134,-0.326,-0.909,-87.44,175.6,-94.58,1785101634138.06
0.175,-0.313,-0.907,-81.61,174.35,-92.96,1785101634148.724
0.189,-0.318,-0.918,-78.8,172.89,-91.83,1785101634162.1143
0.193,-0.304,-0.939,-80.08,172.28,-89.45,1785101634167.683
0.199,-0.31,-0.915,-82.09,171.67,-86.73,1785101634178.892
0.213,-0.313,-0.88,-82.86,169.01,-85.63,1785101634191.9592
0.243,-0.287,-0.878,-81.09,166.57,-84.11,1785101634197.923
0.277,-0.267,-0.872,-77.7,165.47,-81.97,1785101634208.479
0.286,-0.247,-0.851,-75.44,163.55,-81.12,1785101634221.653
0.291,-0.241,-0.842,-75.32,161.72,-80.32,1785101634227.603
0.294,-0.25,-0.795,-76.33,159.46,-79.38,1785101634238.63
0.307,-0.242,-0.771,-76.02,155.89,-77.79,1785101634251.589
0.322,-0.221,-0.734,-74.13,152.53,-75.35,1785101634257.571
0.347,-0.213,-0.725,-69.55,147.92,-73.34,1785101634268.5308
0.372,-0.194,-0.722,-64.97,143.8,-72.79,1785101634281.832
0.39,-0.171,-0.684,-61.1,140.23,-72.57,1785101634287.8552
0.417,-0.164,-0.686,-56.58,136.39,-72.12,1785101634298.519
0.43,-0.156,-0.657,-54.29,133.3,-72.48,1785101634311.667
0.437,-0.123,-0.611,-52.74,127.87,-71.9,1785101634317.3152
0.465,-0.089,-0.6,-49.81,122.62,-69.25,1785101634328.377
0.481,-0.063,-0.586,-47.4,117.98,-66.9,1785101634341.7568
0.485,-0.043,-0.579,-46.94,113.68,-65.28,1785101634347.6968
0.485,-0.027,-0.566,-48.46,109.5,-63.78,1785101634358.431
0.495,-0.025,-0.549,-50.11,105.38,-62.93,1785101634371.574
0.501,-0.032,-0.529,-51.21,101.47,-62.87,1785101634377.6838
0.514,-0.044,-0.539,-51.3,97.51,-61.89,1785101634388.253
0.523,-0.047,-0.519,-51.12,93.63,-60.43,1785101634401.4568
0.537,-0.046,-0.503,-49.01,89.27,-57.44,1785101634407.167
0.548,-0.047,-0.47,-44.56,85.18,-54.75,1785101634418.045
0.558,-0.026,-0.423,-37.63,79.87,-53.16,1785101634428.639
0.573,-0.009,-0.419,-28.26,74.71,-52.55,1785101634441.725
0.572,0.029,-0.42,-21.27,70.53,-52.92,1785101634447.634
0.572,0.071,-0.436,-18.22,66.13,-52.64,1785101634458.385
0.572,0.071,-0.436,-18.89,62.9,-51.7,1785101634471.5322
0.577,0.089,-0.457,-21.33,59.69,-50.42,1785101634477.26
0.585,0.105,-0.444,-22.55,55.67,-48.01,1785101634488.052
0.604,0.119,-0.43,-21.91,52.4,-45.5,1785101634499.001
0.618,0.116,-0.427,-21.49,49.13,-43.34,1785101634511.898
0.624,0.125,-0.409,-21.49,49.13,-43.34,1785101634518.026
0.637,0.127,-0.41,-19.5,45.69,-41.66,1785101634528.905
0.653,0.135,-0.41,-16.72,43.21,-41.54,1785101634541.685
0.662,0.172,-0.395,-14.07,39.98,-41.57,1785101634547.5999
0.682,0.188,-0.398,-10.62,36.84,-39.89,1785101634558.1719
0.689,0.196,-0.391,-8.64,33.94,-37.97,1785101634568.533
0.699,0.183,-0.421,-6.59,31.98,-34.7,1785101634581.795
0.687,0.155,-0.438,-3.91,31.77,-31.62,1785101634588.012
0.68,0.097,-0.466,1.62,32.29,-28.63,1785101634598.1582
0.689,0.046,-0.434,10.41,32.65,-26.22,1785101634608.701
0.728,0.03,-0.378,24.35,30.52,-24.08,1785101634621.846
0.761,0.063,-0.328,41.35,27.31,-23.19,1785101634627.758
0.759,0.154,-0.31,53.22,22.68,-22.86,1785101634638.5999
0.759,0.236,-0.323,56.06,19.01,-21.18,1785101634651.753
0.752,0.304,-0.318,50.75,15.81,-20.78,1785101634657.741
0.758,0.355,-0.35,42.97,12.82,-20.11,1785101634668.3608
0.766,0.383,-0.39,36.23,11.26,-19.04,1785101634678.5972
0.787,0.399,-0.416,30.67,9.7,-17.37,1785101634692.091
0.821,0.4,-0.466,26.28,8.33,-14.13,1785101634697.597
0.839,0.39,-0.474,21.91,8.21,-9.7,1785101634708.1877
0.85,0.386,-0.475,17.88,7.35,-5.62,1785101634718.963
0.866,0.373,-0.469,14.71,7.17,-2.35,1785101634731.852
0.881,0.364,-0.449,11.41,6.87,-0.58,1785101634737.632
0.905,0.359,-0.436,8.48,6.32,0.82,1785101634747.857
0.922,0.344,-0.424,6.29,5.68,1.5,1785101634758.084
0.931,0.337,-0.422,4.79,4.82,1.46,1785101634768.4329
0.931,0.329,-0.436,4.18,4.61,2.14,1785101634781.76
0.934,0.329,-0.457,4.64,4.3,2.38,1785101634787.646
0.945,0.333,-0.47,5.19,4.79,2.14,1785101634797.428
0.954,0.346,-0.483,5.34,5.52,2.26,1785101634807.7349
0.955,0.346,-0.492,4.3,7.17,2.35,1785101634818.068
0.95,0.354,-0.464,0.92,8.39,2.29,1785101634828.706
0.951,0.346,-0.44,-2.29,8.61,2.69,1785101634841.676
0.94,0.332,-0.412,-4.76,9.13,1.86,1785101634847.504
0.938,0.333,-0.415,-6.84,8.61,1.5,1785101634857.527
0.936,0.321,-0.413,-8.91,8.79,1.46,1785101634867.894
0.925,0.325,-0.388,-11.26,7.87,0.95,1785101634878.4011
0.933,0.319,-0.381,-12.21,7.08,1.46,1785101634888.79
0.921,0.321,-0.35,-13.0,6.41,1.71,1785101634901.8408
0.913,0.333,-0.329,-13.37,4.52,2.2,1785101634907.653
0.906,0.32,-0.327,-13.25,3.11,2.56,1785101634918.051
0.897,0.324,-0.303,-14.59,1.43,2.44,1785101634928.563
0.913,0.33,-0.303,-15.14,-1.28,2.93,1785101634941.634
0.918,0.319,-0.322,-15.81,-2.9,3.11,1785101634947.298
0.915,0.317,-0.318,-17.61,-4.64,2.62,1785101634957.6719
0.932,0.319,-0.332,-18.77,-7.14,3.85,1785101634968.117
0.944,0.333,-0.327,-19.81,-8.76,5.13,1785101634978.5972
0.939,0.361,-0.322,-20.63,-10.96,5.86,1785101634991.833
0.939,0.363,-0.343,-21.06,-11.9,6.68,1785101634997.783
0.924,0.344,-0.346,-22.13,-12.12,6.29,1785101635007.873
0.926,0.34,-0.316,-23.71,-13.98,6.99,1785101635018.534
0.949,0.345,-0.3,-23.68,-16.69,9.16,1785101635031.7039
0.962,0.342,-0.289,-22.37,-18.74,10.19,1785101635037.661
0.984,0.349,-0.272,-21.3,-21.18,9.86,1785101635048.131
1.017,0.36,-0.301,-19.71,-23.62,10.07,1785101635058.806
1.042,0.337,-0.346,-18.01,-23.35,10.04,1785101635072.204
1.043,0.318,-0.384,-18.25,-22.61,8.64,1785101635078.013
1.041,0.28,-0.396,-18.65,-21.52,7.87,1785101635088.289
1.038,0.276,-0.363,-18.52,-22.0,7.26,1785101635099.0798
1.052,0.312,-0.308,-15.9,-24.38,7.63,1785101635112.0122
1.064,0.374,-0.269,-11.51,-28.2,7.72,1785101635117.839
1.065,0.441,-0.248,-9.28,-32.23,7.84,1785101635128.3772
1.047,0.486,-0.296,-12.02,-35.77,8.45,1785101635138.899
0.99,0.46,-0.408,-19.62,-35.74,9.4,1785101635152.0168
0.944,0.409,-0.433,-30.7,-33.23,8.73,1785101635158.0579
0.973,0.36,-0.412,-38.82,-33.63,9.74,1785101635168.106
0.997,0.329,-0.383,-40.28,-35.92,12.67,1785101635178.862
1.005,0.33,-0.344,-35.77,-39.28,15.78,1785101635192.1458
0.996,0.356,-0.324,-28.75,-43.15,18.37,1785101635197.651
1.001,0.391,-0.303,-24.48,-46.94,21.3,1785101635208.3699
0.985,0.393,-0.322,-21.42,-52.43,23.04,1785101635221.811
0.923,0.402,-0.371,-18.95,-55.27,25.45,1785101635227.753
0.872,0.38,-0.438,-19.68,-56.31,29.05,1785101635238.174
0.835,0.356,-0.451,-23.8,-55.97,31.59,1785101635251.3071
0.867,0.327,-0.421,-28.32,-58.05,35.07,1785101635257.3572
0.914,0.304,-0.407,-27.5,-62.96,37.93,1785101635267.9172
0.914,0.307,-0.409,-20.78,-68.54,40.35,1785101635278.802
0.899,0.338,-0.429,-12.09,-74.77,42.7,1785101635291.7969
0.879,0.368,-0.463,-6.96,-79.84,46.14,1785101635297.586
0.844,0.387,-0.492,-7.78,-83.96,50.6,1785101635308.1448
0.799,0.389,-0.54,-14.07,-87.01,54.9,1785101635318.8591
0.725,0.332,-0.626,-22.92,-86.58,57.92,1785101635332.052
0.675,0.239,-0.633,-31.19,-84.41,58.14,1785101635338.024
0.707,0.154,-0.601,-34.58,-87.22,58.81,1785101635348.381
0.739,0.112,-0.591,-29.66,-92.59,61.01,1785101635361.935
0.718,0.128,-0.595,-18.34,-98.88,62.93,1785101635367.684
0.698,0.174,-0.613,-7.17,-105.29,64.82,1785101635378.06
0.667,0.236,-0.653,-2.75,-111.24,66.38,1785101635388.937
0.612,0.282,-0.686,-6.1,-115.36,69.43,1785101635401.8518
0.568,0.29,-0.728,-13.73,-118.72,73.76,1785101635407.722
0.484,0.263,-0.803,-21.27,-119.66,75.99,1785101635418.586
0.357,0.143,-0.892,-27.41,-115.39,76.97,1785101635432.003
0.294,-0.01,-0.884,-32.07,-110.42,76.63,1785101635437.9622
0.339,-0.116,-0.815,-29.27,-111.79,76.45,1785101635448.7131
0.392,-0.156,-0.782,-13.95,-115.27,76.54,1785101635462.101
0.391,-0.096,-0.777,6.16,-118.14,76.54,1785101635467.905
0.385,-0.017,-0.807,21.88,-120.52,77.49,1785101635478.418
0.359,0.043,-0.83,27.86,-121.4,77.03,1785101635491.698
0.31,0.063,-0.856,26.89,-120.91,77.39,1785101635497.938
0.273,0.015,-0.882,24.51,-119.21,77.88,1785101635508.615
0.231,-0.038,-0.899,23.8,-116.79,76.05,1785101635521.5881
0.193,-0.049,-0.894,24.35,-114.81,75.87,1785101635527.367
0.173,-0.044,-0.907,24.2,-115.15,76.97,1785101635538.422
0.17,-0.002,-0.951,17.55,-114.57,79.35,1785101635551.777
0.181,-0.006,-0.952,6.5,-112.06,81.55,1785101635557.873
0.195,-0.037,-0.919,-0.92,-110.05,79.59,1785101635568.335
0.205,-0.055,-0.894,-0.92,-108.34,75.81,1785101635581.3289
0.188,-0.082,-0.854,6.01,-106.27,70.65,1785101635587.117
0.154,-0.076,-0.866,16.72,-104.83,66.04,1785101635597.96
0.128,-0.009,-0.913,20.26,-100.44,69.4,1785101635608.875
0.106,0.03,-0.95,15.72,-94.36,75.14,1785101635621.9631
0.112,0.042,-0.968,6.87,-87.47,79.53,1785101635627.794
0.136,0.005,-0.961,-0.06,-80.48,82.64,1785101635638.845
0.154,-0.024,-0.936,-1.13,-73.64,83.41,1785101635651.412
0.166,-0.066,-0.914,2.75,-66.74,82.83,1785101635657.304
0.164,-0.105,-0.902,7.35,-60.55,79.99,1785101635667.816
0.177,-0.152,-0.894,10.96,-57.04,76.54,1785101635678.5012
0.195,-0.212,-0.952,13.82,-54.69,71.17,1785101635691.745
0.215,-0.224,-1.064,15.56,-48.77,64.24,1785101635697.2192
0.27,-0.23,-1.082,16.57,-38.64,57.71,1785101635708.123
0.322,-0.305,-1.026,22.86,-28.41,46.63,1785101635718.941
0.317,-0.263,-0.992,34.03,-19.87,32.07,1785101635731.945
0.295,-0.171,-0.897,48.31,-12.91,25.33,1785101635738.097
0.256,-0.072,-0.923,62.11,-9.92,20.39,1785101635748.2869
0.256,-0.072,-0.923,69.7,-6.93,18.31,1785101635761.771
0.293,-0.088,-0.876,70.41,-5.4,7.75,1785101635767.5562
0.29,-0.174,-0.987,59.54,-3.45,1.31,1785101635777.649
0.245,-0.099,-1.028,48.4,-0.49,1.92,1785101635788.254
0.221,-0.06,-1.027,48.4,-0.49,1.92,1785101635798.462
0.227,-0.068,-0.956,38.33,0.64,0.76,1785101635811.857
0.234,-0.088,-0.928,32.59,-1.22,-2.59,1785101635817.7031
0.226,-0.093,-0.938,26.64,-2.14,-4.61,1785101635827.807
0.233,-0.094,-0.963,16.97,-3.45,-4.21,1785101635838.339
0.248,-0.099,-0.983,6.68,-4.09,-3.17,1785101635848.642
0.262,-0.11,-0.963,-0.98,-4.03,-2.75,1785101635861.8838
0.278,-0.118,-0.941,-5.43,-3.05,-3.45,1785101635867.6602
0.276,-0.112,-0.935,-7.93,-2.47,-4.97,1785101635877.594
0.262,-0.115,-0.943,-11.14,-2.53,-6.35,1785101635888.057
0.256,-0.143,-0.947,-15.66,-3.51,-7.72,1785101635898.488
0.266,-0.172,-0.952,-18.89,-4.09,-8.55,1785101635911.783
0.281,-0.174,-0.959,-20.05,-3.66,-9.37,1785101635917.557
0.291,-0.148,-0.965,-20.51,-2.78,-10.16,1785101635927.6511
0.296,-0.139,-0.966,-20.63,-1.65,-11.17,1785101635938.219
0.29,-0.144,-0.946,-19.32,-0.82,-11.35,1785101635948.999
0.285,-0.14,-0.93,-14.86,-0.85,-10.93,1785101635962.2668
0.279,-0.122,-0.92,-8.39,-1.68,-10.1,1785101635967.714
0.279,-0.103,-0.931,-3.17,-2.17,-8.45,1785101635977.935
0.276,-0.104,-0.94,-1.56,-1.92,-7.08,1785101635988.5308
0.275,-0.112,-0.943,-1.71,-2.14,-5.74,1785101635999.064
0.279,-0.118,-0.953,-1.4,-2.56,-4.49,1785101636011.961
0.279,-0.118,-0.952,-0.55,-2.5,-3.48,1785101636017.3982
0.283,-0.113,-0.954,0.7,-2.93,-3.2,1785101636027.77
0.288,-0.1,-0.957,1.28,-3.69,-2.78,1785101636038.182
0.286,-0.094,-0.963,0.92,-3.97,-2.08,1785101636048.537
0.278,-0.1,-0.975,-0.18,-3.63,-1.77,1785101636061.538
0.274,-0.104,-0.97,-2.11,-3.42,-1.77,1785101636067.1943
0.282,-0.117,-0.972,-3.66,-3.42,-1.62,1785101636077.465
0.289,-0.127,-0.98,-4.94,-3.42,-2.11,1785101636087.6912
0.278,-0.128,-0.987,-6.13,-3.3,-3.02,1785101636098.135
0.264,-0.125,-0.993,-7.35,-3.57,-3.88,1785101636108.5862
0.261,-0.116,-0.991,-9.92,-4.7,-4.55,1785101636121.792
0.267,-0.108,-0.975,-13.28,-5.55,-5.31,1785101636127.6082
0.272,-0.102,-0.931,-15.2,-5.25,-5.58,1785101636137.773
0.284,-0.102,-0.87,-13.49,-5.46,-5.22,1785101636147.9248
0.295,-0.117,-0.834,-8.48,-6.5,-5.68,1785101636158.526
0.298,-0.137,-0.855,-2.29,-6.9,-7.69,1785101636171.9128
0.278,-0.154,-0.914,3.02,-6.07,-9.43,1785101636177.424
0.255,-0.156,-0.961,6.9,-4.52,-10.28,1785101636187.5898
0.239,-0.154,-0.978,10.59,-3.51,-10.13,1785101636198.1353
0.238,-0.143,-0.964,15.2,-3.45,-8.48,1785101636208.5781
0.249,-0.114,-0.955,20.36,-4.94,-6.1,1785101636221.797
0.258,-0.082,-0.966,23.83,-5.71,-3.81,1785101636227.711
0.263,-0.057,-0.97,24.66,-6.32,-1.34,1785101636237.667
0.274,-0.055,-0.981,23.53,-7.02,0.37,1785101636248.0771
0.276,-0.071,-0.988,21.67,-6.78,1.13,1785101636258.7021
0.269,-0.098,-0.994,18.68,-6.13,1.65,1785101636271.9639
0.268,-0.123,-1.008,15.17,-4.91,1.95,1785101636277.759
0.272,-0.142,-1.009,12.27,-3.08,2.5,1785101636287.7388
0.283,-0.159,-0.993,11.26,-2.44,2.96,1785101636298.387
0.295,-0.164,-0.989,11.66,-2.72,2.41,1785101636308.907
0.302,-0.162,-0.984,11.9,-2.56,0.82,1785101636322.0889
0.302,-0.146,-0.982,11.78,-2.72,-0.82,1785101636327.905
0.296,-0.127,-0.984,10.8,-2.2,-1.86,1785101636338.0361
0.293,-0.122,-0.969,8.39,-1.25,-2.59,1785101636348.2393
0.297,-0.121,-0.957,4.85,-1.5,-3.02,1785101636358.798
0.295,-0.119,-0.953,0.79,-1.37,-2.62,1785101636371.9412
0.296,-0.121,-0.958,-3.08,-1.04,-2.11,1785101636377.404
0.295,-0.125,-0.971,-6.35,-1.01,-1.98,1785101636387.6428
0.289,-0.122,-0.974,-9.64,-0.92,-2.14,1785101636398.0679
0.29,-0.118,-0.977,-12.48,-1.16,-2.04,1785101636408.5132
0.289,-0.112,-0.98,-15.08,-0.67,-2.59,1785101636421.835
0.279,-0.109,-0.981,-17.88,-0.21,-2.99,1785101636427.718
0.274,-0.116,-0.985,-21.0,0.09,-3.14,1785101636437.75
0.27,-0.127,-0.974,-23.56,0.37,-3.17,1785101636448.149
0.275,-0.138,-0.961,-24.08,0.21,-2.62,1785101636458.64
0.282,-0.144,-0.963,-22.95,0.09,-2.04,1785101636471.8442
0.275,-0.144,-0.965,-20.84,0.43,-1.34,1785101636477.302
0.263,-0.146,-0.975,-18.62,1.22,-0.85,1785101636487.884
0.252,-0.15,-0.986,-17.18,2.08,-0.27,1785101636498.359
0.246,-0.16,-0.982,-15.32,2.99,0.12,1785101636508.641
0.242,-0.178,-0.965,-12.42,3.45,0.18,1785101636522.12
0.246,-0.187,-0.946,-8.45,3.66,0.21,1785101636527.7751
0.261,-0.182,-0.931,-3.54,2.72,0.34,1785101636537.719
0.275,-0.149,-0.933,0.4,1.34,0.79,1785101636548.2083
0.278,-0.112,-0.909,3.17,-0.06,1.89,1785101636558.513
0.288,-0.096,-0.906,5.49,-1.77,2.62,1785101636571.709
0.292,-0.083,-0.909,5.77,-2.29,2.56,1785101636577.064
0.289,-0.079,-0.906,4.85,-2.5,2.26,1785101636587.554
0.294,-0.083,-0.914,3.63,-2.59,1.95,1785101636598.041
0.303,-0.083,-0.945,1.8,-1.83,1.25,1785101636608.2239
0.289,-0.078,-0.969,-0.37,-0.21,0.15,1785101636618.405
0.268,-0.074,-0.984,-2.78,0.92,-1.34,1785101636631.753
0.255,-0.08,-0.99,-5.22,1.59,-2.35,1785101636637.491
0.254,-0.099,-0.989,-7.14,1.89,-3.39,1785101636647.583
0.264,-0.108,-0.988,-8.48,1.46,-3.72,1785101636657.9321
0.261,-0.104,-0.976,-8.76,0.92,-2.84,1785101636668.1963
0.257,-0.096,-0.966,-6.99,0.31,-1.77,1785101636678.862
0.26,-0.088,-0.957,-4.97,-0.18,-1.53,1785101636691.854
0.261,-0.084,-0.957,-4.55,-0.73,-1.34,1785101636697.655
0.266,-0.083,-0.97,-6.1,-1.07,-1.1,1785101636707.4648
0.276,-0.086,-0.986,-8.91,-1.04,-0.79,1785101636717.901
0.278,-0.093,-0.995,-11.51,-0.12,-0.85,1785101636728.466
0.269,-0.104,-0.984,-12.33,0.79,-1.37,1785101636741.523
0.266,-0.104,-0.979,-11.96,0.37,-2.01,1785101636747.342
0.277,-0.089,-0.984,-12.45,-0.31,-2.84,1785101636757.668
0.282,-0.078,-0.978,-12.91,-0.43,-3.39,1785101636767.971
0.28,-0.08,-0.983,-12.67,-0.09,-3.91,1785101636778.441
0.275,-0.083,-0.987,-13.28,0.58,-4.7,1785101636791.847
0.275,-0.078,-0.994,-15.35,0.85,-5.13,1785101636797.696
0.275,-0.076,-0.996,-17.52,1.56,-5.31,1785101636807.6238
0.271,-0.082,-0.997,-18.92,2.62,-5.62,1785101636818.0361
0.265,-0.082,-0.998,-19.84,3.17,-6.1,1785101636828.9841
0.266,-0.086,-0.996,-20.14,3.33,-6.59,1785101636841.9941
0.269,-0.091,-0.99,-19.75,3.36,-7.32,1785101636847.826
0.266,-0.091,-0.974,-18.74,3.08,-8.27,1785101636857.929
0.269,-0.087,-0.954,-16.94,2.69,-8.76,1785101636868.282
0.272,-0.072,-0.953,-14.95,2.44,-9.25,1785101636879.3071
0.27,-0.052,-0.945,-14.95,2.5,-9.46,1785101636892.099
0.273,-0.048,-0.953,-16.48,2.59,-9.16,1785101636897.909
0.276,-0.048,-0.964,-19.5,3.08,-8.7,1785101636907.851
0.279,-0.052,-0.969,-21.64,3.6,-8.09,1785101636918.57
0.285,-0.062,-0.975,-21.21,4.27,-8.09,1785101636931.741
0.29,-0.071,-0.972,-19.07,5.19,-8.61,1785101636937.296
0.289,-0.078,-0.957,-15.23,5.77,-9.0,1785101636947.7173
0.292,-0.079,-0.938,-9.74,6.07,-9.4,1785101636958.101
0.291,-0.068,-0.921,-3.75,5.52,-9.92,1785101636968.259
0.295,-0.051,-0.925,1.95,4.67,-10.13,1785101636981.593
0.292,-0.031,-0.939,5.95,4.33,-10.56,1785101636987.633
0.289,-0.012,-0.954,7.29,4.3,-10.8,1785101636997.649
0.291,0.004,-0.981,5.89,4.52,-10.65,1785101637007.9282
0.293,0.017,-0.995,2.47,5.55,-10.38,1785101637018.456
0.293,0.016,-0.991,-1.04,6.93,-9.92,1785101637031.669
0.293,0.016,-0.991,-3.63,8.24,-9.67,1785101637037.3152
0.291,0.009,-0.973,-5.07,8.73,-9.0,1785101637047.505
0.29,0.003,-0.951,-4.73,8.61,-8.42,1785101637057.9253
0.294,-0.007,-0.937,-3.42,8.03,-8.15,1785101637068.257
0.292,-0.019,-0.927,-1.4,6.96,-7.75,1785101637078.923
0.292,-0.024,-0.923,-1.4,6.96,-7.75,1785101637091.931
0.291,-0.024,-0.928,0.79,5.92,-7.29,1785101637097.551
0.291,-0.014,-0.939,1.89,4.52,-6.78,1785101637107.405
0.293,0.001,-0.954,0.95,3.57,-6.1,1785101637117.9258
0.293,0.008,-0.962,-1.34,3.85,-5.1,1785101637128.416
0.297,0.0,-0.964,-2.87,4.76,-4.15,1785101637138.72
0.296,-0.011,-0.949,-3.02,5.55,-4.0,1785101637151.7583
0.291,-0.022,-0.935,-1.43,5.65,-3.94,1785101637157.439
0.29,-0.036,-0.926,1.37,5.19,-3.57,1785101637167.54
0.294,-0.05,-0.916,4.43,4.3,-3.78,1785101637177.7861
0.292,-0.052,-0.913,7.29,3.33,-4.12,1785101637188.231
0.294,-0.043,-0.911,9.67,2.53,-3.94,1785101637198.905
0.298,-0.034,-0.917,11.02,2.23,-3.57,1785101637212.0352
0.299,-0.03,-0.934,11.35,2.29,-3.63,1785101637217.9412
0.294,-0.031,-0.936,11.32,2.53,-4.15,1785101637228.194
0.293,-0.043,-0.937,11.66,2.56,-4.82,1785101637238.2751
0.299,-0.057,-0.943,12.24,2.66,-6.2,1785101637248.919
0.305,-0.079,-0.949,13.98,3.27,-8.09,1785101637262.2522
0.303,-0.1,-0.957,17.46,4.64,-10.16,1785101637268.068
0.299,-0.111,-0.95,21.82,5.98,-11.99,1785101637278.338
0.298,-0.093,-0.941,25.21,6.44,-13.0,1785101637288.9119
0.307,-0.059,-0.945,26.61,6.1,-12.85,1785101637301.8381
0.317,-0.022,-0.96,25.42,6.16,-12.42,1785101637307.659
0.315,-0.002,-0.969,21.76,6.65,-12.39,1785101637318.5278
0.318,-0.001,-0.966,16.66,6.93,-12.91,1785101637328.65
0.321,-0.008,-0.967,11.81,7.11,-13.61,1785101637341.92
0.318,-0.015,-0.967,7.72,7.29,-14.13,1785101637348.011
0.313,-0.025,-0.96,4.43,7.57,-14.34,1785101637358.055
0.316,-0.036,-0.949,1.74,7.72,-14.37,1785101637368.385
0.321,-0.051,-0.938,0.06,7.72,-14.19,1785101637381.682
0.32,-0.058,-0.932,-0.58,7.29,-14.28,1785101637387.5999
0.323,-0.052,-0.934,-0.43,6.53,-14.1,1785101637397.774
0.328,-0.047,-0.935,0.58,6.16,-13.49,1785101637408.0288
0.324,-0.045,-0.941,0.46,6.41,-13.55,1785101637418.528
0.317,-0.043,-0.949,-1.07,6.56,-14.13,1785101637431.9019
0.312,-0.046,-0.952,-3.51,6.96,-14.83,1785101637437.7458
0.309,-0.064,-0.946,-5.34,7.66,-15.99,1785101637447.857
0.31,-0.089,-0.945,-5.28,8.73,-17.98,1785101637458.287
0.309,-0.099,-0.932,-2.72,10.25,-19.96,1785101637468.858
0.308,-0.102,-0.918,3.14,11.57,-21.58,1785101637481.952
0.306,-0.095,-0.907,11.57,13.25,-23.59,1785101637487.659
0.298,-0.096,-0.889,21.3,15.02,-25.73,1785101637498.451
0.292,-0.108,-0.876,31.92,17.18,-28.53,1785101637511.77
0.279,-0.135,-0.857,44.16,20.11,-31.98,1785101637517.707
0.257,-0.175,-0.815,58.75,23.41,-36.32,1785101637528.383
0.225,-0.239,-0.775,77.33,26.67,-42.3,1785101637538.968
0.188,-0.298,-0.708,96.77,30.09,-49.96,1785101637551.986
0.155,-0.325,-0.656,114.23,31.92,-58.69,1785101637558.1108
0.14,-0.3,-0.67,129.95,32.9,-66.87,1785101637568.7603
0.132,-0.233,-0.683,142.12,34.06,-73.21,1785101637581.992
0.106,-0.191,-0.67,151.77,34.12,-79.47,1785101637588.083
0.08,-0.184,-0.683,158.3,33.14,-86.12,1785101637598.987
0.061,-0.189,-0.68,160.99,32.78,-91.92,1785101637612.0022
0.046,-0.209,-0.671,162.45,32.78,-94.88,1785101637617.492
0.056,-0.24,-0.666,164.59,34.58,-95.43,1785101637629.0078
0.083,-0.246,-0.664,166.17,36.38,-94.7,1785101637641.973
0.123,-0.238,-0.681,166.81,36.44,-91.86,1785101637647.886
0.156,-0.237,-0.713,164.98,34.88,-88.23,1785101637658.686
0.162,-0.243,-0.739,158.97,33.14,-85.12,1785101637672.03
0.141,-0.262,-0.746,150.46,31.95,-81.0,1785101637677.8171
0.12,-0.286,-0.728,141.76,31.34,-76.66,1785101637688.5051
0.127,-0.305,-0.688,136.23,31.5,-73.52,1785101637701.5947
0.163,-0.318,-0.64,136.3,31.95,-71.57,1785101637707.4949
0.215,-0.323,-0.61,140.29,30.95,-69.98,1785101637718.835
0.256,-0.329,-0.599,145.3,28.72,-67.05,1785101637731.8022
0.288,-0.339,-0.598,148.08,26.86,-62.59,1785101637737.904
0.315,-0.342,-0.627,145.18,25.18,-56.61,1785101637748.2979
0.338,-0.342,-0.656,134.8,23.74,-49.5,1785101637761.826
0.346,-0.34,-0.657,118.81,22.46,-41.35,1785101637767.5112
0.34,-0.346,-0.667,101.57,22.4,-32.17,1785101637778.535
0.327,-0.372,-0.657,87.62,24.2,-23.32,1785101637791.8132
0.321,-0.419,-0.614,79.32,25.3,-16.75,1785101637797.817
0.338,-0.462,-0.572,77.73,24.84,-11.6,1785101637808.0498
0.374,-0.51,-0.51,84.2,22.8,-6.87,1785101637818.5798
0.417,-0.549,-0.458,96.41,18.89,-2.81,1785101637831.861
0.474,-0.562,-0.452,112.0,14.95,3.39,1785101637837.659
0.492,-0.546,-0.498,123.91,10.99,12.18,1785101637848.371
0.455,-0.498,-0.548,123.42,8.76,21.73,1785101637861.7668
0.398,-0.465,-0.569,109.29,6.26,30.24,1785101637867.315
0.37,-0.449,-0.585,86.0,2.93,39.8,1785101637878.091
0.372,-0.484,-0.583,62.32,0.15,49.78,1785101637888.725
0.346,-0.515,-0.618,44.04,-1.28,57.34,1785101637901.681
0.314,-0.568,-0.585,34.88,0.34,65.22,1785101637907.5022
0.314,-0.596,-0.438,27.01,-7.51,70.53,1785101637918.7148
0.378,-0.608,-0.41,24.66,-16.88,75.75,1785101637928.514
0.418,-0.646,-0.392,30.92,-21.79,83.38,1785101637941.8838
0.425,-0.706,-0.406,46.48,-25.85,89.91,1785101637947.927
0.397,-0.782,-0.463,65.49,-29.3,93.51,1785101637958.465
0.347,-0.83,-0.531,76.88,-33.63,97.17,1785101637971.4702
0.304,-0.84,-0.563,75.35,-39.34,104.34,1785101637977.437
0.276,-0.812,-0.557,62.69,-44.89,114.72,1785101637988.4082
0.273,-0.777,-0.555,47.18,-49.68,127.87,1785101638001.4458
0.286,-0.776,-0.556,34.91,-53.96,141.18,1785101638007.4019
0.274,-0.787,-0.567,24.9,-58.32,149.85,1785101638018.1912
0.245,-0.79,-0.589,17.37,-62.96,154.67,1785101638031.6511
0.224,-0.808,-0.596,14.77,-66.65,158.15,1785101638037.634
0.204,-0.87,-0.587,18.22,-69.43,160.07,1785101638048.159
0.186,-0.947,-0.58,27.19,-72.33,161.2,1785101638061.386
0.17,-1.003,-0.578,41.81,-75.84,164.28,1785101638067.242
0.157,-1.021,-0.588,59.18,-79.87,170.29,1785101638078.33
0.15,-1.0,-0.663,72.12,-83.9,177.95,1785101638088.916
0.141,-0.922,-0.78,71.02,-86.46,185.13,1785101638102.012
0.125,-0.776,-0.86,51.27,-88.26,191.38,1785101638107.996
0.112,-0.663,-0.913,20.02,-89.97,197.85,1785101638119.637
0.09,-0.671,-0.943,-16.82,-90.49,200.38,1785101638132.056
0.041,-0.806,-0.916,-52.55,-89.27,194.68,1785101638138.207
-0.024,-0.999,-0.829,-75.35,-88.6,183.2,1785101638148.763
-0.06,-1.155,-0.718,-75.11,-89.94,173.01,1785101638162.2559
-0.086,-1.234,-0.649,-50.66,-94.0,170.05,1785101638167.874
-0.023,-1.23,-0.682,-11.2,-100.65,175.6,1785101638178.972
0.033,-1.03,-0.765,27.53,-101.81,174.93,1785101638192.201
-0.007,-0.786,-0.85,52.61,-94.39,172.06,1785101638198.199
-0.034,-0.727,-0.956,57.13,-85.67,171.88,1785101638211.515
-0.137,-0.745,-1.006,32.72,-81.7,163.73,1785101638217.511
-0.258,-0.761,-0.959,-9.64,-81.24,159.06,1785101638227.9502
-0.307,-0.815,-0.869,-46.3,-77.97,162.27,1785101638238.808
-0.308,-0.897,-0.812,-69.77,-76.24,163.03,1785101638252.096
