ax,ay,az,gx,gy,gz,timestamp_ms
0.245,-0.204,-0.885,21.45,-9.19,-52.98,1785084763572.512
0.268,-0.204,-0.892,14.47,-11.44,-50.42,1785084763573.079
0.28,-0.212,-0.933,8.51,-12.82,-47.88,1785084763573.623
0.277,-0.231,-0.952,4.64,-13.61,-45.9,1785084763574.1482
0.265,-0.256,-0.978,4.3,-14.95,-45.32,1785084763574.6628
0.279,-0.261,-1.019,4.7,-15.9,-44.04,1785084763575.193
0.314,-0.249,-1.057,3.94,-15.9,-42.02,1785084763575.8828
0.34,-0.235,-1.087,1.22,-15.38,-40.25,1785084763576.555
0.365,-0.219,-1.103,-3.6,-14.71,-38.97,1785084763577.159
0.391,-0.223,-1.114,-9.74,-13.98,-37.9,1785084763577.7158
0.39,-0.24,-1.126,-16.45,-12.18,-37.26,1785084763578.264
0.358,-0.251,-1.132,-22.0,-10.01,-35.65,1785084763580.254
0.33,-0.256,-1.126,-24.87,-8.7,-32.75,1785084763580.958
0.368,-0.263,-1.128,-24.69,-8.94,-30.79,1785084763581.7869
0.442,-0.278,-1.148,-22.55,-9.0,-30.46,1785084763582.37
0.471,-0.277,-1.159,-21.82,-7.32,-30.15,1785084763583.034
0.47,-0.286,-1.168,-22.49,-4.49,-29.45,1785084763583.6858
0.467,-0.295,-1.174,-23.26,-0.82,-29.97,1785084763584.3542
0.437,-0.305,-1.162,-21.73,3.54,-31.46,1785084763585.207
0.374,-0.318,-1.128,-17.76,7.02,-32.65,1785084763585.9211
0.35,-0.328,-1.095,-13.28,8.79,-32.93,1785084763586.823
0.392,-0.316,-1.077,-10.25,10.13,-33.14,1785084763587.393
0.42,-0.291,-1.074,-8.97,12.51,-32.99,1785084763587.9668
0.43,-0.265,-1.08,-10.56,15.93,-32.35,1785084763588.4758
0.436,-0.25,-1.087,-14.1,20.26,-32.78,1785084763588.9822
0.434,-0.25,-1.084,-17.46,25.06,-34.52,1785084763589.705
0.434,-0.25,-1.084,-18.92,29.6,-37.54,1785084763590.462
0.427,-0.27,-1.084,-18.28,34.33,-40.8,1785084763590.998
0.415,-0.302,-1.084,-16.17,39.12,-43.52,1785084763592.0059
0.382,-0.328,-1.079,-13.15,43.46,-44.77,1785084763592.694
0.353,-0.335,-1.053,-13.15,43.46,-44.77,1785084763593.844
0.348,-0.32,-1.021,-10.35,47.3,-44.56,1785084763594.6218
0.357,-0.31,-0.999,-7.29,51.12,-44.5,1785084763595.433
0.35,-0.313,-0.978,-3.6,55.39,-46.02,1785084763596.441
0.345,-0.332,-0.964,1.89,60.24,-48.65,1785084763597.0107
0.335,-0.353,-0.975,8.82,65.68,-52.16,1785084763597.522
0.311,-0.352,-0.99,14.83,71.66,-55.39,1785084763598.0051
0.283,-0.357,-0.984,19.84,77.43,-58.23,1785084763598.504
0.256,-0.375,-0.977,24.96,82.98,-62.29,1785084763599.014
0.222,-0.383,-0.936,30.12,87.89,-67.29,1785084763599.971
0.2,-0.37,-0.865,35.77,90.46,-71.23,1785084763600.519
0.192,-0.338,-0.786,41.41,90.88,-74.19,1785084763601.0781
0.194,-0.293,-0.742,46.82,90.21,-76.17,1785084763601.7139
0.189,-0.275,-0.74,52.61,90.4,-77.85,1785084763602.22
0.149,-0.257,-0.742,56.12,91.77,-80.97,1785084763602.709
0.109,-0.227,-0.74,57.31,93.48,-83.25,1785084763603.22
0.09,-0.221,-0.731,58.32,95.13,-84.78,1785084763603.7068
0.08,-0.202,-0.703,58.11,95.98,-85.79,1785084763604.189
0.085,-0.171,-0.672,58.23,96.19,-84.32,1785084763604.6873
0.096,-0.135,-0.637,59.11,95.86,-81.48,1785084763605.1829
0.103,-0.104,-0.612,59.54,94.52,-77.76,1785084763605.6929
0.109,-0.093,-0.575,59.36,93.17,-74.19,1785084763606.179
0.105,-0.088,-0.53,59.05,91.43,-70.96,1785084763606.6711
0.116,-0.069,-0.482,57.59,89.14,-65.34,1785084763607.1902
0.143,-0.026,-0.435,55.15,84.84,-56.49,1785084763607.668
0.187,0.0,-0.407,53.5,79.32,-45.75,1785084763608.157
0.219,0.012,-0.385,50.81,73.27,-35.65,1785084763608.644
0.24,0.043,-0.373,46.14,66.53,-24.87,1785084763609.121
0.269,0.079,-0.372,41.78,60.34,-11.35,1785084763609.73
0.282,0.096,-0.366,38.36,54.41,3.3,1785084763610.2212
0.296,0.111,-0.363,34.49,48.04,18.43,1785084763611.035
0.327,0.142,-0.374,29.48,41.11,35.04,1785084763611.592
0.365,0.173,-0.386,23.87,34.82,53.74,1785084763612.281
0.388,0.186,-0.389,17.58,28.14,72.91,1785084763612.775
0.403,0.172,-0.382,10.32,20.78,91.74,1785084763613.548
0.384,0.149,-0.385,2.53,11.23,111.24,1785084763614.23
0.369,0.139,-0.345,-4.18,4.3,131.96,1785084763614.717
0.319,0.089,-0.327,-7.9,-5.46,153.05,1785084763615.2341
0.268,-0.008,-0.277,-8.3,-13.31,174.2,1785084763615.7441
0.228,-0.155,-0.219,-6.16,-25.57,193.76,1785084763616.306
0.275,-0.295,-0.186,-2.26,-43.89,213.08,1785084763616.813
0.331,-0.406,-0.196,8.27,-65.49,233.5,1785084763617.3928
0.346,-0.472,-0.201,25.24,-88.9,254.68,1785084763617.931
0.351,-0.506,-0.207,47.03,-111.88,273.35,1785084763618.466
0.349,-0.536,-0.267,73.85,-131.32,285.81,1785084763619.019
0.312,-0.601,-0.382,101.9,-146.58,294.23,1785084763619.565
0.254,-0.668,-0.506,123.78,-154.55,299.3,1785084763620.1028
0.215,-0.714,-0.596,136.17,-156.32,302.74,1785084763620.6602
0.217,-0.763,-0.636,141.97,-157.26,307.93,1785084763621.176
0.251,-0.795,-0.664,142.98,-160.25,314.86,1785084763621.74
0.268,-0.795,-0.684,139.1,-164.71,322.67,1785084763622.2861
0.235,-0.767,-0.687,129.61,-169.77,331.43,1785084763622.7961
0.174,-0.722,-0.658,115.51,-173.22,338.88,1785084763623.314
0.093,-0.708,-0.62,102.08,-174.5,343.61,1785084763623.8643
0.02,-0.785,-0.622,94.73,-175.02,347.61,1785084763624.348
-0.042,-0.923,-0.598,94.82,-175.79,342.6,1785084763624.834
-0.192,-1.074,-0.547,100.71,-178.72,326.94,1785084763625.3882
-0.345,-1.251,-0.558,112.61,-184.39,316.51,1785084763625.875
-0.497,-1.363,-0.58,123.14,-190.47,311.75,1785084763626.407
-0.624,-1.294,-0.573,122.96,-195.04,310.34,1785084763626.911
-0.761,-1.047,-0.638,111.94,-204.66,310.22,1785084763627.615
-0.709,-0.947,-0.725,94.94,-192.51,314.1,1785084763629.213
-0.717,-0.893,-0.764,57.62,-164.86,301.8,1785084763629.749
-0.868,-0.955,-0.797,9.8,-151.46,280.95,1785084763630.368
-0.953,-1.294,-0.758,-27.16,-142.55,264.72,1785084763630.929
-1.126,-1.637,-0.623,-48.28,-137.91,238.01,1785084763631.44
-1.251,-1.778,-0.463,-50.63,-144.2,224.31,1785084763631.949
-1.197,-1.588,-0.33,-32.81,-147.86,224.25,1785084763632.4912
-1.11,-1.298,-0.314,-1.4,-142.28,224.71,1785084763632.994
-1.025,-1.082,-0.395,17.49,-135.75,222.79,1785084763634.2778
-1.005,-0.904,-0.461,7.81,-129.76,210.3,1785084763634.8958
-1.029,-0.823,-0.512,-20.91,-123.02,195.68,1785084763635.432
-1.05,-0.818,-0.572,-55.36,-115.79,182.5,1785084763635.9941
-1.044,-0.82,-0.611,-86.64,-105.5,172.86,1785084763636.5151
-1.02,-0.795,-0.644,-109.9,-95.07,166.45,1785084763637.336
-0.988,-0.734,-0.659,-126.77,-85.97,161.6,1785084763638.033
-0.967,-0.646,-0.649,-140.75,-77.61,155.03,1785084763638.55
-0.982,-0.556,-0.644,-153.23,-73.85,144.72,1785084763639.158
-0.996,-0.517,-0.621,-165.62,-70.22,136.85,1785084763639.786
-0.99,-0.525,-0.57,-176.21,-65.07,131.41,1785084763640.386
-1.033,-0.532,-0.524,-182.59,-63.11,123.63,1785084763641.0828
-1.038,-0.559,-0.47,-183.72,-62.72,119.94,1785084763641.7769
-1.067,-0.565,-0.467,-176.95,-65.25,113.59,1785084763642.335
-1.063,-0.565,-0.498,-165.41,-65.58,108.1,1785084763642.9373
-1.054,-0.543,-0.539,-152.53,-62.35,102.57,1785084763643.521
-1.038,-0.512,-0.582,-138.95,-56.58,96.22,1785084763644.032
-1.02,-0.466,-0.584,-125.4,-48.49,88.56,1785084763644.713
-0.992,-0.424,-0.548,-110.02,-40.22,79.68,1785084763645.3408
-0.959,-0.393,-0.492,-92.47,-32.47,69.37,1785084763645.839
-0.943,-0.364,-0.422,-73.12,-26.7,57.56,1785084763646.345
-0.942,-0.333,-0.364,-52.64,-22.92,44.89,1785084763646.844
-0.943,-0.3,-0.331,-32.38,-20.63,31.89,1785084763647.3447
-0.945,-0.264,-0.325,-13.31,-19.01,19.23,1785084763647.831
-0.945,-0.23,-0.338,2.87,-17.55,7.2,1785084763648.3462
-0.943,-0.183,-0.361,14.01,-16.36,-4.79,1785084763648.8398
-0.95,-0.14,-0.37,20.94,-14.56,-16.79,1785084763649.332
-0.968,-0.123,-0.353,26.98,-13.76,-26.15,1785084763649.879
-0.977,-0.117,-0.335,33.72,-14.8,-32.99,1785084763650.388
-0.973,-0.106,-0.331,40.31,-15.87,-39.37,1785084763650.98
-0.969,-0.104,-0.341,44.71,-16.36,-43.64,1785084763651.8818
-0.967,-0.113,-0.37,45.17,-16.48,-46.51,1785084763652.4138
-0.972,-0.119,-0.401,40.5,-14.59,-49.13,1785084763652.9229
-0.972,-0.134,-0.409,32.69,-10.99,-50.17,1785084763653.428
-0.966,-0.162,-0.404,24.6,-7.08,-50.33,1785084763653.96
-0.959,-0.19,-0.399,17.43,-3.05,-50.54,1785084763654.524
-0.961,-0.201,-0.381,10.83,1.28,-51.09,1785084763655.086
-0.967,-0.198,-0.353,6.2,4.97,-50.11,1785084763655.583
-0.96,-0.203,-0.342,3.97,7.69,-47.15,1785084763656.183
-0.959,-0.213,-0.345,1.34,9.7,-44.47,1785084763656.791
-0.958,-0.21,-0.335,-2.41,11.63,-42.3,1785084763657.3271
-0.852,-0.067,-0.286,-5.83,13.0,-40.62,1785084763657.8828
-0.943,0.39,-0.521,7.11,-2.5,-59.33,1785084763658.3901
-1.107,0.258,-0.693,-22.95,11.69,-62.84,1785084763658.875
-0.959,-0.364,-0.429,-105.5,38.27,-41.23,1785084763659.7231
-0.889,-0.403,-0.103,-132.05,38.54,-27.34,1785084763660.32
-0.932,-0.196,-0.063,-103.67,29.63,-14.74,1785084763660.918
-0.955,-0.026,-0.136,-78.83,28.23,7.05,1785084763661.3528
-1.008,0.134,-0.232,-67.51,25.73,9.16,1785084763661.8948
-1.042,0.158,-0.35,-69.73,16.27,-3.94,1785084763662.542
-0.992,0.069,-0.352,-91.83,15.44,-10.93,1785084763663.148
-0.968,-0.011,-0.304,-117.34,19.78,-11.6,1785084763663.6548
-0.983,-0.06,-0.252,-131.11,21.36,-8.94,1785084763664.137
-0.985,-0.09,-0.202,-131.29,20.84,-4.91,1785084763664.5762
-0.962,-0.121,-0.165,-120.37,18.68,-2.26,1785084763665.011
-0.943,-0.143,-0.143,-100.71,15.29,-1.74,1785084763665.439
-0.943,-0.143,-0.143,-75.41,10.96,-2.17,1785084763665.8682
-0.939,-0.16,-0.134,-46.97,6.68,-3.27,1785084763666.406
-0.94,-0.172,-0.139,-19.56,2.59,-4.39,1785084763666.882
-0.941,-0.172,-0.164,4.03,-0.24,-5.13,1785084763667.294
-0.942,-0.169,-0.192,4.03,-0.24,-5.13,1785084763667.714
-0.943,-0.175,-0.216,24.05,-1.95,-5.31,1785084763668.137
-0.935,-0.183,-0.242,39.19,-1.83,-5.55,1785084763668.558
-0.918,-0.177,-0.257,48.52,0.4,-6.87,1785084763668.981
-0.932,-0.177,-0.261,52.86,2.93,-7.63,1785084763669.4082
-0.932,-0.204,-0.255,54.02,3.39,-5.19,1785084763669.823
-0.922,-0.206,-0.249,53.07,3.11,-3.85,1785084763670.291
-0.911,-0.184,-0.242,50.45,4.27,-3.63,1785084763670.943
-0.913,-0.166,-0.239,46.05,6.01,-3.88,1785084763671.37
-0.92,-0.162,-0.244,38.61,7.11,-4.12,1785084763671.795
-0.912,-0.167,-0.23,9.22,9.92,-2.59,1785084763674.0042
-0.909,-0.17,-0.225,2.72,10.56,-2.84,1785084763674.4521
-0.931,-0.158,-0.279,38.18,-11.23,9.61,1785084763674.968
-0.928,-0.173,-0.285,40.53,-12.09,11.9,1785084763675.405
-0.928,-0.169,-0.292,40.93,-11.72,13.4,1785084763675.847
-0.928,-0.168,-0.298,39.74,-10.47,15.32,1785084763676.286
-0.934,-0.166,-0.298,36.01,-8.91,16.75,1785084763676.757
-0.929,-0.179,-0.296,31.53,-7.78,18.98,1785084763677.192
-0.93,-0.18,-0.291,26.67,-7.29,20.69,1785084763677.79
-0.93,-0.17,-0.288,21.27,-6.62,21.88,1785084763678.2222
-0.926,-0.172,-0.278,14.71,-5.8,23.59,1785084763684.443
-0.919,-0.189,-0.275,9.74,-6.2,24.63,1785084763690.451
-0.919,-0.199,-0.268,5.62,-6.5,24.17,1785084763700.0972
-0.913,-0.209,-0.265,3.36,-7.02,23.68,1785084763710.436
-0.909,-0.21,-0.27,2.01,-7.6,22.8,1785084763721.1143
-0.912,-0.202,-0.27,1.07,-7.87,21.24,1785084763731.502
-0.916,-0.2,-0.273,0.21,-8.09,19.71,1785084763744.554
-0.916,-0.205,-0.277,-1.07,-8.45,18.25,1785084763749.9858
-0.913,-0.206,-0.28,-2.26,-8.91,16.51,1785084763760.3728
-0.914,-0.209,-0.28,-3.72,-9.25,14.92,1785084763770.877
-0.914,-0.209,-0.283,-5.22,-9.43,13.12,1785084763781.002
-0.932,-0.201,-0.287,-7.54,-9.03,10.56,1785084763791.528
-0.935,-0.202,-0.29,-10.83,-8.88,9.4,1785084763804.747
-0.937,-0.201,-0.287,-14.5,-8.48,7.72,1785084763810.078
-0.936,-0.207,-0.287,-17.37,-8.24,6.23,1785084763820.214
-0.935,-0.212,-0.289,-18.95,-8.0,4.7,1785084763830.569
-0.933,-0.213,-0.292,-19.38,-7.69,3.3,1785084763840.964
-0.935,-0.206,-0.295,-18.77,-6.71,1.62,1785084763854.301
-0.945,-0.205,-0.298,-17.46,-5.77,0.98,1785084763859.893
-0.918,-0.216,-0.302,-15.17,-5.55,1.34,1785084763870.0093
-0.931,-0.195,-0.308,-11.38,-4.03,-1.4,1785084763880.2979
-0.932,-0.197,-0.315,-7.08,-3.02,-1.07,1785084763890.667
-0.917,-0.191,-0.318,-3.78,-2.17,-1.01,1785084763901.0508
-0.92,-0.165,-0.327,-1.37,-0.52,-2.53,1785084763911.3071
-0.922,-0.148,-0.332,-1.13,1.74,-3.17,1785084763924.8682
-0.916,-0.143,-0.33,-4.15,3.81,-3.23,1785084763930.052
-0.908,-0.147,-0.317,-7.84,5.28,-3.75,1785084763940.595
-0.915,-0.155,-0.3,-10.5,6.35,-4.33,1785084763950.9849
-0.936,-0.154,-0.295,-13.09,7.02,-4.52,1785084763960.83
-0.941,-0.139,-0.288,-16.54,8.0,-4.24,1785084763971.174
-0.929,-0.131,-0.276,-19.14,9.19,-3.57,1785084763984.499
-0.92,-0.134,-0.267,-20.11,9.86,-2.84,1785084763990.043
-0.925,-0.136,-0.265,-20.66,9.64,-2.35,1785084764000.021
-0.931,-0.137,-0.262,-21.27,9.0,-1.8,1785084764010.3528
-0.936,-0.141,-0.256,-21.06,8.67,-1.13,1785084764020.727
-0.934,-0.155,-0.245,-19.56,8.7,-0.98,1785084764031.102
-0.923,-0.162,-0.242,-17.27,9.4,-1.46,1785084764047.477
-0.928,-0.153,-0.245,-15.93,10.53,-1.8,1785084764050.0833
-0.94,-0.136,-0.245,-15.69,9.25,-1.92,1785084764060.2468
-0.932,-0.135,-0.24,-15.93,7.48,-2.11,1785084764070.663
-0.928,-0.136,-0.233,-16.94,6.53,-2.47,1785084764080.8691
-0.928,-0.132,-0.239,-18.19,6.04,-1.89,1785084764091.3843
-0.927,-0.12,-0.244,-20.36,6.04,-0.49,1785084764104.51
-0.923,-0.116,-0.247,-22.83,6.78,1.34,1785084764110.0303
-0.926,-0.11,-0.252,-25.7,7.05,3.05,1785084764120.121
-0.927,-0.109,-0.265,-28.87,6.84,4.49,1785084764130.535
-0.93,-0.101,-0.27,-33.78,6.56,5.55,1785084764141.0452
-0.933,-0.103,-0.267,-39.43,6.44,6.29,1785084764151.241
-0.936,-0.108,-0.257,-45.23,5.86,6.84,1785084764164.652
-0.927,-0.104,-0.249,-49.65,5.4,6.96,1785084764170.025
-0.913,-0.109,-0.262,-51.0,5.16,6.78,1785084764180.22
-0.914,-0.114,-0.286,-50.08,5.77,6.16,1785084764190.639
-0.919,-0.119,-0.307,-47.43,6.26,5.92,1785084764200.986
-0.917,-0.13,-0.314,-42.15,6.44,5.28,1785084764214.25
-0.92,-0.134,-0.306,-35.71,6.78,4.15,1785084764219.9402
-0.923,-0.116,-0.29,-30.12,6.5,3.45,1785084764229.9531
-0.925,-0.109,-0.278,-24.78,5.28,3.69,1785084764240.318
-0.91,-0.124,-0.287,-19.35,3.78,3.85,1785084764250.714
-0.911,-0.125,-0.296,-15.29,3.33,0.85,1785084764261.07
-0.93,-0.117,-0.312,-13.49,3.75,-1.13,1785084764274.2842
-0.921,-0.11,-0.325,-14.5,4.33,-0.4,1785084764279.784
-0.908,-0.101,-0.328,-16.72,5.1,-0.06,1785084764290.06
-0.925,-0.092,-0.336,-19.07,5.71,-0.85,1785084764300.368
-0.933,-0.099,-0.339,-22.0,6.13,0.31,1785084764310.809
-0.929,-0.116,-0.343,-22.71,6.59,-0.61,1785084764321.097
-0.924,-0.138,-0.364,-21.73,8.18,-2.78,1785084764334.461
-0.919,-0.138,-0.365,-23.26,10.01,-3.97,1785084764339.961
-0.928,-0.134,-0.353,-24.93,10.04,-6.04,1785084764350.287
-0.936,-0.147,-0.331,-23.93,10.01,-7.32,1785084764360.6982
-0.931,-0.158,-0.317,-19.56,9.03,-7.78,1785084764371.0862
-0.926,-0.141,-0.323,-13.21,7.72,-8.79,1785084764384.289
-0.923,-0.117,-0.333,-8.24,7.2,-9.13,1785084764389.7568
-0.924,-0.097,-0.335,-6.04,7.11,-8.79,1785084764399.7852
-0.924,-0.09,-0.332,-4.85,6.65,-7.9,1785084764410.0962
-0.92,-0.082,-0.329,-3.54,5.8,-7.11,1785084764420.363
-0.915,-0.074,-0.327,-2.53,5.13,-6.59,1785084764430.943
-0.918,-0.068,-0.319,-2.9,4.7,-6.23,1785084764441.234
-0.923,-0.061,-0.307,-5.1,3.66,-5.1,1785084764451.5222
-0.924,-0.059,-0.301,-7.9,2.5,-3.33,1785084764464.813
-0.928,-0.058,-0.308,-10.83,1.68,-1.71,1785084764470.414
-0.933,-0.048,-0.325,-13.98,1.1,-0.58,1785084764480.3699
-0.935,-0.045,-0.365,-17.06,1.1,0.21,1785084764490.829
-0.922,-0.052,-0.425,-21.91,2.29,0.27,1785084764501.171
-0.922,-0.052,-0.425,-27.71,6.23,-0.58,1785084764511.58
-0.898,-0.08,-0.477,-33.36,11.9,-2.59,1785084764524.916
-0.885,-0.103,-0.498,-37.6,17.94,-4.7,1785084764530.612
-0.891,-0.104,-0.47,-37.54,23.41,-6.96,1785084764540.7769
-0.901,-0.113,-0.447,-34.33,28.66,-10.28,1785084764551.348
-0.909,-0.128,-0.47,-34.33,28.66,-10.28,1785084764564.5708
-0.919,-0.134,-0.514,-29.51,35.1,-14.77,1785084764570.6
-0.938,-0.151,-0.531,-21.64,42.51,-19.47,1785084764581.074
-0.961,-0.174,-0.536,-11.63,49.78,-23.62,1785084764591.777
-0.982,-0.223,-0.559,0.27,56.49,-27.59,1785084764604.532
-0.931,-0.273,-0.591,13.21,64.3,-33.33,1785084764610.452
-0.999,-0.315,-0.588,28.47,74.34,-43.43,1785084764620.5781
-1.059,-0.417,-0.624,50.2,79.78,-51.24,1785084764631.173
-0.999,-0.49,-0.68,77.52,84.32,-55.64,1785084764644.23
-0.995,-0.432,-0.731,109.59,90.37,-65.86,1785084764649.906
-1.046,-0.364,-0.801,139.9,95.95,-71.41,1785084764660.586
-1.077,-0.315,-0.855,157.66,103.34,-71.29,1785084764671.3171
-1.083,-0.221,-0.875,155.31,109.41,-67.42,1785084764684.708
-0.962,-0.128,-0.913,135.29,118.2,-65.74,1785084764690.725
-0.983,-0.004,-1.011,99.0,131.44,-74.89,1785084764701.309
-0.973,-0.007,-1.102,49.75,143.83,-71.9,1785084764714.753
-0.914,-0.108,-1.086,2.47,158.57,-69.03,1785084764720.1338
-0.965,-0.309,-1.07,-26.15,170.17,-74.16,1785084764731.028
-1.057,-0.539,-1.046,-37.84,179.08,-77.97,1785084764744.348
-1.057,-0.714,-0.981,-34.67,182.93,-74.8,1785084764750.304
-0.967,-0.686,-0.894,-21.52,189.46,-78.89,1785084764760.719
-1.005,-0.614,-0.928,-8.45,193.49,-89.27,1785084764771.269
-0.966,-0.582,-0.973,-8.55,195.26,-90.73,1785084764784.5408
-0.921,-0.538,-0.997,-15.29,200.02,-97.05,1785084764790.557
-0.87,-0.489,-1.095,-22.95,204.26,-103.52,1785084764801.058
-0.781,-0.493,-1.182,-33.81,212.47,-114.54,1785084764814.308
-0.875,-0.505,-1.221,-50.2,222.33,-132.85,1785084764820.252
-0.806,-0.693,-1.209,-64.18,229.93,-127.41,1785084764831.0442
-0.793,-0.8,-1.216,-68.48,236.21,-130.68,1785084764844.386
-0.791,-0.839,-1.232,-64.18,242.29,-135.17,1785084764850.2378
-0.8,-0.879,-1.226,-54.6,246.22,-142.31,1785084764860.8708
-0.774,-0.884,-1.142,-43.67,248.36,-146.64,1785084764874.273
-0.662,-0.845,-1.098,-29.27,249.37,-149.82,1785084764880.1829
-0.577,-0.767,-1.022,-17.03,250.37,-156.83,1785084764891.1538
-0.513,-0.639,-1.076,-15.2,249.37,-164.28,1785084764904.336
-0.418,-0.645,-1.13,-19.5,256.36,-168.92,1785084764910.1328
-0.43,-0.657,-1.133,-28.6,259.13,-181.13,1785084764920.9238
-0.412,-0.637,-1.151,-36.9,259.83,-187.66,1785084764934.149
-0.332,-0.598,-1.053,-41.47,266.49,-185.61,1785084764940.173
-0.271,-0.449,-0.878,-45.11,267.74,-184.27,1785084764950.849
-0.177,-0.274,-0.66,-44.62,263.77,-180.82,1785084764961.587
-0.047,-0.159,-0.548,-39.92,258.0,-176.55,1785084764974.7908
0.083,-0.138,-0.62,-35.37,256.32,-176.49,1785084764980.526
0.133,-0.195,-0.693,-36.04,259.25,-180.97,1785084764991.657
0.082,-0.222,-0.679,-42.63,260.11,-184.55,1785084765008.8892
0.047,-0.197,-0.621,-49.99,258.86,-180.33,1785084765010.6309
0.034,-0.168,-0.559,-54.38,254.49,-172.89,1785084765021.4558
0.067,-0.164,-0.569,-56.03,247.26,-165.32,1785084765034.59
0.099,-0.199,-0.58,-55.94,241.58,-159.92,1785084765040.6133
0.113,-0.254,-0.562,-55.85,235.45,-153.97,1785084765051.279
0.128,-0.308,-0.481,-51.94,229.07,-146.89,1785084765064.5493
0.131,-0.293,-0.328,-41.47,218.48,-139.9,1785084765071.2449
0.175,-0.223,-0.233,-24.14,204.02,-132.02,1785084765081.435
0.229,-0.164,-0.257,-5.04,190.95,-126.77,1785084765094.614
0.227,-0.103,-0.288,6.07,179.57,-126.07,1785084765100.3367
0.231,-0.05,-0.355,7.26,168.49,-123.94,1785084765111.0022
0.245,-0.007,-0.34,4.67,159.67,-120.15,1785084765124.575
0.28,0.043,-0.304,2.9,149.51,-114.51,1785084765130.345
0.326,0.078,-0.265,3.54,138.74,-106.85,1785084765140.671
0.371,0.109,-0.238,5.83,126.93,-98.61,1785084765151.43
0.4,0.132,-0.224,8.24,115.18,-91.34,1785084765164.614
0.43,0.151,-0.205,6.93,103.67,-84.08,1785084765170.339
0.475,0.177,-0.193,2.14,92.84,-76.05,1785084765180.5178
0.526,0.179,-0.185,-2.93,82.92,-68.51,1785084765191.138
0.557,0.187,-0.182,-6.93,72.45,-62.99,1785084765204.4822
0.585,0.188,-0.192,-7.48,62.38,-57.25,1785084765209.9521
0.607,0.176,-0.188,-5.49,52.71,-51.09,1785084765220.203
0.642,0.178,-0.189,-1.98,42.94,-44.01,1785084765230.6318
0.692,0.194,-0.199,3.08,33.6,-36.53,1785084765241.207
0.738,0.208,-0.216,7.72,25.06,-29.63,1785084765254.507
0.783,0.231,-0.263,9.43,17.67,-23.32,1785084765260.198
0.835,0.246,-0.292,8.42,12.94,-18.19,1785084765270.44
0.888,0.279,-0.309,3.97,9.46,-14.01,1785084765280.7058
0.946,0.301,-0.326,-1.1,7.35,-9.86,1785084765291.127
0.978,0.309,-0.32,-5.86,5.89,-7.81,1785084765301.258
1.005,0.309,-0.315,-10.19,4.49,-5.71,1785084765314.73
1.043,0.277,-0.331,-12.73,3.81,-2.87,1785084765320.03
1.078,0.242,-0.337,-14.44,3.94,-0.7,1785084765330.188
1.117,0.231,-0.335,-15.59,3.85,2.14,1785084765340.616
1.148,0.248,-0.324,-16.45,3.33,5.71,1785084765351.271
1.161,0.278,-0.31,-18.28,2.93,8.82,1785084765361.472
1.163,0.307,-0.295,-22.03,2.75,10.83,1785084765374.9321
1.153,0.325,-0.274,-26.92,1.62,12.48,1785084765380.464
1.147,0.334,-0.274,-31.07,0.12,13.89,1785084765390.6719
1.145,0.328,-0.293,-34.15,-1.01,15.29,1785084765401.255
1.134,0.299,-0.3,-35.43,-2.38,16.17,1785084765414.5867
1.112,0.268,-0.317,-35.58,-4.3,17.52,1785084765419.8667
1.1,0.248,-0.33,-35.89,-6.65,20.33,1785084765430.136
1.097,0.238,-0.339,-36.26,-9.55,22.71,1785084765440.654
1.109,0.242,-0.344,-36.68,-12.21,25.42,1785084765451.3591
1.135,0.232,-0.357,-36.38,-14.37,28.2,1785084765464.554
1.144,0.221,-0.369,-35.8,-15.66,30.09,1785084765470.346
1.134,0.197,-0.376,-34.91,-16.57,32.14,1785084765480.9111
1.11,0.174,-0.373,-34.0,-17.91,35.13,1785084765491.33
1.084,0.159,-0.367,-33.14,-19.93,38.54,1785084765504.688
1.072,0.134,-0.365,-30.3,-22.77,41.11,1785084765510.8171
1.054,0.076,-0.37,-24.38,-25.7,42.18,1785084765520.631
1.031,0.029,-0.372,-16.6,-28.75,42.15,1785084765531.355
1.027,0.016,-0.379,-8.88,-32.47,44.74,1785084765544.411
1.029,0.031,-0.386,-2.78,-36.9,49.71,1785084765550.543
1.026,0.063,-0.406,0.4,-41.44,55.42,1785084765560.522
1.014,0.09,-0.415,-1.04,-45.87,60.52,1785084765571.148
0.979,0.12,-0.424,-5.71,-50.33,64.03,1785084765581.7449
0.947,0.158,-0.435,-11.9,-54.96,67.02,1785084765594.713
0.898,0.16,-0.438,-18.92,-60.0,69.37,1785084765600.964
0.846,0.093,-0.429,-24.66,-64.67,68.94,1785084765610.986
0.804,-0.025,-0.416,-25.15,-69.34,66.9,1785084765621.708
0.758,-0.136,-0.387,-18.52,-75.08,66.41,1785084765634.824
0.71,-0.19,-0.362,-7.29,-83.71,69.4,1785084765640.492
0.656,-0.183,-0.381,4.73,-94.94,74.83,1785084765650.577
0.61,-0.119,-0.432,12.67,-107.06,80.36,1785084765661.6377
0.588,-0.041,-0.505,14.83,-118.53,84.66,1785084765674.5999
0.563,-0.0,-0.578,12.3,-127.26,89.21,1785084765680.1929
0.509,-0.06,-0.607,10.56,-132.85,90.12,1785084765691.0432
0.45,-0.125,-0.62,11.35,-137.52,89.21,1785084765704.1863
0.368,-0.167,-0.627,13.7,-141.51,92.81,1785084765709.9578
0.27,-0.223,-0.617,16.57,-145.48,96.77,1785084765720.6772
0.189,-0.326,-0.591,22.16,-152.17,97.9,1785084765738.2788
0.113,-0.375,-0.628,29.24,-160.8,98.06,1785084765745.313
0.049,-0.365,-0.697,35.8,-168.4,101.69,1785084765750.598
0.01,-0.374,-0.755,40.16,-175.02,105.53,1785084765761.8801
-0.023,-0.514,-0.751,44.98,-178.87,102.39,1785084765774.539
-0.079,-0.672,-0.753,55.54,-185.31,90.55,1785084765780.238
-0.089,-0.592,-0.879,65.65,-192.36,88.84,1785084765791.0269
-0.089,-0.592,-0.879,68.79,-192.27,98.73,1785084765804.317
-0.091,-0.375,-1.051,56.46,-185.43,104.4,1785084765810.189
-0.131,-0.129,-1.281,23.41,-167.06,109.84,1785084765821.076
-0.123,0.017,-1.4,-21.36,-143.41,110.54,1785084765834.287
-0.057,0.034,-1.378,-65.86,-116.37,110.42,1785084765840.106
0.006,0.0,-1.278,-65.86,-116.37,110.42,1785084765850.999
0.071,-0.113,-1.135,-99.95,-88.9,110.29,1785084765864.227
0.071,-0.286,-0.994,-117.74,-68.82,101.87,1785084765869.946
0.104,-0.433,-0.945,-116.7,-52.22,88.38,1785084765881.255
0.108,-0.522,-0.926,-101.5,-44.71,74.16,1785084765891.3972
0.131,-0.619,-0.905,-73.7,-35.74,63.11,1785084765904.647
0.143,-0.688,-0.904,-34.18,-28.87,49.23,1785084765910.3281
0.147,-0.675,-0.892,9.09,-25.42,35.68,1785084765920.605
0.157,-0.58,-0.888,46.69,-22.4,25.73,1785084765931.226
0.195,-0.439,-0.894,73.12,-19.07,18.31,1785084765944.5708
0.237,-0.261,-0.936,86.61,-17.49,12.33,1785084765950.63
0.265,-0.096,-0.995,86.25,-16.21,8.55,1785084765960.6973
0.246,0.004,-1.041,74.71,-13.28,5.01,1785084765971.1208
0.227,0.011,-1.021,56.28,-8.3,2.84,1785084765981.4558
0.223,-0.052,-0.96,36.13,-3.78,0.67,1785084765994.75
0.214,-0.095,-0.91,17.76,-1.1,-0.27,1785084766000.261
0.198,-0.156,-0.872,3.6,-0.67,0.18,1785084766010.6628
0.186,-0.213,-0.88,-8.03,-2.87,0.0,1785084766023.135
0.199,-0.257,-0.92,-18.22,-5.95,1.31,1785084766030.997
0.198,-0.289,-0.941,-24.66,-7.72,2.26,1785084766041.374
0.207,-0.31,-0.936,-27.16,-8.7,2.08,1785084766054.6282
0.218,-0.301,-0.927,-28.63,-8.82,0.0,1785084766060.097
0.238,-0.268,-0.914,-30.18,-8.58,-3.11,1785084766070.2158
0.261,-0.229,-0.913,-32.69,-8.39,-7.05,1785084766080.6223
0.273,-0.185,-0.918,-36.81,-7.35,-10.68,1785084766091.1428
0.286,-0.149,-0.934,-41.63,-6.04,-12.3,1785084766104.44
0.286,-0.138,-0.952,-46.6,-4.55,-12.24,1785084766110.036
0.278,-0.148,-0.961,-51.42,-2.75,-11.57,1785084766120.408
0.274,-0.181,-0.955,-55.27,-0.82,-10.9,1785084766130.676
0.272,-0.225,-0.939,-56.15,0.24,-11.11,1785084766141.133
0.275,-0.252,-0.924,-52.8,0.0,-11.87,1785084766154.4731
0.282,-0.234,-0.93,-47.55,-1.22,-11.81,1785084766160.0872
0.283,-0.196,-0.949,-41.9,-2.87,-10.44,1785084766170.377
0.278,-0.163,-0.969,-38.18,-3.97,-8.88,1785084766180.792
0.281,-0.147,-0.982,-37.2,-4.46,-6.5,1785084766191.2708
0.283,-0.142,-0.979,-37.2,-4.82,-3.11,1785084766204.4502
0.29,-0.151,-0.96,-35.68,-5.22,-0.18,1785084766209.797
0.296,-0.158,-0.951,-32.38,-5.46,1.53,1785084766219.9941
0.3,-0.168,-0.942,-28.38,-5.19,2.35,1785084766230.436
0.297,-0.178,-0.931,-23.62,-4.85,2.08,1785084766240.814
0.287,-0.191,-0.927,-17.3,-4.91,1.5,1785084766251.2861
0.275,-0.197,-0.933,-10.41,-5.37,1.16,1785084766264.5671
0.266,-0.2,-0.944,-3.6,-6.35,1.56,1785084766269.928
0.264,-0.205,-0.951,2.81,-7.05,1.89,1785084766280.0078
0.259,-0.199,-0.959,8.85,-7.63,2.23,1785084766290.313
0.255,-0.177,-0.96,13.15,-7.97,3.6,1785084766300.565
0.258,-0.164,-0.961,15.14,-8.15,4.27,1785084766310.945
0.263,-0.155,-0.966,15.23,-7.75,3.97,1785084766321.3389
0.258,-0.163,-0.958,14.68,-7.14,3.94,1785084766334.73
0.251,-0.181,-0.949,14.22,-6.84,3.54,1785084766340.563
0.243,-0.201,-0.93,15.14,-6.68,3.02,1785084766350.4907
0.231,-0.236,-0.889,17.7,-7.2,2.38,1785084766360.8652
0.207,-0.28,-0.84,23.5,-8.82,1.01,1785084766371.0808
0.2,-0.319,-0.816,33.2,-12.42,-0.52,1785084766384.659
0.231,-0.34,-0.839,44.74,-16.94,-1.95,1785084766390.521
0.253,-0.327,-0.914,55.39,-19.5,-3.27,1785084766400.4988
0.245,-0.288,-0.97,61.86,-18.62,-3.85,1785084766410.686
0.245,-0.255,-0.994,62.04,-16.3,-4.24,1785084766421.3381
0.249,-0.234,-0.984,57.56,-13.0,-5.46,1785084766434.728
0.243,-0.229,-0.953,51.97,-10.16,-7.17,1785084766440.213
0.24,-0.232,-0.929,46.82,-8.82,-8.48,1785084766450.53
0.242,-0.237,-0.941,42.42,-8.82,-9.37,1785084766460.744
0.235,-0.233,-0.97,37.39,-9.09,-9.67,1785084766471.354
0.225,-0.217,-0.994,30.61,-8.82,-8.55,1785084766484.62
0.228,-0.202,-1.006,21.91,-8.03,-6.38,1785084766490.3071
0.237,-0.189,-1.009,11.72,-6.26,-4.09,1785084766500.0662
0.239,-0.182,-1.004,1.16,-4.55,-2.84,1785084766510.3418
0.246,-0.192,-0.988,-8.33,-3.66,-2.44,1785084766520.556
0.255,-0.21,-0.983,-15.69,-2.99,-2.23,1785084766531.095
0.255,-0.218,-0.994,-21.15,-2.23,-1.53,1785084766541.357
0.248,-0.23,-0.998,-25.64,-1.37,-0.64,1785084766554.6729
0.24,-0.248,-0.987,-29.15,-0.64,-0.31,1785084766560.1653
0.239,-0.271,-0.975,-30.46,-0.34,-0.09,1785084766570.379
0.24,-0.292,-0.965,-28.63,-0.52,0.37,1785084766580.743
