ax,ay,az,gx,gy,gz,timestamp_ms
-0.834,-0.522,-0.119,-4.82,-4.09,-0.76,1784933963690.878
-0.83,-0.52,-0.124,-4.27,-3.91,-0.55,1784933963691.187
-0.829,-0.516,-0.126,-4.06,-3.94,-0.76,1784933963691.4849
-0.831,-0.512,-0.128,-4.15,-3.88,-1.04,1784933963691.862
-0.835,-0.515,-0.126,-4.46,-3.94,-1.1,1784933963692.168
-0.836,-0.519,-0.126,-5.04,-4.0,-1.22,1784933963692.4548
-0.837,-0.522,-0.127,-5.07,-3.97,-1.19,1784933963692.8042
-0.836,-0.525,-0.126,-4.88,-3.81,-0.92,1784933963693.106
-0.835,-0.526,-0.127,-4.55,-3.69,-0.58,1784933963693.3818
-0.834,-0.522,-0.127,-4.33,-3.69,-0.09,1784933963693.659
-0.831,-0.521,-0.129,-4.43,-3.72,0.18,1784933963693.9211
-0.828,-0.523,-0.13,-4.58,-3.51,0.31,1784933963694.1921
-0.827,-0.525,-0.131,-4.97,-3.54,0.31,1784933963694.468
-0.825,-0.525,-0.131,-4.97,-3.3,0.15,1784933963694.74
-0.824,-0.529,-0.134,-4.52,-3.17,0.03,1784933963695.008
-0.827,-0.527,-0.135,-4.15,-2.96,-0.09,1784933963695.274
-0.829,-0.527,-0.132,-3.75,-2.56,-0.06,1784933963695.5461
-0.83,-0.527,-0.132,-3.11,-2.2,0.27,1784933963695.804
-0.83,-0.526,-0.131,-2.62,-1.92,0.76,1784933963696.064
-0.832,-0.529,-0.132,-2.35,-1.65,1.13,1784933963696.3242
-0.829,-0.529,-0.132,-2.17,-1.19,1.37,1784933963696.5781
-0.824,-0.531,-0.13,-1.74,-0.85,1.65,1784933963696.842
-0.821,-0.53,-0.13,-1.25,-0.52,1.77,1784933963697.1719
-0.818,-0.53,-0.128,-0.73,-0.43,1.59,1784933963697.5042
-0.819,-0.529,-0.124,-0.55,-0.34,1.22,1784933963697.793
-0.82,-0.528,-0.123,-0.55,-0.27,0.95,1784933963698.078
-0.823,-0.527,-0.125,-0.67,-0.24,0.89,1784933963698.3198
-0.826,-0.525,-0.122,-0.73,-0.27,0.79,1784933963698.556
-0.827,-0.523,-0.12,-1.04,-0.21,0.79,1784933963698.799
-0.827,-0.521,-0.122,-1.07,-0.06,0.82,1784933963699.0452
-0.827,-0.521,-0.121,-0.98,-0.06,1.16,1784933963699.282
-0.828,-0.523,-0.12,-1.28,0.0,1.4,1784933963699.5251
-0.826,-0.523,-0.119,-1.65,0.12,1.68,1784933963699.772
-0.827,-0.521,-0.12,-1.83,0.15,1.95,1784933963700.023
-0.827,-0.519,-0.118,-1.98,0.24,2.08,1784933963700.2812
-0.828,-0.52,-0.117,-2.17,0.27,2.17,1784933963700.5452
-0.83,-0.522,-0.115,-2.38,0.15,2.17,1784933963700.803
-0.83,-0.523,-0.115,-2.53,0.21,2.2,1784933963701.065
-0.831,-0.524,-0.114,-2.38,0.34,2.17,1784933963701.314
-0.832,-0.524,-0.115,-2.01,0.15,2.08,1784933963701.5537
-0.835,-0.522,-0.114,-1.59,0.12,2.04,1784933963701.792
-0.833,-0.52,-0.118,-1.31,0.18,2.04,1784933963702.035
-0.83,-0.52,-0.118,-1.25,0.24,2.01,1784933963702.2788
-0.829,-0.521,-0.117,-1.25,0.15,1.98,1784933963702.516
-0.829,-0.521,-0.119,-1.1,0.24,1.98,1784933963702.759
-0.829,-0.519,-0.121,-1.1,0.27,2.23,1784933963703.033
-0.829,-0.519,-0.122,-1.34,0.18,2.26,1784933963703.287
-0.831,-0.52,-0.12,-1.46,0.12,2.11,1784933963703.5442
-0.83,-0.521,-0.121,-1.71,0.24,2.11,1784933963703.787
-0.831,-0.521,-0.123,-1.62,0.24,2.29,1784933963704.056
-0.832,-0.522,-0.125,-1.34,0.31,2.35,1784933963704.294
-0.831,-0.521,-0.126,-1.34,0.34,2.26,1784933963704.538
-0.829,-0.521,-0.125,-1.4,0.4,2.29,1784933963704.784
-0.828,-0.521,-0.127,-1.34,0.43,2.11,1784933963705.024
-0.829,-0.523,-0.127,-1.25,0.46,1.92,1784933963705.271
-0.829,-0.524,-0.125,-1.28,0.4,1.86,1784933963705.518
-0.83,-0.524,-0.125,-1.34,0.52,1.89,1784933963705.772
-0.83,-0.522,-0.126,-1.28,0.7,2.01,1784933963706.01
-0.83,-0.524,-0.13,-1.01,0.79,2.17,1784933963706.2422
-0.829,-0.525,-0.13,-0.79,0.98,2.08,1784933963706.468
-0.831,-0.524,-0.127,-0.85,0.92,1.92,1784933963706.702
-0.83,-0.523,-0.125,-0.76,0.95,1.83,1784933963706.937
-0.83,-0.521,-0.126,-0.67,1.01,1.62,1784933963707.169
-0.829,-0.522,-0.13,-0.85,1.01,1.43,1784933963707.394
-0.829,-0.522,-0.126,-1.01,0.98,1.22,1784933963707.6511
-0.832,-0.524,-0.125,-1.07,1.04,0.98,1784933963707.884
-0.832,-0.523,-0.123,-1.01,1.22,0.82,1784933963708.122
-0.831,-0.521,-0.124,-0.58,1.19,0.82,1784933963708.364
-0.832,-0.522,-0.127,-0.27,1.25,0.76,1784933963708.598
-0.832,-0.52,-0.127,-0.24,1.5,0.73,1784933963708.8242
-0.832,-0.517,-0.126,-0.24,1.5,0.7,1784933963709.056
-0.83,-0.516,-0.123,-0.31,1.5,0.52,1784933963709.289
-0.829,-0.521,-0.121,-0.03,1.59,0.55,1784933963709.516
-0.83,-0.521,-0.121,0.21,1.59,0.37,1784933963709.743
-0.83,-0.52,-0.117,0.67,1.62,0.15,1784933963709.971
-0.83,-0.518,-0.12,1.56,1.71,0.21,1784933963710.208
-0.829,-0.513,-0.124,1.77,1.62,0.21,1784933963710.434
-0.83,-0.513,-0.116,1.92,1.46,0.15,1784933963710.668
-0.829,-0.516,-0.115,2.87,1.43,0.0,1784933963710.926
-0.828,-0.508,-0.115,3.23,1.46,-0.21,1784933963711.156
-0.828,-0.507,-0.114,3.11,1.37,-0.12,1784933963711.404
-0.832,-0.51,-0.112,3.42,1.25,0.03,1784933963711.639
-0.829,-0.508,-0.112,3.85,1.31,0.09,1784933963711.8599
-0.829,-0.504,-0.115,4.36,1.43,0.03,1784933963712.0881
-0.832,-0.503,-0.115,4.85,1.37,0.0,1784933963712.316
-0.833,-0.502,-0.114,4.82,1.25,0.27,1784933963712.534
-0.83,-0.501,-0.113,4.21,1.22,0.73,1784933963712.763
-0.83,-0.502,-0.111,3.97,1.13,1.04,1784933963712.9878
-0.833,-0.506,-0.109,3.94,0.82,1.25,1784933963713.2312
-0.835,-0.509,-0.113,3.78,0.55,1.25,1784933963713.4468
-0.838,-0.505,-0.115,3.23,0.4,1.28,1784933963713.6729
-0.839,-0.502,-0.116,2.69,0.09,1.37,1784933963713.945
-0.84,-0.502,-0.117,2.26,-0.37,1.65,1784933963714.1619
-0.84,-0.507,-0.118,1.56,-0.7,1.77,1784933963714.3838
-0.838,-0.509,-0.117,0.76,-0.7,1.86,1784933963714.606
-0.836,-0.51,-0.119,0.73,-0.82,2.14,1784933963714.8188
-0.834,-0.51,-0.121,0.67,-1.13,2.26,1784933963715.039
-0.834,-0.512,-0.12,0.34,-1.19,2.29,1784933963715.2642
-0.834,-0.512,-0.12,0.0,-1.1,2.44,1784933963715.491
-0.834,-0.512,-0.121,-0.27,-1.16,2.62,1784933963715.719
-0.834,-0.511,-0.126,-0.82,-1.19,2.56,1784933963715.946
-0.832,-0.51,-0.127,-1.53,-1.19,2.62,1784933963716.1611
-0.831,-0.511,-0.129,-2.01,-1.13,2.5,1784933963716.377
-0.832,-0.516,-0.129,-2.01,-1.13,2.5,1784933963716.5972
-0.833,-0.518,-0.127,-2.26,-1.01,2.32,1784933963716.817
-0.834,-0.519,-0.125,-1.95,-0.95,2.35,1784933963717.0298
-0.835,-0.518,-0.127,-1.34,-0.98,2.47,1784933963717.258
-0.834,-0.52,-0.131,-0.58,-0.67,2.5,1784933963717.477
-0.833,-0.519,-0.131,0.18,-0.37,2.56,1784933963717.718
-0.834,-0.518,-0.131,0.79,-0.18,2.5,1784933963717.935
-0.834,-0.519,-0.132,1.19,-0.12,2.23,1784933963718.147
-0.834,-0.522,-0.135,1.19,0.12,1.98,1784933963718.355
-0.835,-0.522,-0.134,0.95,0.15,1.86,1784933963718.5652
-0.838,-0.519,-0.131,0.7,0.21,1.65,1784933963718.776
-0.837,-0.517,-0.13,0.64,0.31,1.4,1784933963718.984
-0.836,-0.518,-0.131,0.76,0.37,1.37,1784933963719.197
-0.836,-0.519,-0.129,0.76,0.34,1.19,1784933963719.41
-0.837,-0.518,-0.127,0.64,0.43,1.1,1784933963719.6702
-0.835,-0.518,-0.128,0.46,0.55,1.07,1784933963719.876
-0.836,-0.518,-0.127,0.61,0.61,1.1,1784933963720.09
-0.836,-0.516,-0.127,0.64,0.64,1.04,1784933963720.305
-0.835,-0.512,-0.126,0.67,0.7,0.92,1784933963720.511
-0.836,-0.514,-0.124,0.49,0.7,0.95,1784933963720.7239
-0.835,-0.513,-0.126,0.06,0.7,0.76,1784933963720.937
-0.837,-0.512,-0.125,-0.27,0.7,0.7,1784933963721.144
-0.838,-0.513,-0.124,-0.49,0.7,0.67,1784933963721.3618
-0.84,-0.51,-0.124,-0.58,0.67,0.7,1784933963721.577
-0.839,-0.51,-0.123,-0.55,0.67,0.7,1784933963721.7852
-0.838,-0.511,-0.12,-0.37,0.58,0.7,1784933963721.997
-0.837,-0.512,-0.118,-0.49,0.43,0.61,1784933963722.2148
-0.839,-0.511,-0.12,-0.67,0.37,0.58,1784933963722.419
-0.841,-0.509,-0.12,-0.61,0.43,0.55,1784933963722.6328
-0.841,-0.508,-0.119,-0.73,0.27,0.4,1784933963722.8423
-0.839,-0.507,-0.122,-1.19,0.06,0.31,1784933963723.0789
-0.84,-0.504,-0.125,-1.98,-0.06,0.24,1784933963723.288
-0.841,-0.503,-0.124,-2.59,-0.18,0.31,1784933963723.4978
-0.841,-0.507,-0.128,-3.14,-0.31,0.27,1784933963723.706
-0.841,-0.504,-0.126,-3.88,-0.4,0.4,1784933963723.9038
-0.839,-0.505,-0.128,-4.39,-0.37,0.31,1784933963724.1091
-0.84,-0.503,-0.129,-4.76,-0.37,0.34,1784933963724.315
-0.838,-0.503,-0.127,-4.91,-0.34,0.49,1784933963724.515
-0.836,-0.504,-0.127,-4.91,-0.37,0.7,1784933963724.7202
-0.835,-0.503,-0.126,-4.58,-0.27,0.73,1784933963724.925
-0.835,-0.505,-0.127,-3.57,-0.27,0.79,1784933963725.125
-0.836,-0.505,-0.128,-2.72,-0.21,0.67,1784933963725.3289
-0.836,-0.505,-0.128,-1.74,-0.12,0.7,1784933963725.5308
-0.834,-0.504,-0.13,-0.98,-0.12,0.73,1784933963725.7332
-0.838,-0.501,-0.133,-0.55,-0.09,0.67,1784933963725.9353
-0.84,-0.5,-0.134,-0.52,-0.06,0.76,1784933963726.1409
-0.84,-0.499,-0.136,-0.98,0.06,1.13,1784933963726.363
-0.841,-0.497,-0.139,-1.83,0.18,1.31,1784933963726.5652
-0.84,-0.498,-0.139,-2.75,0.18,1.31,1784933963726.766
-0.84,-0.501,-0.136,-3.39,0.15,1.43,1784933963726.972
-0.84,-0.503,-0.135,-3.57,0.27,1.62,1784933963727.173
-0.839,-0.504,-0.131,-3.36,0.37,1.71,1784933963727.379
-0.84,-0.507,-0.131,-2.87,0.49,1.74,1784933963727.583
-0.84,-0.506,-0.132,-2.2,0.46,1.74,1784933963727.788
-0.839,-0.507,-0.135,-1.71,0.43,1.56,1784933963727.992
-0.836,-0.506,-0.135,-1.31,0.52,1.53,1784933963728.2
-0.834,-0.504,-0.135,-1.07,0.61,1.5,1784933963728.409
-0.835,-0.505,-0.136,-1.04,0.58,1.5,1784933963728.608
-0.837,-0.503,-0.136,-1.01,0.55,1.28,1784933963728.8152
-0.838,-0.504,-0.136,-1.04,0.55,1.19,1784933963729.024
-0.84,-0.502,-0.134,-0.98,0.49,1.25,1784933963729.2258
-0.843,-0.502,-0.132,-0.85,0.52,1.16,1784933963729.44
-0.844,-0.502,-0.13,-0.82,0.61,1.19,1784933963729.65
-0.844,-0.499,-0.131,-0.98,0.67,1.16,1784933963729.852
-0.843,-0.498,-0.133,-1.16,0.67,1.37,1784933963730.0579
-0.843,-0.498,-0.135,-1.25,0.67,1.65,1784933963730.2668
-0.841,-0.5,-0.132,-1.31,0.7,1.74,1784933963730.47
-0.841,-0.5,-0.129,-1.19,0.73,1.71,1784933963730.688
-0.841,-0.501,-0.127,-0.98,0.64,1.53,1784933963730.894
-0.841,-0.501,-0.128,-0.58,0.55,1.59,1784933963731.093
-0.84,-0.5,-0.13,-0.37,0.46,1.37,1784933963731.3088
-0.84,-0.5,-0.13,-0.18,0.49,1.1,1784933963731.5369
-0.844,-0.498,-0.132,0.03,0.21,0.61,1784933963732.1392
-0.844,-0.498,-0.132,-0.06,0.12,0.55,1784933963732.332
-0.853,-0.444,-0.173,1.07,1.68,1.89,1784933963732.581
-0.854,-0.443,-0.175,0.89,1.74,1.92,1784933963732.7979
-0.854,-0.444,-0.172,0.37,1.8,1.77,1784933963732.992
-0.856,-0.445,-0.17,0.24,1.95,1.86,1784933963737.723
-0.853,-0.445,-0.168,0.37,1.92,1.98,1784933963742.8647
-0.855,-0.446,-0.167,0.58,1.95,2.14,1784933963753.095
-0.857,-0.446,-0.166,0.92,2.04,2.32,1784933963763.4182
-0.856,-0.445,-0.167,1.28,1.98,2.47,1784933963773.696
-0.858,-0.448,-0.166,1.46,2.01,2.35,1784933963783.968
-0.861,-0.447,-0.163,1.56,1.89,2.41,1784933963794.28
-0.862,-0.448,-0.162,1.8,1.86,2.38,1784933963804.5881
-0.865,-0.45,-0.163,1.92,1.74,2.32,1784933963817.832
-0.865,-0.449,-0.165,1.98,1.5,2.17,1784933963823.114
-0.867,-0.45,-0.168,1.74,1.28,2.01,1784933963833.259
-0.868,-0.449,-0.168,1.5,0.98,1.83,1784933963843.5781
-0.867,-0.449,-0.168,1.19,0.55,1.56,1784933963853.897
-0.866,-0.447,-0.169,0.64,0.06,1.16,1784933963864.153
-0.866,-0.449,-0.171,-0.03,-0.15,0.79,1784933963874.512
-0.868,-0.447,-0.17,-0.55,-0.43,0.52,1784933963887.758
-0.87,-0.448,-0.171,-0.55,-0.79,0.24,1784933963893.076
-0.866,-0.449,-0.174,-0.31,-0.82,-0.18,1784933963903.328
-0.864,-0.447,-0.174,-0.06,-1.01,-0.52,1784933963913.52
-0.866,-0.446,-0.175,0.46,-1.07,-0.76,1784933963923.784
-0.866,-0.448,-0.177,1.22,-1.04,-0.92,1784933963934.15
-0.864,-0.445,-0.178,2.17,-1.01,-1.07,1784933963944.5708
-0.862,-0.445,-0.178,3.08,-0.95,-1.25,1784933963954.883
-0.861,-0.449,-0.18,4.3,-1.01,-1.53,1784933963968.123
-0.86,-0.445,-0.181,5.8,-0.95,-1.74,1784933963973.7742
-0.858,-0.446,-0.177,8.0,-0.52,-1.95,1784933963983.4758
-0.86,-0.45,-0.174,10.68,-0.27,-2.01,1784933963993.898
-0.858,-0.452,-0.176,13.7,-0.24,-2.17,1784933964004.305
-0.858,-0.45,-0.179,16.75,-0.15,-2.26,1784933964014.7048
-0.859,-0.452,-0.175,19.59,0.24,-2.32,1784933964027.906
-0.86,-0.454,-0.171,22.52,0.67,-2.44,1784933964033.621
-0.856,-0.453,-0.172,25.39,0.95,-2.35,1784933964043.623
-0.859,-0.458,-0.174,28.02,1.25,-2.26,1784933964053.963
-0.858,-0.454,-0.174,29.3,1.25,-2.26,1784933964064.3499
-0.853,-0.455,-0.173,30.0,1.37,-1.92,1784933964074.7122
-0.852,-0.453,-0.175,29.76,1.62,-1.77,1784933964088.0
-0.851,-0.449,-0.173,28.35,1.89,-1.71,1784933964093.7788
-0.85,-0.451,-0.171,26.06,2.01,-1.86,1784933964103.716
-0.855,-0.449,-0.171,22.83,2.17,-1.83,1784933964114.003
-0.857,-0.447,-0.171,18.56,2.29,-1.71,1784933964124.382
-0.86,-0.446,-0.17,13.49,2.2,-1.53,1784933964134.8018
-0.865,-0.443,-0.167,8.51,2.2,-1.1,1784933964148.047
-0.866,-0.449,-0.159,4.64,2.44,-0.82,1784933964153.586
-0.867,-0.456,-0.152,2.14,2.5,-0.58,1784933964163.463
-0.863,-0.462,-0.143,1.74,2.66,-0.4,1784933964173.764
-0.859,-0.474,-0.127,3.78,2.69,-0.55,1784933964184.0342
-0.857,-0.491,-0.113,8.91,2.56,-1.07,1784933964194.3108
-0.862,-0.511,-0.109,16.08,2.41,-1.83,1784933964204.731
-0.864,-0.523,-0.102,22.71,1.62,-3.45,1784933964218.156
-0.873,-0.542,-0.096,30.06,0.18,-5.77,1784933964223.733
-0.883,-0.559,-0.083,37.6,-1.68,-8.91,1784933964233.69
-0.889,-0.575,-0.08,45.11,-4.09,-12.24,1784933964244.115
-0.896,-0.575,-0.081,51.79,-7.08,-15.99,1784933964254.619
-0.894,-0.57,-0.085,57.07,-10.32,-19.81,1784933964267.842
-0.887,-0.568,-0.099,60.15,-13.03,-23.96,1784933964273.6267
-0.887,-0.558,-0.105,59.94,-15.44,-28.05,1784933964284.111
-0.887,-0.545,-0.097,57.77,-17.15,-31.74,1784933964294.645
-0.885,-0.535,-0.088,54.57,-18.43,-34.55,1784933964307.931
-0.885,-0.535,-0.088,50.69,-19.75,-36.13,1784933964313.864
-0.882,-0.531,-0.099,46.36,-20.48,-37.08,1784933964324.1128
-0.877,-0.525,-0.095,43.4,-20.26,-37.42,1784933964334.719
-0.862,-0.523,-0.08,42.7,-20.36,-37.35,1784933964347.84
-0.853,-0.516,-0.064,44.53,-20.42,-36.9,1784933964354.018
-0.85,-0.514,-0.063,44.53,-20.42,-36.9,1784933964364.0662
-0.843,-0.515,-0.069,46.94,-19.75,-35.62,1784933964374.633
-0.832,-0.512,-0.067,49.1,-18.56,-33.3,1784933964387.892
-0.822,-0.513,-0.063,52.19,-17.37,-30.7,1784933964393.823
-0.819,-0.507,-0.064,54.81,-16.54,-28.69,1784933964403.902
-0.817,-0.504,-0.069,56.15,-15.72,-26.76,1784933964414.6418
-0.823,-0.521,-0.07,56.83,-14.5,-24.81,1784933964427.879
-0.843,-0.55,-0.068,57.59,-13.82,-24.02,1784933964433.87
-0.865,-0.563,-0.058,57.89,-13.67,-24.35,1784933964444.164
-0.887,-0.578,-0.039,59.18,-14.07,-24.81,1784933964454.69
-0.914,-0.61,-0.032,62.81,-15.11,-26.15,1784933964467.8872
-0.943,-0.64,-0.023,67.72,-16.02,-28.5,1784933964473.887
-0.96,-0.667,-0.003,74.37,-17.09,-32.14,1784933964484.055
-0.973,-0.693,0.033,82.03,-18.98,-36.68,1784933964494.619
-0.984,-0.708,0.072,90.58,-22.34,-41.57,1784933964507.8762
-0.975,-0.746,0.113,101.66,-26.52,-47.0,1784933964513.866
-0.982,-0.818,0.143,113.96,-31.4,-53.9,1784933964524.292
-1.009,-0.874,0.178,126.1,-36.53,-62.59,1784933964534.9277
-1.023,-0.933,0.196,141.85,-40.71,-71.84,1784933964548.126
-1.035,-0.963,0.211,159.89,-44.16,-82.64,1784933964554.183
-1.045,-0.975,0.254,177.56,-47.24,-91.95,1784933964564.59
-1.054,-0.982,0.306,193.09,-51.06,-99.37,1784933964578.157
-1.054,-0.979,0.359,204.75,-55.6,-104.19,1784933964583.885
-1.043,-0.966,0.39,210.76,-60.64,-107.03,1784933964594.479
-1.018,-0.942,0.398,212.04,-65.58,-108.98,1784933964607.8137
-0.991,-0.933,0.436,209.69,-70.35,-110.02,1784933964613.9673
-0.93,-0.9,0.482,199.9,-76.6,-111.58,1784933964624.4941
-0.862,-0.866,0.488,178.62,-83.29,-116.82,1784933964637.8062
-0.804,-0.828,0.536,139.38,-87.59,-121.65,1784933964643.751
-0.795,-0.794,0.545,86.64,-91.53,-129.03,1784933964654.407
-0.781,-0.795,0.49,30.24,-93.78,-137.03,1784933964664.9402
-0.747,-0.749,0.452,-24.99,-92.44,-144.99,1784933964678.2761
-0.69,-0.751,0.413,-79.53,-90.73,-151.04,1784933964684.2307
-0.629,-0.8,0.346,-131.99,-87.95,-158.73,1784933964694.818
-0.573,-0.859,0.265,-177.28,-81.88,-164.25,1784933964708.075
-0.487,-0.931,0.233,-210.97,-73.73,-168.46,1784933964714.0757
-0.414,-0.981,0.235,-233.95,-64.76,-174.63,1784933964724.78
-0.356,-1.014,0.249,-251.05,-56.15,-180.7,1784933964738.371
-0.306,-1.032,0.237,-265.39,-47.49,-185.37,1784933964744.048
-0.244,-1.032,0.221,-279.31,-38.58,-189.06,1784933964754.833
-0.174,-1.01,0.234,-293.01,-31.31,-193.21,1784933964768.06
-0.107,-1.017,0.205,-303.69,-24.38,-197.52,1784933964774.053
-0.148,-1.002,0.166,-313.46,-16.17,-201.51,1784933964784.769
-0.091,-1.042,0.102,-323.01,-12.54,-193.27,1784933964797.965
0.022,-1.046,0.067,-324.47,-0.7,-192.72,1784933964804.084
0.026,-0.946,0.004,-313.76,8.61,-197.45,1784933964814.443
0.037,-0.913,-0.089,-297.49,16.94,-195.53,1784933964827.74
0.061,-0.958,-0.164,-284.19,27.77,-192.27,1784933964833.833
0.051,-0.939,-0.176,-280.37,36.74,-192.3,1784933964844.5088
0.035,-0.873,-0.165,-279.92,43.76,-191.5,1784933964858.044
0.045,-0.884,-0.191,-277.35,50.75,-186.71,1784933964863.734
0.059,-0.946,-0.224,-277.35,57.89,-181.98,1784933964874.433
0.05,-0.937,-0.218,-278.42,65.13,-179.08,1784933964887.71
0.061,-0.886,-0.173,-267.89,71.32,-172.52,1784933964893.861
0.073,-0.885,-0.197,-245.74,74.28,-164.74,1784933964904.418
0.058,-0.855,-0.214,-225.41,75.66,-160.86,1784933964917.617
0.044,-0.808,-0.222,-208.41,75.81,-157.26,1784933964923.7593
0.044,-0.782,-0.206,-191.2,74.43,-152.2,1784933964934.381
0.06,-0.749,-0.21,-173.31,72.39,-145.73,1784933964947.621
0.061,-0.702,-0.21,-154.55,68.39,-139.47,1784933964953.7402
0.061,-0.613,-0.246,-135.59,62.29,-133.06,1784933964964.275
0.066,-0.546,-0.295,-115.67,56.64,-125.43,1784933964975.038
0.067,-0.505,-0.335,-98.91,51.3,-117.28,1784933964988.251
0.071,-0.489,-0.405,-87.25,46.66,-109.53,1784933964994.345
0.086,-0.486,-0.404,-82.19,44.01,-102.05,1784933965004.864
0.099,-0.459,-0.395,-79.53,40.04,-94.12,1784933965018.1848
0.129,-0.41,-0.373,-75.81,35.31,-84.99,1784933965023.9841
0.171,-0.356,-0.359,-68.51,30.0,-75.32,1784933965034.119
0.212,-0.306,-0.368,-58.47,24.96,-66.04,1784933965044.7239
0.252,-0.242,-0.344,-49.62,19.87,-56.95,1784933965057.755
0.313,-0.192,-0.31,-40.28,13.58,-47.49,1784933965063.7358
0.415,-0.157,-0.299,-32.35,6.5,-37.17,1784933965074.028
0.532,-0.196,-0.342,-27.95,0.4,-23.62,1784933965084.563
0.593,-0.24,-0.363,-23.01,-4.43,-10.56,1784933965094.975
0.654,-0.344,-0.388,-13.18,-10.86,2.01,1784933965108.1973
0.653,-0.356,-0.41,4.67,-14.74,6.32,1784933965113.9841
0.647,-0.354,-0.458,23.8,-19.17,10.77,1784933965124.1602
0.641,-0.339,-0.498,35.25,-23.19,13.12,1784933965134.7148
0.625,-0.337,-0.525,41.17,-25.67,13.67,1784933965147.9348
0.632,-0.362,-0.543,43.46,-28.08,14.22,1784933965153.996
0.649,-0.396,-0.598,44.22,-30.27,13.76,1784933965164.14
0.661,-0.427,-0.659,42.7,-30.73,11.54,1784933965174.766
0.664,-0.467,-0.71,38.39,-29.91,9.37,1784933965187.9958
0.693,-0.509,-0.749,30.98,-27.16,6.56,1784933965193.85
0.715,-0.48,-0.759,20.51,-23.5,2.17,1784933965203.8882
0.735,-0.511,-0.78,10.38,-18.8,0.67,1784933965214.3372
0.741,-0.568,-0.795,-2.14,-13.61,-1.07,1784933965224.724
0.737,-0.648,-0.825,-13.12,-8.48,-3.14,1784933965237.997
0.726,-0.733,-0.835,-21.67,-2.78,-7.02,1784933965243.687
0.735,-0.778,-0.814,-26.86,2.01,-12.27,1784933965253.7898
0.76,-0.763,-0.776,-27.25,5.68,-17.73,1784933965264.193
0.762,-0.707,-0.768,-23.93,8.39,-23.38,1784933965274.7422
0.75,-0.658,-0.758,-21.88,10.65,-27.68,1784933965287.732
0.715,-0.637,-0.8,-22.74,12.51,-30.24,1784933965293.958
0.644,-0.756,-0.939,-26.15,16.05,-31.98,1784933965304.2769
0.6,-0.874,-0.957,-36.26,23.04,-36.84,1784933965314.784
0.604,-0.888,-0.923,-43.09,28.5,-42.05,1784933965327.952
0.611,-0.875,-0.903,-42.21,33.14,-45.2,1784933965333.973
0.608,-0.838,-0.827,-39.0,37.14,-48.46,1784933965344.169
0.633,-0.768,-0.706,-31.8,38.06,-51.67,1784933965354.8438
0.674,-0.655,-0.589,-19.44,35.89,-54.72,1784933965367.9932
0.692,-0.514,-0.513,-5.13,31.86,-55.88,1784933965373.982
0.69,-0.356,-0.507,7.57,26.43,-53.59,1784933965384.0269
0.678,-0.243,-0.559,16.6,22.58,-47.55,1784933965394.54
0.644,-0.198,-0.634,17.03,21.21,-40.19,1784933965407.822
0.61,-0.239,-0.694,7.11,21.3,-33.02,1784933965413.7979
0.61,-0.328,-0.728,-9.46,22.74,-26.25,1784933965423.823
0.622,-0.411,-0.743,-25.15,23.56,-21.58,1784933965434.405
0.626,-0.497,-0.723,-34.55,24.02,-18.22,1784933965444.9292
0.628,-0.543,-0.682,-37.05,23.07,-15.93,1784933965457.981
0.64,-0.532,-0.612,-32.62,20.6,-14.4,1784933965463.9648
0.66,-0.484,-0.545,-23.71,16.08,-11.29,1784933965474.425
0.688,-0.451,-0.512,-14.8,10.62,-7.08,1784933965484.844
0.694,-0.433,-0.518,-8.42,5.65,-3.08,1784933965498.21
0.66,-0.45,-0.579,-5.37,1.04,0.34,1784933965503.811
0.629,-0.46,-0.591,-7.35,-1.56,3.17,1784933965513.4348
0.637,-0.432,-0.579,-9.55,-4.33,8.0,1784933965523.752
0.637,-0.419,-0.601,-7.23,-7.87,14.5,1784933965534.1492
0.593,-0.426,-0.649,-6.1,-10.41,20.48,1784933965544.643
0.559,-0.444,-0.642,-8.36,-11.93,25.73,1784933965557.9363
0.569,-0.439,-0.596,-10.96,-14.83,30.18,1784933965563.8552
0.566,-0.405,-0.544,-11.08,-19.14,34.82,1784933965574.026
0.544,-0.385,-0.505,-10.04,-23.83,42.21,1784933965584.744
0.519,-0.372,-0.47,-12.7,-29.51,49.84,1784933965597.835
0.519,-0.372,-0.47,-13.95,-35.37,55.3,1784933965604.039
0.406,-0.371,-0.5,-22.92,-44.04,65.07,1784933965614.0571
0.317,-0.446,-0.548,-30.27,-51.85,72.42,1784933965624.619
0.2,-0.482,-0.544,-28.99,-60.76,78.46,1784933965638.8918
0.14,-0.469,-0.559,-28.11,-67.05,87.19,1784933965644.2869
0.088,-0.423,-0.485,-28.11,-67.05,87.19,1784933965654.1492
0.064,-0.441,-0.455,-20.72,-75.93,99.52,1784933965664.573
0.032,-0.423,-0.484,-14.62,-85.57,104.68,1784933965677.8481
0.012,-0.458,-0.547,-14.28,-92.38,109.26,1784933965683.902
0.024,-0.484,-0.615,-14.34,-97.32,110.75,1784933965694.314
0.005,-0.514,-0.699,-13.86,-100.62,110.75,1784933965705.085
-0.015,-0.508,-0.735,-12.24,-102.11,110.51,1784933965718.2988
0.007,-0.494,-0.766,-11.02,-104.01,112.19,1784933965724.3918
0.038,-0.447,-0.845,-8.94,-104.37,113.47,1784933965734.925
0.024,-0.378,-0.899,-7.72,-101.75,116.89,1784933965748.1301
0.019,-0.374,-0.939,-8.79,-96.9,126.32,1784933965754.1758
-0.033,-0.373,-0.907,-14.47,-90.85,134.19,1784933965764.5051
-0.149,-0.452,-0.829,-18.71,-86.06,143.62,1784933965778.156
-0.227,-0.574,-0.767,-12.3,-85.42,151.49,1784933965783.783
-0.27,-0.609,-0.7,0.43,-88.69,151.92,1784933965794.15
-0.312,-0.592,-0.696,16.91,-92.14,151.8,1784933965804.791
-0.387,-0.487,-0.759,31.13,-95.52,151.98,1784933965818.284
-0.475,-0.336,-0.829,41.05,-96.74,156.01,1784933965823.695
-0.573,-0.226,-0.907,46.42,-95.83,164.74,1784933965834.5261
-0.651,-0.213,-0.967,45.44,-92.01,176.0,1784933965847.8433
-0.678,-0.416,-1.012,44.71,-85.18,186.5,1784933965854.12
-0.573,-0.81,-0.994,47.15,-74.43,185.61,1784933965864.2012
-0.343,-1.226,-0.898,58.2,-60.46,163.73,1784933965874.818
-0.11,-1.546,-0.845,80.14,-43.28,120.33,1784933965888.112
0.069,-1.619,-0.73,105.62,-23.59,64.24,1784933965894.076
0.107,-1.376,-0.535,137.33,-12.12,8.33,1784933965904.5051
-0.028,-0.908,-0.614,168.92,-14.19,-32.78,1784933965917.686
-0.136,-0.427,-0.827,183.45,-14.68,-46.75,1784933965923.768
-0.162,-0.174,-1.013,174.57,-8.79,-38.61,1784933965934.439
-0.174,-0.146,-1.036,145.63,0.37,-20.72,1784933965944.614
-0.209,-0.245,-0.894,105.78,6.87,-1.86,1784933965957.8792
-0.224,-0.433,-0.746,66.96,8.51,11.2,1784933965963.736
-0.21,-0.616,-0.645,39.34,6.62,16.36,1784933965973.752
-0.189,-0.773,-0.599,26.52,3.17,17.64,1784933965984.25
-0.16,-0.853,-0.589,21.3,1.53,16.17,1784933965994.781
-0.134,-0.88,-0.594,21.18,0.7,12.21,1784933966007.9692
-0.12,-0.876,-0.608,22.4,0.12,8.91,1784933966013.8162
-0.089,-0.88,-0.604,21.24,0.64,7.42,1784933966023.731
-0.078,-0.875,-0.593,17.76,1.46,4.88,1784933966034.069
-0.086,-0.854,-0.58,14.5,1.95,2.11,1784933966044.457
-0.093,-0.828,-0.56,14.04,2.38,0.55,1784933966054.857
-0.1,-0.856,-0.555,16.39,2.5,0.76,1784933966068.0818
-0.106,-0.88,-0.558,20.29,2.69,0.18,1784933966073.8152
-0.117,-0.888,-0.562,26.46,2.53,0.82,1784933966083.771
-0.118,-0.886,-0.549,36.23,1.68,1.68,1784933966094.171
-0.112,-0.89,-0.551,46.82,-0.34,2.93,1784933966104.5708
-0.101,-0.883,-0.558,57.28,-0.73,3.05,1784933966114.895
-0.105,-0.875,-0.551,67.66,-0.64,1.37,1784933966128.18
-0.115,-0.889,-0.538,77.15,-0.27,-0.98,1784933966133.892
-0.125,-0.883,-0.521,85.91,0.12,-5.1,1784933966143.851
-0.141,-0.875,-0.473,93.08,0.49,-8.24,1784933966154.198
-0.153,-0.857,-0.414,103.49,-0.98,-10.65,1784933966164.8208
-0.168,-0.807,-0.368,116.09,-3.75,-12.48,1784933966177.888
-0.172,-0.756,-0.33,131.11,-6.2,-11.47,1784933966183.785
-0.185,-0.698,-0.298,145.09,-8.21,-8.76,1784933966194.149
-0.184,-0.659,-0.281,152.62,-11.2,-2.08,1784933966204.7678
-0.167,-0.627,-0.195,158.7,-11.78,1.22,1784933966218.2139
-0.196,-0.592,-0.199,170.2,-15.59,2.47,1784933966224.021
-0.215,-0.596,-0.211,182.93,-16.45,4.24,1784933966234.165
-0.232,-0.587,-0.179,187.51,-17.43,5.52,1784933966244.709
-0.238,-0.533,-0.134,183.26,-20.11,6.74,1784933966257.984
-0.231,-0.469,-0.128,176.46,-23.01,10.32,1784933966263.603
-0.222,-0.449,-0.125,167.61,-22.95,16.33,1784933966274.24
-0.219,-0.438,-0.11,150.24,-23.74,22.06,1784933966285.1318
-0.212,-0.435,-0.109,124.88,-25.21,28.41,1784933966298.45
-0.199,-0.475,-0.115,92.5,-24.72,36.56,1784933966304.268
-0.183,-0.547,-0.123,58.72,-22.55,42.6,1784933966314.557
-0.186,-0.629,-0.137,30.0,-20.02,45.78,1784933966327.769
-0.211,-0.714,-0.142,9.86,-17.37,47.43,1784933966333.808
-0.25,-0.762,-0.124,-1.43,-14.8,49.65,1784933966343.814
-0.286,-0.799,-0.084,-1.68,-12.94,53.44,1784933966354.324
-0.326,-0.805,-0.034,8.61,-12.09,57.44,1784933966364.705
-0.356,-0.815,-0.014,26.83,-12.67,61.31,1784933966378.1882
-0.376,-0.849,-0.011,49.44,-12.51,64.46,1784933966383.5881
-0.403,-0.862,-0.009,70.04,-12.85,67.23,1784933966394.1938
-0.416,-0.812,-0.005,85.91,-13.34,70.35,1784933966404.8318
-0.427,-0.773,-0.029,95.34,-13.49,75.11,1784933966417.999
-0.403,-0.766,-0.075,94.27,-13.43,82.22,1784933966424.03
-0.398,-0.758,-0.117,84.48,-10.99,87.19,1784933966434.159
-0.397,-0.777,-0.132,68.82,-7.72,91.65,1784933966444.61
-0.414,-0.797,-0.139,51.06,-4.85,93.2,1784933966458.0732
-0.445,-0.817,-0.114,34.15,-1.77,94.42,1784933966463.809
-0.475,-0.843,-0.064,20.78,0.92,96.13,1784933966473.8008
-0.497,-0.873,-0.015,12.09,2.35,97.42,1784933966484.3
-0.515,-0.889,0.025,6.78,2.47,98.09,1784933966494.7532
-0.52,-0.928,0.026,5.13,1.68,99.89,1784933966508.011
-0.532,-0.986,0.007,5.34,1.59,101.5,1784933966513.73
-0.541,-1.016,0.002,5.46,2.26,102.15,1784933966524.1567
-0.541,-1.039,-0.001,7.32,2.96,102.51,1784933966535.9822
-0.546,-1.061,0.016,10.41,3.39,101.54,1784933966544.8179
-0.568,-1.042,0.037,13.25,2.9,97.84,1784933966558.1
-0.6,-1.006,0.072,16.27,1.89,93.78,1784933966563.9492
-0.622,-0.981,0.116,20.05,-0.64,90.06,1784933966574.042
-0.633,-0.958,0.156,25.36,-4.18,85.76,1784933966584.517
-0.651,-0.931,0.187,32.81,-7.97,81.73,1784933966594.962
-0.658,-0.888,0.228,40.83,-11.63,79.84,1784933966608.184
-0.662,-0.867,0.284,48.68,-14.89,79.5,1784933966614.2139
-0.684,-0.848,0.334,55.88,-18.1,79.9,1784933966624.352
-0.711,-0.813,0.324,59.85,-21.03,82.34,1784933966634.925
-0.73,-0.806,0.234,59.05,-22.37,86.31,1784933966648.167
-0.742,-0.832,0.139,51.45,-20.94,89.51,1784933966654.293
-0.734,-0.859,0.073,38.51,-17.88,91.07,1784933966664.369
-0.717,-0.9,0.051,26.49,-14.34,90.33,1784933966674.937
-0.713,-0.914,0.096,16.75,-10.9,88.78,1784933966688.216
-0.736,-0.926,0.184,13.09,-8.94,87.37,1784933966694.195
-0.765,-0.931,0.238,15.17,-9.77,85.33,1784933966704.261
-0.786,-0.919,0.228,18.43,-13.28,82.77,1784933966714.7751
-0.798,-0.892,0.162,19.68,-17.52,79.99,1784933966727.982
-0.778,-0.876,0.068,16.94,-20.78,78.65,1784933966733.9893
-0.774,-0.887,-0.004,9.0,-22.74,78.07,1784933966744.074
-0.802,-0.888,-0.022,-2.44,-23.77,77.09,1784933966754.646
-0.837,-0.875,-0.018,-15.47,-24.72,77.33,1784933966767.846
-0.863,-0.867,-0.019,-28.78,-26.22,77.82,1784933966773.8381
-0.878,-0.877,-0.016,-39.86,-27.04,77.33,1784933966784.0278
-0.887,-0.868,0.003,-48.34,-28.05,75.5,1784933966794.581
-0.894,-0.843,0.021,-53.77,-29.42,73.27,1784933966807.863
-0.902,-0.821,0.03,-56.28,-30.73,71.35,1784933966813.926
-0.899,-0.81,0.016,-57.53,-31.74,70.22,1784933966824.011
-0.899,-0.797,-0.005,-60.82,-32.11,69.19,1784933966834.5862
-0.894,-0.797,-0.043,-64.27,-31.28,67.45,1784933966847.841
-0.878,-0.846,-0.096,-65.0,-28.6,64.61,1784933966854.08
-0.859,-0.847,-0.092,-65.07,-23.83,60.09,1784933966864.0051
-0.841,-0.822,-0.058,-60.91,-18.19,56.37,1784933966874.6062
-0.828,-0.803,-0.016,-52.25,-12.51,54.11,1784933966887.853
-0.828,-0.803,-0.016,-39.34,-7.45,53.68,1784933966893.832
-0.809,-0.799,0.037,-21.91,-2.62,54.75,1784933966903.888
-0.78,-0.831,0.06,-3.02,1.01,56.34,1784933966914.186
-0.763,-0.866,0.062,13.52,3.23,56.95,1784933966924.713
-0.757,-0.884,0.029,24.96,5.34,55.73,1784933966938.1702
-0.748,-0.879,-0.023,24.96,5.34,55.73,1784933966943.838
-0.741,-0.857,-0.041,31.22,7.9,53.35,1784933966953.9321
-0.743,-0.822,-0.052,32.32,9.95,50.42,1784933966964.34
-0.737,-0.793,-0.08,28.08,11.66,47.09,1784933966974.8992
-0.74,-0.775,-0.07,19.71,13.31,43.31,1784933966988.172
-0.75,-0.771,-0.054,9.28,13.98,39.61,1784933966994.143
-0.761,-0.784,-0.059,-0.89,13.98,36.01,1784933967004.155
-0.772,-0.797,-0.061,-9.25,14.53,31.65,1784933967014.7341
-0.787,-0.811,-0.057,-13.34,15.75,26.67,1784933967027.9128
-0.829,-0.765,-0.016,-14.65,17.18,20.75,1784933967033.8938
-0.85,-0.699,0.028,-14.07,18.01,18.65,1784933967044.097
-0.822,-0.683,0.064,-12.45,18.07,16.69,1784933967054.741
-0.834,-0.654,0.093,-9.92,18.13,13.21,1784933967067.92
-0.858,-0.627,0.097,-7.2,16.6,11.11,1784933967073.766
-0.872,-0.592,0.12,-4.12,15.47,10.71,1784933967083.8
-0.851,-0.582,0.119,3.08,15.29,11.41,1784933967094.286
-0.845,-0.546,0.109,9.4,15.5,9.74,1784933967104.721
-0.859,-0.512,0.114,11.84,15.41,8.64,1784933967117.941
-0.837,-0.521,0.126,14.83,14.71,9.03,1784933967123.84
-0.827,-0.51,0.116,17.82,14.1,8.15,1784933967133.864
-0.836,-0.483,0.111,16.69,13.15,7.75,1784933967144.319
-0.836,-0.455,0.112,11.84,11.84,7.69,1784933967154.839
-0.827,-0.453,0.108,6.47,10.5,7.29,1784933967168.0781
-0.84,-0.451,0.089,-0.31,8.42,6.01,1784933967173.666
-0.841,-0.452,0.086,-7.63,6.59,4.97,1784933967183.5178
-0.86,-0.466,0.085,-11.81,5.58,4.12,1784933967193.902
-0.855,-0.484,0.081,-14.71,4.0,3.36,1784933967204.285
-0.849,-0.487,0.086,-16.02,3.11,1.28,1784933967214.699
-0.85,-0.505,0.076,-14.92,2.26,0.21,1784933967227.914
-0.851,-0.52,0.061,-13.06,1.62,-0.61,1784933967233.6208
-0.85,-0.526,0.054,-10.13,1.56,-1.01,1784933967243.5781
-0.853,-0.525,0.055,-6.23,1.86,-0.82,1784933967253.891
-0.855,-0.516,0.059,-2.81,1.74,-0.09,1784933967264.232
-0.853,-0.5,0.044,-0.85,1.53,0.58,1784933967274.1702
-0.845,-0.493,0.016,-1.71,1.34,1.28,1784933967284.826
-0.853,-0.489,-0.012,-5.83,1.07,1.56,1784933967298.218
-0.855,-0.507,-0.04,-11.6,1.43,2.01,1784933967303.367
-0.845,-0.498,-0.037,-19.1,2.62,0.24,1784933967313.592
-0.877,-0.49,-0.019,-24.96,3.39,-1.04,1784933967324.074
-0.876,-0.511,-0.008,-28.47,2.72,-0.21,1784933967334.406
-0.868,-0.52,0.017,-28.63,3.48,0.06,1784933967344.835
-0.863,-0.521,0.033,-26.03,3.54,-0.4,1784933967357.998
-0.876,-0.523,0.048,-21.12,3.75,-0.43,1784933967363.7222
-0.876,-0.522,0.052,-15.14,2.87,-0.27,1784933967373.723
-0.871,-0.516,0.056,-8.12,2.35,-1.46,1784933967383.935
-0.874,-0.512,0.044,-0.85,2.04,-2.41,1784933967394.249
-0.876,-0.492,0.03,3.63,1.56,-3.05,1784933967404.598
-0.869,-0.485,0.015,6.35,1.71,-3.11,1784933967414.849
-0.872,-0.476,0.004,6.65,1.56,-3.81,1784933967428.108
-0.876,-0.476,0.003,5.4,1.53,-4.09,1784933967433.601
-0.87,-0.472,0.005,4.21,1.59,-3.94,1784933967443.496
-0.867,-0.474,0.005,3.72,1.34,-3.3,1784933967453.8792
-0.862,-0.474,0.001,2.59,1.19,-2.99,1784933967464.128
-0.858,-0.474,-0.0,1.25,1.1,-2.38,1784933967474.45
-0.858,-0.476,-0.0,0.46,1.22,-1.86,1784933967484.988
-0.856,-0.473,-0.002,-0.09,1.4,-1.31,1784933967495.002
-0.856,-0.472,-0.004,-0.21,1.83,-0.92,1784933967508.222
-0.852,-0.477,-0.007,0.0,2.2,-0.95,1784933967513.768
-0.85,-0.485,-0.01,0.79,2.75,-1.1,1784933967523.7178
-0.86,-0.494,-0.011,2.32,3.33,-1.37,1784933967533.9639
-0.868,-0.493,-0.016,3.94,3.94,-1.56,1784933967544.28
-0.868,-0.494,-0.025,5.77,4.79,-1.56,1784933967554.5972
-0.87,-0.502,-0.041,8.91,5.74,-1.46,1784933967564.805
-0.869,-0.495,-0.049,11.2,7.08,-1.46,1784933967578.323
-0.862,-0.491,-0.05,13.98,8.79,-1.59,1784933967583.8232
-0.86,-0.489,-0.038,18.07,10.71,-1.59,1784933967593.927
-0.853,-0.485,-0.035,21.79,11.96,-1.19,1784933967604.4539
-0.848,-0.487,-0.048,24.63,13.03,-0.67,1784933967614.8071
-0.855,-0.493,-0.048,25.76,14.47,-0.64,1784933967628.083
-0.858,-0.505,-0.032,24.32,15.35,-0.7,1784933967633.988
-0.858,-0.5,-0.016,20.69,15.5,-1.46,1784933967643.9822
-0.857,-0.502,0.002,17.64,14.89,-2.38,1784933967654.571
-0.858,-0.495,0.016,15.08,13.43,-4.18,1784933967664.917
-0.865,-0.487,0.02,9.22,12.02,-3.94,1784933967678.164
-0.873,-0.487,0.009,4.7,10.01,-4.3,1784933967683.842
-0.878,-0.492,-0.007,0.27,8.18,-4.58,1784933967693.7642
-0.868,-0.501,-0.01,-3.54,7.45,-4.91,1784933967704.137
-0.855,-0.514,-0.001,-5.92,7.08,-4.94,1784933967714.3108
-0.847,-0.523,0.015,-6.26,6.71,-4.88,1784933967724.754
-0.839,-0.523,0.03,-4.21,6.62,-4.49,1784933967734.9707
-0.834,-0.525,0.044,0.4,6.65,-3.69,1784933967748.194
-0.836,-0.518,0.049,5.52,6.26,-2.93,1784933967753.918
-0.836,-0.499,0.043,9.31,5.49,-1.95,1784933967763.5789
-0.835,-0.48,0.028,10.19,4.58,-0.92,1784933967774.026
-0.841,-0.465,0.008,7.32,3.66,-0.52,1784933967784.2969
-0.845,-0.463,-0.011,2.29,3.23,-0.58,1784933967794.5679
-0.849,-0.467,-0.012,-2.93,3.23,-0.85,1784933967804.876
-0.852,-0.466,-0.001,-7.08,3.3,-0.76,1784933967818.353
-0.853,-0.467,0.009,-9.28,3.05,-0.37,1784933967823.6868
-0.851,-0.473,0.013,-9.61,2.84,0.18,1784933967833.5403
-0.852,-0.482,0.015,-8.42,2.69,0.76,1784933967843.843
-0.85,-0.486,0.012,-5.95,2.59,1.71,1784933967854.1592
-0.853,-0.482,0.007,-2.72,2.44,2.53,1784933967864.4321
-0.855,-0.477,-0.002,0.37,2.66,3.05,1784933967874.707
-0.858,-0.47,-0.004,2.2,2.56,3.42,1784933967885.018
-0.853,-0.462,-0.006,2.96,2.5,3.69,1784933967898.3481
-0.849,-0.452,-0.008,1.74,2.47,4.12,1784933967903.731
-0.846,-0.449,-0.004,-1.4,2.08,4.46,1784933967913.706
-0.842,-0.452,0.0,-5.1,1.53,4.76,1784933967924.0042
-0.843,-0.459,-0.001,-9.09,1.19,5.25,1784933967934.292
-0.844,-0.468,-0.008,-12.12,0.7,5.62,1784933967944.695
-0.847,-0.481,-0.013,-13.58,0.58,5.77,1784933967955.046
-0.851,-0.49,-0.013,-13.86,0.46,5.77,1784933967968.3499
-0.851,-0.492,-0.012,-12.91,0.46,5.68,1784933967974.007
-0.855,-0.496,-0.013,-10.93,0.64,5.49,1784933967983.922
-0.857,-0.494,-0.01,-8.91,0.7,5.58,1784933967994.271
-0.857,-0.499,-0.017,-6.84,0.7,6.04,1784933968004.5178
-0.856,-0.5,-0.024,-5.16,0.79,5.95,1784933968014.844
-0.857,-0.501,-0.031,-3.69,1.01,5.68,1784933968028.068
-0.856,-0.499,-0.035,-2.84,1.04,5.28,1784933968033.576
-0.853,-0.495,-0.037,-2.5,0.92,4.64,1784933968043.488
-0.863,-0.496,-0.041,-2.69,0.76,3.81,1784933968053.7861
-0.873,-0.498,-0.045,-3.45,0.46,3.02,1784933968064.06
-0.871,-0.498,-0.047,-4.36,0.46,2.23,1784933968074.352
-0.871,-0.5,-0.04,-4.94,0.37,1.65,1784933968084.6602
-0.872,-0.507,-0.032,-4.55,0.37,1.07,1784933968094.983
-0.875,-0.515,-0.028,-3.33,-0.06,0.34,1784933968108.186
-0.875,-0.517,-0.028,-1.53,-0.58,-0.79,1784933968113.723
-0.87,-0.514,-0.03,0.58,-0.79,-1.95,1784933968123.6829
-0.865,-0.51,-0.029,2.87,-1.04,-3.14,1784933968133.9253
-0.862,-0.505,-0.026,4.97,-1.34,-4.3,1784933968144.209
-0.86,-0.503,-0.017,6.68,-1.25,-5.28,1784933968154.512
-0.86,-0.503,-0.005,7.93,-1.25,-6.13,1784933968164.78
-0.864,-0.508,-0.002,8.91,-1.28,-6.93,1784933968178.215
-0.864,-0.508,-0.002,9.49,-1.28,-7.45,1784933968183.5752
-0.867,-0.516,-0.001,10.32,-1.04,-8.24,1784933968193.574
-0.866,-0.53,-0.009,11.44,-0.67,-9.61,1784933968203.942
-0.869,-0.546,-0.01,12.82,-0.24,-10.96,1784933968214.449
-0.864,-0.542,-0.0,14.56,-0.24,-11.78,1784933968224.906
-0.853,-0.536,0.006,14.56,-0.24,-11.78,1784933968238.1482
-0.848,-0.533,0.004,15.99,-1.01,-12.36,1784933968244.044
-0.851,-0.534,-0.0,16.63,-1.86,-12.82,1784933968254.123
-0.852,-0.531,-0.013,16.14,-3.05,-13.06,1784933968264.5671
-0.852,-0.528,-0.028,14.62,-4.06,-13.15,1784933968274.8
-0.852,-0.521,-0.034,11.96,-4.97,-13.49,1784933968288.205
-0.847,-0.51,-0.033,8.33,-5.55,-13.67,1784933968294.121
-0.842,-0.505,-0.035,4.58,-5.74,-13.7,1784933968304.079
-0.841,-0.503,-0.031,1.4,-5.52,-13.55,1784933968314.4487
-0.84,-0.503,-0.027,-0.67,-5.25,-13.31,1784933968324.7969
-0.841,-0.506,-0.026,-1.56,-4.61,-12.85,1784933968338.331
-0.84,-0.502,-0.017,-1.46,-3.66,-12.15,1784933968343.789
-0.835,-0.496,-0.006,-0.4,-2.56,-10.71,1784933968353.803
-0.829,-0.491,0.001,1.37,-1.68,-8.94,1784933968364.4832
-0.826,-0.482,0.007,3.17,-0.82,-7.14,1784933968374.3337
-0.821,-0.479,0.01,4.67,-0.24,-5.25,1784933968384.5989
-0.816,-0.477,0.009,5.52,0.31,-3.54,1784933968394.931
-0.817,-0.474,0.005,5.25,0.76,-2.5,1784933968408.264
-0.823,-0.471,0.003,4.03,0.89,-1.95,1784933968414.118
-0.828,-0.471,0.001,2.56,0.92,-1.43,1784933968423.5708
-0.832,-0.472,0.003,0.95,0.79,-0.95,1784933968433.8481
-0.835,-0.474,0.004,-0.58,0.43,-0.52,1784933968444.2593
-0.837,-0.477,0.002,-1.98,-0.24,-0.24,1784933968454.5989
-0.842,-0.479,0.003,-3.23,-0.79,0.09,1784933968464.739
-0.852,-0.478,0.004,-4.3,-1.4,0.52,1784933968475.1392
-0.857,-0.477,0.001,-5.83,-1.8,1.1,1784933968488.427
-0.863,-0.482,-0.01,-8.09,-1.83,1.71,1784933968493.844
-0.868,-0.483,-0.017,-10.99,-1.25,2.38,1784933968505.0603
-0.871,-0.491,-0.016,-13.31,-0.49,3.02,1784933968514.018
-0.869,-0.502,-0.013,-14.19,0.12,3.2,1784933968524.503
-0.862,-0.515,-0.009,-12.63,0.37,3.39,1784933968535.004
-0.854,-0.524,-0.01,-9.55,0.18,3.66,1784933968548.3232
-0.847,-0.53,-0.016,-6.01,-0.31,3.88,1784933968554.007
-0.839,-0.529,-0.026,-2.75,-0.79,3.75,1784933968563.6448
-0.832,-0.522,-0.036,-0.58,-1.34,3.54,1784933968574.039
-0.83,-0.513,-0.044,-0.09,-1.56,3.05,1784933968588.289
-0.827,-0.504,-0.044,-1.31,-1.28,2.59,1784933968594.2842
-0.82,-0.504,-0.042,-3.3,-0.92,2.69,1784933968604.9258
-0.819,-0.51,-0.04,-5.65,-0.43,2.84,1784933968618.3528
-0.819,-0.514,-0.037,-7.63,0.18,2.96,1784933968623.6748
-0.821,-0.518,-0.031,-8.48,0.79,3.42,1784933968633.474
-0.821,-0.521,-0.026,-8.06,1.19,3.85,1784933968643.7869
