ax,ay,az,gx,gy,gz,timestamp_ms
-0.77,-0.645,0.029,-5.22,-0.58,-4.67,1784934077088.585
-0.777,-0.646,0.024,-4.03,-0.43,-4.97,1784934077088.8691
-0.784,-0.647,0.024,-2.66,-0.4,-4.88,1784934077089.083
-0.794,-0.642,0.033,-0.95,-0.31,-4.82,1784934077089.302
-0.798,-0.632,0.038,1.56,-0.46,-4.64,1784934077089.511
-0.795,-0.622,0.032,3.72,-1.01,-4.36,1784934077089.7222
-0.782,-0.618,0.016,4.97,-1.68,-3.72,1784934077089.939
-0.772,-0.613,0.001,4.64,-2.08,-3.02,1784934077090.143
-0.762,-0.609,-0.006,3.05,-2.26,-2.35,1784934077090.3362
-0.752,-0.606,-0.004,0.85,-1.98,-1.65,1784934077090.54
-0.748,-0.605,0.008,-1.25,-1.71,-1.01,1784934077090.751
-0.746,-0.603,0.022,-2.29,-1.46,-0.21,1784934077090.946
-0.747,-0.595,0.031,-2.72,-1.34,0.67,1784934077091.1492
-0.742,-0.597,0.033,-2.9,-1.31,1.89,1784934077091.35
-0.738,-0.6,0.029,-3.23,-1.5,2.78,1784934077091.5442
-0.737,-0.601,0.027,-3.45,-1.4,3.6,1784934077091.742
-0.736,-0.605,0.027,-3.3,-1.04,4.12,1784934077091.9448
-0.748,-0.599,0.029,-3.66,-0.67,4.52,1784934077092.135
-0.76,-0.595,0.036,-4.64,-0.18,5.25,1784934077092.3362
-0.77,-0.591,0.045,-5.65,0.46,5.95,1784934077092.538
-0.773,-0.594,0.049,-6.41,0.76,6.81,1784934077092.731
-0.772,-0.602,0.048,-6.71,0.76,7.45,1784934077092.948
-0.772,-0.609,0.05,-6.5,0.7,7.66,1784934077093.149
-0.772,-0.614,0.055,-5.46,0.73,7.87,1784934077093.3472
-0.77,-0.618,0.057,-3.72,0.58,7.97,1784934077093.538
-0.772,-0.619,0.057,-1.74,0.37,7.84,1784934077093.7368
-0.776,-0.62,0.055,0.49,-0.03,7.54,1784934077093.934
-0.776,-0.618,0.052,1.95,-0.58,6.99,1784934077094.125
-0.776,-0.616,0.046,2.59,-1.1,6.65,1784934077094.324
-0.777,-0.613,0.045,2.62,-1.68,6.2,1784934077094.53
-0.779,-0.611,0.04,2.04,-2.26,5.71,1784934077094.73
-0.774,-0.611,0.036,1.04,-3.05,5.28,1784934077094.927
-0.772,-0.613,0.029,-0.31,-3.6,5.01,1784934077095.126
-0.771,-0.613,0.022,-1.86,-3.63,4.94,1784934077095.336
-0.771,-0.615,0.023,-3.45,-3.51,4.91,1784934077095.55
-0.77,-0.612,0.023,-5.13,-3.39,5.01,1784934077095.799
-0.771,-0.617,0.022,-6.47,-3.23,5.1,1784934077096.0132
-0.778,-0.63,0.017,-7.35,-3.08,4.97,1784934077096.215
-0.782,-0.633,0.01,-8.03,-2.75,4.76,1784934077096.4321
-0.781,-0.639,0.006,-8.58,-2.23,4.64,1784934077096.6138
-0.782,-0.636,0.004,-9.19,-1.65,4.21,1784934077096.802
-0.788,-0.639,0.01,-9.22,-1.5,3.88,1784934077096.9941
-0.8,-0.639,0.017,-8.48,-1.53,3.36,1784934077097.1821
-0.806,-0.638,0.019,-7.02,-1.56,3.27,1784934077097.37
-0.796,-0.635,0.02,-5.13,-1.68,3.39,1784934077097.568
-0.79,-0.637,0.009,-3.05,-1.92,3.78,1784934077097.759
-0.798,-0.639,-0.001,-1.31,-2.04,4.03,1784934077097.944
-0.805,-0.639,-0.005,-0.15,-1.98,4.3,1784934077098.135
-0.804,-0.634,-0.005,0.03,-1.62,4.58,1784934077098.3281
-0.799,-0.626,-0.001,-0.27,-1.22,4.88,1784934077098.514
-0.795,-0.619,0.002,-1.07,-0.85,4.67,1784934077098.7231
-0.788,-0.616,0.008,-2.44,-0.73,3.91,1784934077098.931
-0.78,-0.614,0.017,-3.6,-0.73,2.96,1784934077099.117
-0.773,-0.609,0.025,-4.33,-0.64,1.89,1784934077099.306
-0.766,-0.603,0.028,-4.06,-0.76,0.73,1784934077099.5159
-0.76,-0.602,0.029,-3.08,-0.89,0.24,1784934077099.6968
-0.757,-0.599,0.028,-2.04,-0.95,-0.18,1784934077099.893
-0.758,-0.594,0.025,-0.98,-0.79,-0.34,1784934077100.095
-0.758,-0.587,0.024,-0.15,-0.43,-0.06,1784934077100.276
-0.761,-0.584,0.024,0.46,0.06,0.49,1784934077100.467
-0.763,-0.583,0.025,0.85,0.49,0.92,1784934077100.678
-0.765,-0.584,0.026,0.95,1.07,1.28,1784934077100.916
-0.766,-0.589,0.026,0.85,1.62,1.56,1784934077101.1191
-0.772,-0.589,0.029,0.92,2.14,1.4,1784934077101.362
-0.784,-0.587,0.031,0.79,2.62,1.28,1784934077101.574
-0.793,-0.588,0.033,0.98,2.96,1.68,1784934077101.759
-0.802,-0.593,0.032,1.28,2.96,2.14,1784934077102.0469
-0.81,-0.597,0.028,1.34,2.62,2.59,1784934077102.2542
-0.816,-0.599,0.025,1.28,2.29,3.39,1784934077102.488
-0.819,-0.604,0.015,0.79,1.74,4.46,1784934077102.695
-0.816,-0.61,0.006,-0.34,1.16,5.13,1784934077102.8809
-0.816,-0.61,0.006,-1.5,0.7,5.31,1784934077103.1091
-0.812,-0.616,0.002,-2.72,0.52,5.16,1784934077103.3542
-0.807,-0.613,0.006,-4.3,0.21,4.94,1784934077103.543
-0.799,-0.61,0.008,-5.83,-0.15,4.46,1784934077103.726
-0.788,-0.61,0.013,-5.83,-0.15,4.46,1784934077103.915
-0.783,-0.613,0.013,-6.93,-0.49,3.39,1784934077104.1018
-0.778,-0.613,0.011,-7.84,-1.07,2.11,1784934077104.2837
-0.775,-0.608,0.011,-8.45,-1.1,1.07,1784934077104.4731
-0.773,-0.604,0.014,-8.24,-0.98,0.46,1784934077104.7039
-0.771,-0.605,0.014,-7.6,-0.79,0.15,1784934077104.9001
-0.772,-0.608,0.014,-6.53,-0.37,0.12,1784934077105.08
-0.773,-0.608,0.014,-5.13,0.21,0.52,1784934077105.265
-0.775,-0.607,0.013,-3.81,1.07,1.01,1784934077105.4539
-0.778,-0.605,0.01,-2.9,1.8,1.19,1784934077105.637
-0.78,-0.601,0.008,-2.5,2.38,1.19,1784934077105.845
-0.781,-0.602,0.007,-2.69,2.87,0.76,1784934077106.035
-0.785,-0.604,0.005,-3.05,3.2,0.12,1784934077106.219
-0.787,-0.602,0.005,-3.63,3.48,-0.43,1784934077106.403
-0.792,-0.601,-0.002,-4.3,3.51,-1.01,1784934077106.595
-0.799,-0.605,-0.007,-4.91,3.36,-1.46,1784934077106.781
-0.805,-0.609,-0.008,-5.74,3.23,-1.98,1784934077106.966
-0.809,-0.609,-0.007,-6.44,3.11,-2.17,1784934077107.173
-0.812,-0.607,-0.009,-6.47,2.9,-1.89,1784934077107.3643
-0.815,-0.61,-0.016,-6.47,2.72,-1.59,1784934077107.5508
-0.819,-0.605,-0.018,-6.9,2.72,-1.4,1784934077107.741
-0.817,-0.601,-0.02,-7.42,2.41,-1.16,1784934077107.9302
-0.816,-0.597,-0.021,-7.84,2.11,-0.89,1784934077108.111
-0.812,-0.596,-0.023,-8.18,1.83,-0.73,1784934077108.31
-0.81,-0.593,-0.024,-8.64,1.34,-0.73,1784934077108.501
-0.807,-0.588,-0.027,-8.94,0.79,-0.55,1784934077108.69
-0.797,-0.584,-0.038,-9.31,0.34,-0.18,1784934077108.881
-0.786,-0.584,-0.04,-9.74,-0.03,0.24,1784934077109.072
-0.775,-0.582,-0.043,-11.11,-0.21,0.49,1784934077109.264
-0.764,-0.585,-0.045,-12.88,-0.27,0.49,1784934077109.458
-0.751,-0.589,-0.045,-14.56,0.09,0.4,1784934077109.65
-0.742,-0.591,-0.045,-15.96,0.92,0.06,1784934077109.835
-0.742,-0.594,-0.044,-16.91,1.98,-0.06,1784934077110.024
-0.739,-0.598,-0.038,-17.0,3.02,-0.21,1784934077110.2158
-0.745,-0.6,-0.028,-16.48,4.0,-0.31,1784934077110.4077
-0.758,-0.598,-0.02,-15.72,4.85,-0.27,1784934077110.5962
-0.772,-0.598,-0.013,-14.31,5.46,0.7,1784934077110.788
-0.779,-0.605,-0.012,-11.81,6.01,2.29,1784934077110.978
-0.786,-0.613,-0.015,-8.91,6.1,4.03,1784934077111.1638
-0.793,-0.619,-0.021,-6.38,5.95,5.37,1784934077111.3533
-0.797,-0.618,-0.027,-4.97,5.37,6.2,1784934077111.5442
-0.802,-0.614,-0.031,-4.58,4.76,6.59,1784934077111.725
-0.804,-0.617,-0.033,-4.46,4.33,6.81,1784934077111.91
-0.803,-0.617,-0.032,-4.58,3.78,6.1,1784934077112.105
-0.799,-0.616,-0.026,-4.52,3.23,4.82,1784934077112.287
-0.796,-0.611,-0.018,-3.48,2.59,3.33,1784934077112.4758
-0.79,-0.607,-0.011,-1.77,1.8,1.83,1784934077112.666
-0.785,-0.6,-0.004,-0.15,1.1,0.55,1784934077112.8508
-0.78,-0.591,0.001,1.22,0.34,-0.4,1784934077113.038
-0.776,-0.582,-0.004,2.41,-0.27,-0.98,1784934077113.234
-0.774,-0.575,-0.01,2.62,-0.67,-1.01,1784934077113.431
-0.772,-0.57,-0.014,1.8,-1.13,-0.85,1784934077113.618
-0.773,-0.57,-0.014,0.27,-1.5,-0.31,1784934077113.8071
-0.777,-0.573,-0.014,-1.46,-1.92,0.34,1784934077113.995
-0.778,-0.579,-0.015,-2.81,-1.86,1.01,1784934077114.1738
-0.779,-0.586,-0.011,-3.27,-1.74,1.43,1784934077114.362
-0.778,-0.591,-0.006,-2.87,-1.71,1.56,1784934077114.5542
-0.78,-0.593,-0.001,-1.68,-1.68,1.4,1784934077114.741
-0.777,-0.592,0.005,0.58,-1.43,0.98,1784934077114.933
-0.776,-0.592,0.009,3.48,-1.19,0.15,1784934077115.1272
-0.777,-0.59,0.012,6.53,-1.31,-0.98,1784934077115.316
-0.779,-0.581,0.013,9.28,-1.62,-1.83,1784934077115.505
-0.784,-0.576,0.01,11.66,-1.8,-2.5,1784934077115.6963
-0.788,-0.571,0.003,13.06,-2.11,-2.93,1784934077115.883
-0.793,-0.567,-0.003,13.64,-2.62,-3.11,1784934077116.092
-0.801,-0.565,-0.012,13.25,-3.27,-2.78,1784934077116.287
-0.809,-0.564,-0.017,11.63,-3.91,-2.01,1784934077116.474
-0.816,-0.566,-0.021,9.06,-4.43,-1.25,1784934077116.6738
-0.823,-0.568,-0.023,6.04,-4.91,-0.06,1784934077116.8608
-0.827,-0.569,-0.023,2.93,-5.49,1.28,1784934077117.053
-0.827,-0.576,-0.026,-0.09,-6.16,2.56,1784934077117.2358
-0.826,-0.582,-0.024,-2.81,-6.71,3.48,1784934077117.429
-0.821,-0.587,-0.023,-5.07,-7.2,4.43,1784934077117.618
-0.816,-0.591,-0.024,-6.74,-7.42,5.1,1784934077117.8
-0.811,-0.596,-0.026,-7.6,-7.72,5.49,1784934077117.986
-0.807,-0.6,-0.028,-8.0,-7.84,5.25,1784934077118.1719
-0.803,-0.603,-0.031,-7.66,-7.75,5.19,1784934077118.3538
-0.797,-0.603,-0.03,-6.9,-7.6,4.94,1784934077118.546
-0.795,-0.603,-0.029,-6.16,-7.45,4.36,1784934077118.737
-0.79,-0.607,-0.028,-5.13,-7.05,3.81,1784934077118.918
-0.79,-0.604,-0.025,-3.81,-6.5,3.48,1784934077119.106
-0.79,-0.603,-0.027,-2.29,-5.98,3.14,1784934077119.295
-0.792,-0.602,-0.033,-1.01,-5.43,3.02,1784934077119.482
-0.795,-0.6,-0.037,-0.24,-4.64,3.02,1784934077119.683
-0.794,-0.598,-0.037,-0.09,-3.6,3.02,1784934077119.873
-0.792,-0.598,-0.034,-0.12,-2.69,3.11,1784934077120.0662
-0.793,-0.599,-0.031,-0.27,-1.77,3.11,1784934077120.249
-0.795,-0.599,-0.024,-0.03,-1.13,2.99,1784934077120.437
-0.797,-0.602,-0.021,0.58,-0.49,2.78,1784934077120.628
-0.802,-0.601,-0.018,1.34,0.06,2.29,1784934077120.809
-0.805,-0.597,-0.018,2.14,0.37,1.92,1784934077121.0042
-0.808,-0.59,-0.019,2.72,0.49,1.56,1784934077121.197
-0.81,-0.585,-0.019,2.84,0.55,1.13,1784934077121.3792
-0.811,-0.585,-0.021,2.35,0.52,1.16,1784934077121.57
-0.809,-0.583,-0.019,1.56,0.82,1.01,1784934077121.759
-0.808,-0.582,-0.017,0.89,0.82,1.16,1784934077121.946
-0.808,-0.582,-0.015,0.4,0.64,1.37,1784934077122.1418
-0.81,-0.582,-0.013,0.15,0.73,1.5,1784934077122.323
-0.81,-0.58,-0.01,0.34,0.64,1.83,1784934077122.5027
-0.806,-0.568,-0.009,-0.27,1.1,1.74,1784934077122.876
-0.806,-0.573,-0.003,-0.31,1.16,2.38,1784934077123.132
-0.851,-0.484,-0.173,-0.18,1.01,-0.12,1784934077123.5671
-0.852,-0.481,-0.172,-0.49,0.85,-0.27,1784934077123.842
-0.851,-0.484,-0.169,-0.61,0.73,-0.52,1784934077129.56
-0.849,-0.483,-0.167,-0.27,0.61,-0.7,1784934077134.757
-0.848,-0.48,-0.167,-0.06,0.55,-0.85,1784934077144.9612
-0.848,-0.479,-0.17,-0.03,0.34,-0.98,1784934077155.266
-0.847,-0.476,-0.17,-0.24,0.12,-1.16,1784934077165.5
-0.847,-0.474,-0.171,-0.46,-0.06,-1.25,1784934077175.89
-0.846,-0.473,-0.171,-0.52,-0.24,-1.43,1784934077186.1829
-0.847,-0.471,-0.171,-0.85,-0.27,-1.71,1784934077196.4648
-0.849,-0.47,-0.174,-1.22,-0.27,-1.86,1784934077209.696
-0.849,-0.471,-0.175,-1.22,-0.46,-1.71,1784934077214.929
-0.848,-0.469,-0.177,-1.19,-0.52,-1.74,1784934077225.1301
-0.848,-0.468,-0.176,-0.89,-0.52,-1.68,1784934077235.463
-0.847,-0.468,-0.176,-0.67,-0.58,-1.62,1784934077245.737
-0.846,-0.468,-0.178,-0.73,-0.58,-1.56,1784934077256.0679
-0.847,-0.467,-0.179,-0.7,-0.67,-1.43,1784934077266.3481
-0.848,-0.466,-0.179,-0.7,-0.79,-1.31,1784934077276.579
-0.846,-0.467,-0.18,-0.7,-0.61,-1.37,1784934077289.919
-0.847,-0.465,-0.182,-0.52,-0.52,-1.31,1784934077295.192
-0.847,-0.464,-0.184,-0.24,-0.52,-1.16,1784934077305.332
-0.847,-0.466,-0.183,-0.15,-0.46,-1.01,1784934077315.66
-0.845,-0.466,-0.18,0.0,-0.43,-0.92,1784934077326.028
-0.845,-0.465,-0.178,0.37,-0.4,-0.76,1784934077336.364
-0.845,-0.465,-0.178,0.85,-0.37,-0.61,1784934077346.556
-0.845,-0.463,-0.179,1.1,-0.46,-0.43,1784934077359.772
-0.844,-0.462,-0.181,1.01,-0.52,-0.18,1784934077365.6042
-0.845,-0.46,-0.18,0.64,-0.55,-0.09,1784934077375.206
-0.846,-0.458,-0.18,-0.09,-0.61,0.12,1784934077385.65
-0.847,-0.461,-0.176,-0.61,-0.4,0.46,1784934077396.0251
-0.845,-0.463,-0.174,-0.73,-0.43,0.73,1784934077406.367
-0.843,-0.467,-0.172,-0.58,-0.43,0.89,1784934077416.6
-0.843,-0.467,-0.172,-0.15,-0.46,1.1,1784934077426.912
-0.843,-0.468,-0.173,0.27,-0.43,1.22,1784934077440.112
-0.842,-0.469,-0.174,0.43,-0.46,1.34,1784934077445.609
-0.842,-0.468,-0.172,0.55,-0.43,1.4,1784934077455.5361
-0.844,-0.469,-0.172,0.73,-0.49,1.34,1784934077465.818
-0.847,-0.471,-0.174,0.7,-0.67,1.34,1784934077476.1829
-0.849,-0.471,-0.171,0.31,-0.79,1.16,1784934077486.581
-0.853,-0.471,-0.17,0.09,-0.85,1.1,1784934077496.689
-0.854,-0.472,-0.171,0.37,-0.98,1.1,1784934077509.951
-0.854,-0.474,-0.171,0.64,-1.1,1.04,1784934077515.45
-0.853,-0.474,-0.173,0.85,-1.07,1.1,1784934077525.383
-0.854,-0.473,-0.174,0.92,-1.25,1.07,1784934077540.832
-0.852,-0.472,-0.176,0.92,-1.43,1.16,1784934077545.738
-0.849,-0.474,-0.175,0.76,-1.31,1.01,1784934077555.991
-0.849,-0.474,-0.174,0.52,-1.28,0.85,1784934077566.541
-0.849,-0.471,-0.179,0.49,-1.22,0.67,1784934077576.813
-0.848,-0.473,-0.179,0.64,-1.19,0.58,1784934077590.158
-0.849,-0.473,-0.179,0.79,-1.19,0.46,1784934077595.636
-0.849,-0.47,-0.181,0.92,-1.13,0.27,1784934077605.546
-0.85,-0.472,-0.178,1.25,-1.07,0.12,1784934077615.819
-0.852,-0.473,-0.177,1.89,-0.98,0.12,1784934077625.9512
-0.853,-0.471,-0.176,2.66,-0.76,0.24,1784934077636.3508
-0.852,-0.473,-0.176,3.57,-0.58,0.27,1784934077646.7012
-0.849,-0.473,-0.174,4.7,-0.37,0.21,1784934077659.9329
-0.849,-0.473,-0.172,6.04,-0.15,0.21,1784934077665.173
-0.849,-0.472,-0.174,7.23,0.03,0.31,1784934077675.3599
-0.85,-0.471,-0.176,8.06,0.15,0.27,1784934077685.7368
-0.851,-0.468,-0.176,8.12,0.18,0.18,1784934077695.768
-0.853,-0.465,-0.174,7.66,0.31,0.15,1784934077706.05
-0.851,-0.464,-0.172,7.23,0.34,0.31,1784934077716.512
-0.848,-0.463,-0.171,6.65,0.34,0.43,1784934077726.6921
-0.85,-0.465,-0.169,5.98,0.24,0.52,1784934077740.0479
-0.851,-0.467,-0.167,5.62,0.21,0.67,1784934077745.2532
-0.851,-0.469,-0.163,5.71,0.34,0.79,1784934077755.521
-0.85,-0.471,-0.161,6.01,0.34,0.92,1784934077765.7778
-0.851,-0.472,-0.162,6.47,0.27,1.1,1784934077776.135
-0.85,-0.471,-0.163,6.9,0.31,1.22,1784934077786.5679
-0.85,-0.47,-0.162,6.87,0.24,1.25,1784934077796.575
-0.849,-0.469,-0.161,6.29,0.18,1.25,1784934077809.95
-0.852,-0.47,-0.16,5.55,0.18,1.22,1784934077815.475
-0.854,-0.47,-0.156,4.97,0.15,1.16,1784934077825.174
-0.854,-0.475,-0.154,5.16,0.06,0.98,1784934077835.7483
-0.858,-0.478,-0.15,6.38,0.03,0.95,1784934077845.9468
-0.86,-0.479,-0.15,8.24,-0.15,0.98,1784934077856.2678
-0.862,-0.479,-0.15,10.01,-0.34,0.85,1784934077866.612
-0.861,-0.478,-0.153,11.75,-0.4,0.7,1784934077879.833
-0.857,-0.478,-0.152,13.58,-0.46,0.82,1784934077885.8088
-0.858,-0.48,-0.153,15.14,-0.64,0.7,1784934077895.384
-0.858,-0.477,-0.153,15.26,-0.89,0.18,1784934077905.746
-0.853,-0.471,-0.153,14.83,-1.01,-0.03,1784934077916.3088
-0.853,-0.469,-0.154,14.1,-0.98,-0.06,1784934077926.547
-0.853,-0.475,-0.154,13.61,-1.01,-0.27,1784934077940.1182
-0.853,-0.475,-0.154,12.97,-1.22,-0.49,1784934077945.2952
-0.853,-0.476,-0.154,12.02,-1.28,-0.52,1784934077955.648
-0.851,-0.468,-0.153,11.63,-1.22,-0.7,1784934077966.013
-0.847,-0.472,-0.152,11.26,-1.07,-0.89,1784934077976.371
-0.847,-0.476,-0.15,10.93,-1.01,-0.92,1784934077986.756
-0.85,-0.475,-0.146,10.93,-1.01,-0.92,1784934078000.0261
-0.85,-0.473,-0.145,10.5,-0.89,-0.67,1784934078005.769
-0.847,-0.475,-0.142,10.35,-0.55,-0.49,1784934078015.656
-0.847,-0.476,-0.138,10.83,-0.4,-0.18,1784934078026.087
-0.851,-0.485,-0.137,12.18,-0.24,-0.12,1784934078036.4521
-0.859,-0.495,-0.138,13.92,-0.09,-0.15,1784934078046.654
-0.87,-0.506,-0.134,16.6,0.06,-0.7,1784934078060.077
-0.879,-0.508,-0.13,20.36,0.24,-1.83,1784934078065.4268
-0.886,-0.511,-0.113,26.31,0.58,-2.69,1784934078075.662
-0.892,-0.534,-0.1,35.4,0.24,-3.66,1784934078086.2332
-0.913,-0.558,-0.099,46.94,-0.61,-5.65,1784934078096.502
-0.944,-0.577,-0.099,60.4,-1.46,-9.19,1784934078106.7332
-0.964,-0.587,-0.079,76.24,-2.2,-13.28,1784934078120.283
-0.975,-0.612,-0.05,96.32,-3.33,-17.06,1784934078126.045
-0.991,-0.628,-0.03,118.63,-5.92,-20.84,1784934078136.0461
-1.001,-0.64,-0.011,142.28,-8.91,-25.33,1784934078146.625
-1.021,-0.655,0.002,166.42,-12.82,-30.67,1784934078160.021
-1.037,-0.678,0.006,189.46,-17.49,-36.32,1784934078166.042
-1.066,-0.672,0.015,206.76,-22.43,-43.52,1784934078176.488
-1.088,-0.661,0.069,220.89,-28.23,-50.02,1784934078189.6829
-1.091,-0.681,0.123,239.45,-35.28,-56.0,1784934078195.709
-1.097,-0.713,0.145,261.3,-42.88,-61.28,1784934078206.05
-1.107,-0.746,0.174,281.29,-50.81,-65.89,1784934078216.5818
-1.13,-0.75,0.233,295.72,-59.48,-71.72,1784934078230.081
-1.137,-0.762,0.261,310.28,-66.53,-75.5,1784934078236.148
-1.152,-0.803,0.303,325.45,-73.27,-76.72,1784934078246.5479
-1.14,-0.785,0.296,342.72,-79.13,-87.86,1784934078259.9612
-1.142,-0.746,0.365,340.1,-84.66,-87.04,1784934078265.7512
-1.129,-0.769,0.485,325.05,-92.93,-80.05,1784934078276.1072
-1.116,-0.791,0.546,321.51,-98.79,-84.35,1784934078286.7688
-1.121,-0.801,0.576,320.63,-104.37,-85.12,1784934078300.041
-1.073,-0.746,0.613,306.96,-110.69,-83.93,1784934078305.956
-0.995,-0.684,0.625,289.07,-115.67,-84.2,1784934078316.719
-0.938,-0.644,0.646,268.56,-119.94,-87.83,1784934078329.966
-0.836,-0.653,0.656,242.71,-124.18,-90.52,1784934078336.052
-0.805,-0.567,0.677,208.35,-127.81,-99.25,1784934078346.8271
-0.804,-0.561,0.707,174.72,-130.68,-97.84,1784934078360.049
-0.735,-0.58,0.754,142.77,-133.18,-93.87,1784934078366.155
-0.683,-0.566,0.768,114.72,-136.14,-94.97,1784934078376.8462
-0.622,-0.548,0.756,87.53,-139.35,-96.47,1784934078389.891
-0.575,-0.524,0.725,59.08,-141.0,-97.96,1784934078395.763
-0.531,-0.482,0.72,27.89,-140.78,-99.8,1784934078406.496
-0.482,-0.489,0.719,-0.49,-140.75,-100.01,1784934078420.127
-0.405,-0.49,0.709,-28.41,-139.71,-100.83,1784934078426.574
-0.354,-0.433,0.714,-64.64,-138.4,-104.25,1784934078436.33
-0.352,-0.412,0.713,-106.05,-136.36,-110.48,1784934078449.467
-0.344,-0.41,0.697,-150.61,-134.31,-116.37,1784934078455.462
-0.3,-0.46,0.649,-193.12,-131.5,-121.65,1784934078466.399
-0.258,-0.546,0.55,-227.06,-126.44,-126.26,1784934078479.859
-0.153,-0.638,0.475,-252.39,-118.78,-129.8,1784934078486.0789
-0.123,-0.607,0.497,-273.87,-109.1,-140.45,1784934078496.8179
-0.151,-0.616,0.465,-293.89,-102.33,-147.4,1784934078510.0732
-0.126,-0.664,0.364,-318.34,-94.55,-150.94,1784934078516.0962
-0.064,-0.616,0.314,-353.92,-85.21,-152.29,1784934078526.678
0.019,-0.579,0.251,-389.97,-73.58,-152.23,1784934078540.211
0.08,-0.57,0.153,-416.52,-57.47,-153.23,1784934078545.737
0.118,-0.571,0.088,-431.96,-39.8,-152.71,1784934078556.682
0.122,-0.613,0.006,-436.96,-22.34,-151.46,1784934078570.192
0.108,-0.692,-0.035,-439.25,-4.64,-148.84,1784934078576.116
0.081,-0.753,-0.042,-440.87,11.14,-146.21,1784934078586.834
0.039,-0.871,-0.047,-432.26,23.29,-142.55,1784934078599.941
0.001,-0.96,-0.098,-418.2,32.81,-136.91,1784934078606.1912
0.002,-0.909,-0.163,-398.85,43.49,-130.74,1784934078616.508
0.002,-0.87,-0.226,-369.61,50.84,-121.68,1784934078629.7168
0.026,-0.827,-0.272,-343.03,57.68,-110.54,1784934078635.787
0.083,-0.824,-0.273,-322.15,64.09,-100.13,1784934078646.676
0.13,-0.841,-0.218,-307.17,67.69,-92.96,1784934078660.055
0.161,-0.826,-0.152,-296.55,68.79,-86.73,1784934078665.876
0.188,-0.801,-0.114,-285.96,67.32,-78.92,1784934078676.0818
0.225,-0.834,-0.119,-271.1,63.94,-73.52,1784934078689.628
0.258,-0.873,-0.14,-254.04,59.27,-71.87,1784934078695.601
0.27,-0.867,-0.149,-234.87,55.3,-68.82,1784934078705.849
0.292,-0.818,-0.18,-205.48,49.29,-67.75,1784934078716.733
0.307,-0.789,-0.227,-177.13,43.09,-63.33,1784934078729.719
0.319,-0.78,-0.266,-152.07,38.36,-59.08,1784934078735.562
0.32,-0.738,-0.306,-130.8,33.39,-57.92,1784934078746.2131
0.323,-0.724,-0.326,-111.79,29.45,-55.02,1784934078759.653
0.333,-0.683,-0.32,-92.87,25.39,-52.31,1784934078765.816
0.354,-0.695,-0.364,-70.25,21.06,-48.55,1784934078775.736
0.367,-0.654,-0.391,-55.18,17.06,-48.22,1784934078786.393
0.39,-0.667,-0.414,-46.14,13.12,-48.68,1784934078799.722
0.413,-0.672,-0.415,-39.25,9.06,-47.67,1784934078805.758
0.453,-0.674,-0.421,-27.8,5.13,-47.7,1784934078815.722
0.489,-0.623,-0.442,-17.52,1.92,-50.69,1784934078825.935
0.514,-0.587,-0.46,-12.09,-0.52,-53.47,1784934078836.551
0.538,-0.563,-0.458,-10.47,-2.38,-55.57,1784934078849.7788
0.561,-0.536,-0.459,-9.74,-4.0,-57.41,1784934078855.842
0.581,-0.502,-0.443,-9.34,-5.13,-58.26,1784934078865.4429
0.6,-0.473,-0.432,-8.03,-6.65,-57.56,1784934078875.988
0.619,-0.462,-0.432,-6.5,-8.39,-56.58,1784934078886.556
0.628,-0.467,-0.48,-6.5,-10.22,-55.36,1784934078896.9001
0.642,-0.456,-0.555,-8.76,-11.87,-53.01,1784934078910.186
0.668,-0.417,-0.629,-11.84,-11.63,-48.65,1784934078916.178
0.678,-0.394,-0.714,-16.85,-9.34,-42.91,1784934078926.241
0.687,-0.457,-0.753,-25.48,-5.04,-37.05,1784934078936.5298
0.699,-0.564,-0.741,-35.95,-0.89,-32.59,1784934078949.706
0.702,-0.673,-0.716,-42.82,1.59,-30.06,1784934078955.627
0.723,-0.777,-0.664,-42.09,2.38,-29.45,1784934078965.8452
0.735,-0.832,-0.634,-34.15,1.83,-31.16,1784934078976.3022
0.716,-0.871,-0.642,-22.43,-0.85,-34.76,1784934078986.763
0.708,-0.865,-0.63,-11.2,-4.12,-39.98,1784934078999.9841
0.739,-0.805,-0.657,1.16,-9.03,-45.5,1784934079006.0642
0.769,-0.756,-0.693,12.76,-11.6,-50.42,1784934079015.7703
0.779,-0.684,-0.742,17.67,-14.53,-54.78,1784934079026.3638
0.788,-0.636,-0.795,15.56,-15.96,-58.69,1784934079039.716
0.803,-0.603,-0.826,6.68,-15.26,-61.37,1784934079045.78
0.812,-0.592,-0.827,-4.79,-13.0,-61.98,1784934079055.765
0.842,-0.59,-0.788,-16.24,-9.46,-61.49,1784934079066.2668
0.855,-0.595,-0.764,-24.93,-6.9,-60.34,1784934079076.714
0.848,-0.59,-0.715,-32.9,-3.66,-58.44,1784934079089.856
0.844,-0.584,-0.703,-38.82,-0.79,-55.82,1784934079095.854
0.814,-0.6,-0.707,-43.4,2.75,-52.77,1784934079105.689
0.766,-0.635,-0.693,-47.21,6.65,-49.2,1784934079116.3362
0.725,-0.661,-0.672,-46.78,10.1,-46.02,1784934079127.204
0.698,-0.667,-0.645,-41.47,12.79,-41.57,1784934079140.1921
0.667,-0.664,-0.622,-31.95,15.23,-36.84,1784934079146.2168
0.618,-0.632,-0.618,-21.55,15.35,-32.47,1784934079156.418
0.567,-0.588,-0.606,-12.24,12.76,-27.38,1784934079166.976
0.526,-0.526,-0.588,-5.65,9.13,-19.29,1784934079180.277
0.495,-0.45,-0.566,-0.43,4.85,-8.91,1784934079185.66
0.464,-0.36,-0.59,2.9,-0.37,2.53,1784934079196.0298
0.431,-0.307,-0.649,1.8,-4.58,15.96,1784934079206.062
0.388,-0.306,-0.676,-4.3,-6.13,29.94,1784934079216.4731
0.327,-0.316,-0.715,-12.63,-7.26,41.81,1784934079226.894
0.327,-0.316,-0.715,-23.04,-8.06,52.86,1784934079240.134
0.274,-0.315,-0.738,-33.33,-7.6,66.23,1784934079246.022
0.258,-0.365,-0.661,-32.47,-14.22,73.89,1784934079256.23
0.249,-0.438,-0.647,-31.92,-20.78,78.98,1784934079266.5369
0.193,-0.455,-0.67,-32.29,-25.42,88.5,1784934079280.095
0.132,-0.535,-0.671,-32.29,-25.42,88.5,1784934079286.0369
0.096,-0.557,-0.691,-23.13,-31.86,91.71,1784934079296.254
0.08,-0.551,-0.709,-17.61,-36.77,96.68,1784934079306.774
0.106,-0.612,-0.662,-12.36,-40.62,103.12,1784934079320.1853
0.125,-0.599,-0.658,-0.21,-47.27,102.57,1784934079325.718
0.068,-0.573,-0.776,7.87,-52.55,103.92,1784934079336.428
-0.026,-0.574,-0.83,5.98,-52.13,107.64,1784934079346.6821
-0.069,-0.547,-0.868,5.22,-52.49,105.75,1784934079360.168
-0.075,-0.522,-0.817,-1.5,-51.97,106.57,1784934079366.101
-0.061,-0.487,-0.651,-6.13,-52.77,111.06,1784934079376.201
-0.073,-0.386,-0.519,-3.3,-60.24,118.2,1784934079386.941
-0.139,-0.314,-0.458,9.25,-73.4,128.54,1784934079400.0671
-0.245,-0.087,-0.463,29.18,-90.58,133.06,1784934079406.14
-0.411,0.024,-0.552,40.1,-105.75,150.61,1784934079416.398
-0.671,0.013,-0.653,45.47,-113.96,176.12,1784934079429.59
-0.843,-0.214,-0.613,42.36,-117.71,202.76,1784934079435.667
-0.865,-0.461,-0.724,38.45,-124.15,215.25,1784934079446.588
-0.809,-0.704,-0.935,39.46,-119.39,209.54,1784934079459.9639
-0.62,-1.09,-1.16,29.45,-101.57,186.25,1784934079465.836
-0.266,-1.459,-1.18,14.65,-70.22,144.11,1784934079476.411
0.009,-1.615,-1.006,10.04,-33.27,83.9,1784934079487.0278
-0.002,-1.456,-0.839,10.86,-6.74,18.49,1784934079500.303
-0.096,-1.041,-0.818,18.07,4.27,-25.15,1784934079505.7239
-0.121,-0.586,-0.772,31.83,9.37,-37.23,1784934079516.103
-0.151,-0.262,-0.692,39.31,8.76,-29.08,1784934079526.614
-0.14,-0.13,-0.613,34.3,3.63,-10.83,1784934079540.065
-0.084,-0.188,-0.61,24.78,-3.11,9.03,1784934079545.43
-0.067,-0.343,-0.639,18.98,-7.08,25.48,1784934079555.704
-0.076,-0.536,-0.635,20.05,-7.97,35.8,1784934079565.94
-0.044,-0.723,-0.655,24.87,-8.94,35.8,1784934079576.664
-0.006,-0.811,-0.763,27.38,-10.07,28.26,1784934079589.706
-0.008,-0.777,-0.83,25.79,-7.02,19.44,1784934079596.802
-0.028,-0.713,-0.803,19.53,-1.89,12.67,1784934079611.568
-0.048,-0.673,-0.718,8.97,0.7,8.33,1784934079618.9521
-0.051,-0.651,-0.646,0.06,0.55,5.77,1784934079626.154
-0.055,-0.631,-0.603,-3.2,-0.4,5.34,1784934079636.771
-0.042,-0.626,-0.592,-1.53,-2.11,6.96,1784934079649.8298
-0.026,-0.632,-0.622,2.2,-3.6,7.08,1784934079655.364
-0.011,-0.631,-0.665,6.26,-4.43,6.78,1784934079665.259
-0.001,-0.642,-0.739,11.26,-4.76,7.11,1784934079675.4912
0.021,-0.658,-0.749,16.21,-2.66,8.03,1784934079685.919
0.047,-0.67,-0.716,22.52,-0.61,7.45,1784934079696.553
0.053,-0.689,-0.721,31.92,0.4,5.22,1784934079709.6682
0.018,-0.719,-0.716,41.57,2.53,2.26,1784934079715.5242
-0.031,-0.735,-0.676,50.84,4.64,-0.58,1784934079725.254
-0.083,-0.703,-0.621,62.53,4.67,-3.11,1784934079735.627
-0.11,-0.66,-0.573,78.37,2.44,-3.91,1784934079746.243
-0.1,-0.642,-0.537,97.08,-1.01,-2.59,1784934079756.6663
-0.082,-0.631,-0.527,116.34,-4.46,0.55,1784934079769.711
-0.061,-0.621,-0.492,138.89,-6.01,4.21,1784934079775.466
-0.064,-0.591,-0.513,167.91,-6.68,6.29,1784934079785.742
-0.073,-0.573,-0.48,196.78,-5.43,9.83,1784934079796.298
-0.094,-0.566,-0.428,221.56,-6.56,14.4,1784934079806.8691
-0.119,-0.533,-0.36,240.24,-9.37,21.67,1784934079819.9302
-0.157,-0.505,-0.249,255.07,-12.91,32.59,1784934079825.738
-0.219,-0.471,-0.094,269.2,-20.17,46.21,1784934079836.4092
-0.308,-0.434,0.012,287.85,-26.86,61.37,1784934079849.76
-0.368,-0.462,0.016,308.97,-29.3,76.11,1784934079855.8662
-0.41,-0.461,-0.037,308.97,-30.06,79.84,1784934079866.236
-0.447,-0.391,-0.12,276.68,-29.21,70.13,1784934079876.865
-0.46,-0.393,-0.223,220.53,-24.69,56.79,1784934079890.125
-0.465,-0.504,-0.261,149.78,-17.76,46.6,1784934079896.1401
-0.467,-0.606,-0.151,77.82,-13.12,44.71,1784934079906.355
-0.42,-0.678,-0.039,28.32,-14.83,53.8,1784934079919.626
-0.325,-0.769,-0.072,9.61,-20.48,68.03,1784934079925.537
-0.272,-0.918,-0.172,6.53,-24.48,78.77,1784934079935.647
-0.27,-1.015,-0.222,-0.92,-24.26,84.08,1784934079946.2158
-0.289,-1.005,-0.163,-10.44,-20.45,85.94,1784934079956.7
-0.296,-0.932,-0.067,-12.6,-17.09,85.88,1784934079969.8748
-0.3,-0.863,-0.008,-9.58,-15.35,87.62,1784934079976.0088
-0.303,-0.805,0.014,-4.79,-12.82,93.08,1784934079985.866
-0.31,-0.846,-0.037,2.78,-10.5,99.7,1784934079996.5178
-0.352,-0.947,-0.092,8.7,-7.63,103.49,1784934080007.205
-0.422,-0.978,-0.104,13.0,-3.51,105.9,1784934080020.268
-0.431,-0.994,-0.073,21.06,0.18,111.51,1784934080026.2568
-0.406,-1.014,-0.061,36.47,2.72,113.5,1784934080036.4001
-0.39,-0.999,-0.094,52.43,3.6,111.18,1784934080049.6519
-0.411,-0.978,-0.106,62.35,4.61,109.35,1784934080055.676
-0.437,-0.935,-0.075,64.52,5.89,108.77,1784934080065.628
-0.441,-0.933,-0.097,62.84,5.83,109.65,1784934080076.1987
-0.457,-0.95,-0.123,55.6,6.65,109.23,1784934080089.674
-0.488,-0.957,-0.128,42.76,7.87,107.88,1784934080095.663
-0.523,-0.984,-0.089,27.86,8.85,107.52,1784934080105.8481
-0.563,-0.992,-0.009,16.72,9.28,105.72,1784934080116.414
-0.582,-0.997,0.029,15.02,8.39,102.97,1784934080126.966
-0.602,-0.987,0.028,18.77,6.35,99.0,1784934080140.217
-0.637,-0.945,0.019,21.94,3.72,94.79,1784934080145.7122
-0.657,-0.923,0.004,24.38,0.95,92.68,1784934080156.068
-0.667,-0.929,-0.022,26.06,-1.46,93.02,1784934080166.6062
-0.674,-0.934,-0.051,26.49,-3.36,93.08,1784934080179.837
-0.672,-0.947,-0.056,22.95,-3.05,91.98,1784934080185.759
-0.671,-0.969,-0.048,17.61,-2.23,89.6,1784934080195.75
-0.673,-0.984,-0.02,13.03,-2.01,86.28,1784934080206.073
-0.671,-0.98,0.002,10.41,-2.44,83.04,1784934080216.5889
-0.682,-0.967,0.027,7.35,-3.17,81.24,1784934080229.8071
-0.703,-0.912,0.036,6.96,-5.95,79.1,1784934080235.785
-0.705,-0.855,0.009,9.31,-9.61,78.22,1784934080245.635
-0.698,-0.848,-0.053,12.09,-12.67,78.04,1784934080256.2
-0.71,-0.856,-0.099,10.8,-14.56,76.48,1784934080266.9949
-0.738,-0.859,-0.11,6.1,-15.84,74.25,1784934080280.035
-0.769,-0.868,-0.076,-1.5,-15.84,72.82,1784934080286.125
-0.795,-0.872,-0.023,-6.23,-15.59,71.47,1784934080295.8562
-0.79,-0.887,0.023,-6.23,-15.53,70.56,1784934080306.19
-0.775,-0.912,0.034,-4.64,-15.56,70.19,1784934080316.754
-0.785,-0.94,0.029,-5.65,-14.98,70.5,1784934080330.142
-0.802,-0.942,0.027,-4.85,-14.13,68.88,1784934080336.215
-0.815,-0.923,0.032,-3.81,-13.28,67.11,1784934080346.054
-0.828,-0.903,0.05,-2.32,-13.0,64.88,1784934080356.554
-0.836,-0.887,0.067,0.46,-13.82,61.68,1784934080369.7422
-0.838,-0.873,0.08,5.37,-15.66,57.65,1784934080375.322
-0.84,-0.856,0.082,11.93,-18.1,53.41,1784934080386.038
-0.857,-0.841,0.085,19.35,-20.63,48.25,1784934080396.3552
-0.869,-0.803,0.096,25.73,-23.32,43.37,1784934080407.158
-0.888,-0.752,0.136,29.54,-26.18,41.38,1784934080420.479
-0.916,-0.704,0.187,29.27,-29.79,43.24,1784934080425.7769
-1.015,-0.598,0.194,22.77,-35.71,47.98,1784934080436.446
-1.049,-0.477,0.05,8.24,-44.92,58.81,1784934080446.838
-0.973,-0.558,-0.356,-9.16,-51.7,68.21,1784934080460.1118
-0.932,-0.686,-0.631,-36.29,-48.59,67.26,1784934080465.697
-0.885,-0.771,-0.635,-63.94,-42.51,60.06,1784934080476.1309
-0.772,-0.791,-0.519,-79.23,-35.83,52.74,1784934080486.86
-0.614,-0.775,-0.343,-77.27,-23.44,51.58,1784934080500.046
-0.544,-0.828,-0.203,-62.93,-9.89,54.05,1784934080506.0671
-0.703,-0.995,-0.101,-46.72,0.46,57.68,1784934080516.0132
-0.703,-0.995,-0.101,-21.06,10.35,68.88,1784934080526.418
-0.584,-1.425,0.053,15.87,18.8,43.21,1784934080539.973
-0.571,-1.426,0.022,29.97,22.68,34.12,1784934080545.4453
-0.851,-1.184,0.084,38.54,20.81,48.07,1784934080555.9858
-0.845,-1.034,0.159,44.86,17.73,43.86,1784934080566.646
-0.762,-0.732,0.172,44.86,17.73,43.86,1784934080579.7068
-0.799,-0.425,0.159,39.28,7.75,32.93,1784934080586.015
-0.886,-0.295,0.117,27.95,2.23,29.69,1784934080595.842
-0.915,-0.36,0.038,4.18,-2.41,29.24,1784934080606.3052
-0.913,-0.553,0.074,-19.78,-0.58,25.91,1784934080616.8142
-0.863,-0.761,0.205,-24.84,2.47,19.47,1784934080629.959
-0.793,-0.824,0.3,-6.9,2.01,9.77,1784934080635.0452
-0.729,-0.74,0.324,22.1,0.58,1.1,1784934080645.632
-0.683,-0.667,0.209,51.94,2.23,-2.04,1784934080656.0618
-0.694,-0.57,0.06,61.56,6.78,1.25,1784934080666.396
-0.735,-0.503,-0.004,57.25,11.99,10.13,1784934080676.764
-0.791,-0.553,-0.023,54.87,14.5,18.1,1784934080690.271
-0.845,-0.65,-0.025,48.07,12.76,18.16,1784934080696.236
-0.861,-0.686,0.005,37.17,9.89,12.27,1784934080706.1301
-0.851,-0.674,0.058,30.58,8.03,5.77,1784934080716.5498
-0.833,-0.63,0.092,28.32,7.45,3.05,1784934080729.8933
-0.843,-0.565,0.106,27.38,6.62,2.29,1784934080735.6182
-0.856,-0.508,0.126,22.43,5.37,2.53,1784934080745.558
-0.85,-0.491,0.148,13.58,4.64,3.05,1784934080756.0178
-0.841,-0.491,0.154,4.09,3.97,2.99,1784934080766.258
-0.836,-0.507,0.128,-3.14,3.05,2.9,1784934080776.582
-0.845,-0.504,0.111,-8.3,2.29,1.83,1784934080786.7332
-0.851,-0.493,0.098,-11.63,1.4,0.7,1784934080801.069
-0.86,-0.478,0.066,-14.25,0.7,0.31,1784934080805.466
-0.866,-0.486,0.043,-15.53,1.22,1.28,1784934080815.5579
-0.867,-0.502,0.027,-16.72,1.86,1.34,1784934080826.1702
-0.862,-0.513,0.018,-16.75,2.01,-0.06,1784934080836.995
-0.864,-0.516,0.046,-13.73,1.89,-1.68,1784934080846.921
-0.886,-0.502,0.059,-8.82,0.52,-2.96,1784934080860.23
-0.876,-0.484,0.055,-5.68,-1.07,-3.66,1784934080865.344
-0.875,-0.475,0.018,0.61,-1.92,-4.61,1784934080875.54
-0.871,-0.433,-0.04,5.07,-1.07,-2.2,1784934080885.898
-0.846,-0.422,-0.045,5.86,1.22,-0.58,1784934080896.163
-0.84,-0.436,-0.047,8.39,3.3,0.34,1784934080906.515
-0.842,-0.457,-0.052,7.54,4.64,3.27,1784934080916.7449
-0.842,-0.449,-0.031,3.3,6.5,6.74,1784934080930.003
-0.848,-0.461,-0.005,1.8,8.39,9.09,1784934080935.5662
-0.848,-0.468,0.017,1.46,8.82,9.55,1784934080945.441
-0.835,-0.477,0.045,3.69,9.03,8.61,1784934080955.719
-0.829,-0.499,0.06,10.38,9.86,7.9,1784934080966.1848
-0.844,-0.494,0.028,16.33,10.77,9.16,1784934080976.634
-0.855,-0.466,0.031,15.14,12.02,11.38,1784934080989.8723
-0.88,-0.466,0.014,10.07,13.12,12.79,1784934080995.889
-0.869,-0.452,0.008,-3.2,14.47,13.89,1784934081005.957
-0.823,-0.489,0.059,-15.69,15.84,13.7,1784934081016.5032
-0.828,-0.514,0.073,-18.1,15.75,12.18,1784934081029.7441
-0.837,-0.515,0.066,-17.61,14.28,11.72,1784934081035.789
-0.84,-0.513,0.063,-17.98,13.03,10.59,1784934081045.945
-0.847,-0.529,0.057,-17.88,11.66,9.46,1784934081056.5
-0.866,-0.538,0.045,-18.43,9.83,7.69,1784934081066.794
-0.88,-0.53,0.03,-19.56,7.84,5.31,1784934081080.008
-0.879,-0.504,0.025,-19.9,5.8,3.75,1784934081085.906
-0.878,-0.486,0.016,-18.92,3.2,2.47,1784934081095.5369
-0.884,-0.472,0.004,-19.07,0.43,0.98,1784934081105.9329
-0.889,-0.455,-0.003,-20.84,-1.8,-0.21,1784934081116.4658
-0.884,-0.447,-0.005,-22.52,-3.05,-0.37,1784934081126.902
-0.887,-0.449,0.015,-23.07,-3.39,-0.82,1784934081140.991
-0.89,-0.458,0.021,-21.61,-4.0,-1.86,1784934081145.946
-0.9,-0.461,0.023,-19.2,-4.97,-3.23,1784934081155.846
-0.9,-0.479,0.026,-15.56,-5.16,-4.49,1784934081166.1702
-0.9,-0.501,0.028,-12.27,-5.37,-5.8,1784934081176.594
-0.902,-0.521,0.026,-9.13,-6.01,-6.93,1784934081186.831
-0.91,-0.538,0.03,-6.62,-7.63,-9.06,1784934081200.105
-0.918,-0.552,0.036,-4.61,-9.55,-12.36,1784934081205.7368
-0.912,-0.568,0.038,-2.69,-12.7,-15.63,1784934081215.816
-0.925,-0.561,0.03,-1.31,-16.42,-19.04,1784934081226.2522
-0.941,-0.559,0.027,0.89,-19.26,-21.09,1784934081236.711
-0.944,-0.564,0.008,3.17,-22.58,-22.74,1784934081249.972
-0.935,-0.566,-0.007,4.43,-24.96,-24.78,1784934081255.908
-0.918,-0.566,-0.02,4.76,-26.83,-26.86,1784934081265.718
-0.901,-0.563,-0.009,4.18,-27.41,-28.66,1784934081276.0972
-0.88,-0.566,0.001,4.09,-27.44,-29.27,1784934081286.821
-0.867,-0.558,0.007,3.85,-27.31,-29.02,1784934081300.051
-0.855,-0.543,0.01,3.72,-26.4,-28.47,1784934081306.081
-0.85,-0.525,0.011,3.54,-25.15,-27.16,1784934081316.02
-0.848,-0.514,0.012,2.93,-23.77,-25.7,1784934081326.356
-0.858,-0.506,0.006,1.89,-22.4,-23.71,1784934081337.04
-0.86,-0.5,0.005,-0.67,-20.42,-21.18,1784934081350.1902
-0.859,-0.494,0.006,-3.88,-18.04,-18.22,1784934081356.225
-0.857,-0.491,0.008,-6.81,-15.44,-14.77,1784934081366.225
-0.852,-0.494,0.008,-8.79,-12.73,-11.41,1784934081376.645
-0.844,-0.517,0.0,-9.89,-10.13,-8.55,1784934081389.9893
-0.836,-0.535,-0.004,-10.28,-7.39,-6.99,1784934081395.256
-0.82,-0.544,0.002,-9.31,-4.76,-5.86,1784934081405.189
-0.804,-0.55,0.006,-6.53,-2.96,-5.25,1784934081415.575
-0.801,-0.557,-0.007,-3.33,-2.11,-5.4,1784934081425.8372
-0.806,-0.56,-0.017,-0.82,-1.19,-5.89,1784934081436.461
-0.792,-0.555,-0.02,0.37,-0.31,-6.38,1784934081446.6602
-0.775,-0.548,-0.018,1.1,0.64,-7.54,1784934081457.576
-0.76,-0.544,-0.015,1.43,1.01,-8.82,1784934081470.291
-0.752,-0.528,-0.0,1.25,0.76,-9.98,1784934081475.7139
-0.752,-0.507,0.01,-0.37,-0.34,-10.9,1784934081485.7112
-0.755,-0.501,0.01,-3.63,-1.37,-11.6,1784934081496.0488
-0.756,-0.498,0.007,-8.27,-2.38,-11.9,1784934081506.2551
-0.756,-0.499,0.004,-13.12,-2.84,-12.73,1784934081516.775
-0.762,-0.514,0.0,-18.01,-3.27,-13.67,1784934081530.2551
-0.769,-0.525,-0.001,-23.38,-3.69,-14.8,1784934081536.263
-0.779,-0.53,0.008,-27.83,-3.72,-15.53,1784934081546.0852
-0.789,-0.537,0.019,-30.21,-3.14,-15.78,1784934081556.58
-0.792,-0.547,0.036,-30.64,-1.68,-16.02,1784934081569.8992
-0.794,-0.557,0.052,-28.47,-0.12,-16.36,1784934081575.692
-0.792,-0.572,0.07,-24.57,1.56,-16.48,1784934081585.747
-0.791,-0.578,0.079,-19.17,3.36,-17.0,1784934081596.241
-0.796,-0.58,0.081,-13.37,5.16,-17.61,1784934081606.63
-0.795,-0.593,0.083,-7.69,7.2,-18.1,1784934081620.1392
-0.792,-0.603,0.088,-2.44,9.28,-18.8,1784934081625.4321
-0.799,-0.608,0.091,2.59,10.93,-19.84,1784934081635.951
-0.804,-0.613,0.094,7.9,12.57,-20.81,1784934081646.2139
-0.799,-0.613,0.096,13.06,14.25,-21.79,1784934081656.7332
-0.793,-0.608,0.098,18.13,15.5,-22.58,1784934081670.092
-0.787,-0.604,0.105,23.26,16.79,-22.95,1784934081676.058
-0.776,-0.598,0.107,30.12,17.52,-23.47,1784934081686.3801
-0.782,-0.587,0.105,37.23,17.98,-23.38,1784934081696.738
-0.772,-0.579,0.094,42.54,18.25,-21.82,1784934081709.915
-0.753,-0.562,0.09,45.23,18.52,-20.75,1784934081715.773
-0.747,-0.565,0.088,46.17,18.34,-19.62,1784934081726.271
-0.737,-0.575,0.085,44.31,17.85,-18.77,1784934081736.916
-0.734,-0.577,0.086,40.25,17.64,-18.37,1784934081749.988
-0.734,-0.572,0.084,34.79,16.75,-17.27,1784934081756.0461
-0.73,-0.558,0.079,27.71,15.38,-15.56,1784934081766.2468
-0.73,-0.552,0.092,19.84,14.07,-14.1,1784934081776.787
-0.729,-0.57,0.111,15.17,12.39,-11.57,1784934081790.1052
-0.712,-0.594,0.12,15.81,10.32,-9.09,1784934081795.995
-0.709,-0.594,0.119,18.34,8.48,-7.75,1784934081805.7651
-0.709,-0.594,0.119,19.44,6.13,-6.59,1784934081816.159
-0.728,-0.589,0.113,18.89,3.78,-4.52,1784934081826.494
-0.739,-0.591,0.11,17.88,2.04,-2.26,1784934081839.962
-0.746,-0.598,0.105,16.94,0.34,0.03,1784934081845.624
-0.756,-0.604,0.097,14.44,-0.89,1.65,1784934081855.722
-0.759,-0.605,0.084,14.44,-0.89,1.65,1784934081872.8828
-0.77,-0.616,0.067,10.04,-1.74,3.08,1784934081876.051
-0.778,-0.628,0.064,4.15,-2.32,4.52,1784934081886.6172
-0.776,-0.641,0.067,-0.46,-2.38,5.43,1784934081896.907
-0.771,-0.653,0.063,-3.97,-2.81,6.2,1784934081910.016
-0.768,-0.656,0.063,-6.68,-2.9,6.1,1784934081915.4749
-0.763,-0.657,0.062,-8.67,-3.2,5.92,1784934081925.6033
-0.762,-0.648,0.064,-9.8,-3.48,5.25,1784934081936.105
-0.761,-0.645,0.066,-9.89,-4.12,4.82,1784934081946.178
-0.76,-0.646,0.065,-9.25,-4.85,4.43,1784934081956.568
-0.759,-0.65,0.06,-8.03,-5.46,3.97,1784934081966.775
-0.765,-0.651,0.055,-7.11,-6.38,3.3,1784934081980.0068
