ax,ay,az,gx,gy,gz,timestamp_ms
-0.109,-0.341,-0.923,1.77,-0.79,-2.75,1785100494483.658
-0.107,-0.335,-0.925,2.11,-0.82,-2.66,1785100494484.042
-0.107,-0.331,-0.921,2.38,-0.55,-2.84,1785100494484.3992
-0.107,-0.33,-0.922,2.32,-0.43,-2.96,1785100494484.75
-0.11,-0.332,-0.917,2.08,-0.34,-2.53,1785100494485.101
-0.114,-0.336,-0.914,2.01,-0.37,-2.11,1785100494485.447
-0.116,-0.338,-0.916,1.89,-0.55,-1.71,1785100494485.801
-0.113,-0.339,-0.917,1.62,-0.64,-0.98,1785100494486.129
-0.119,-0.345,-0.917,1.22,-0.92,-0.58,1785100494486.4797
-0.121,-0.349,-0.922,0.31,-1.19,-0.55,1785100494486.82
-0.121,-0.351,-0.925,-0.55,-1.4,-0.27,1785100494487.176
-0.124,-0.356,-0.927,-1.43,-1.53,-0.15,1785100494487.519
-0.127,-0.358,-0.924,-2.14,-1.46,0.15,1785100494487.867
-0.127,-0.358,-0.923,-1.83,-1.43,0.67,1785100494488.214
-0.129,-0.358,-0.924,-1.07,-1.65,1.04,1785100494488.544
-0.132,-0.357,-0.927,-0.4,-1.83,1.28,1785100494488.8901
-0.135,-0.355,-0.925,0.12,-1.83,1.19,1785100494489.2192
-0.133,-0.356,-0.924,0.79,-1.74,1.1,1785100494489.4998
-0.137,-0.359,-0.924,1.89,-1.8,0.95,1785100494489.7979
-0.14,-0.362,-0.923,2.69,-1.68,1.01,1785100494490.0952
-0.141,-0.364,-0.918,3.17,-1.25,1.4,1785100494490.3792
-0.139,-0.363,-0.911,3.94,-0.95,1.77,1785100494490.667
-0.134,-0.363,-0.91,4.91,-0.98,2.26,1785100494490.968
-0.131,-0.36,-0.912,5.62,-0.98,2.66,1785100494491.272
-0.124,-0.354,-0.912,6.04,-1.04,3.11,1785100494491.549
-0.119,-0.349,-0.909,6.2,-1.34,3.17,1785100494491.83
-0.117,-0.348,-0.911,6.35,-1.83,2.87,1785100494492.1118
-0.115,-0.349,-0.912,6.26,-2.17,2.44,1785100494492.386
-0.115,-0.345,-0.907,5.8,-2.62,2.14,1785100494492.663
-0.113,-0.346,-0.906,5.25,-3.02,1.86,1785100494492.9458
-0.111,-0.345,-0.909,4.85,-3.23,1.46,1785100494493.232
-0.111,-0.345,-0.911,4.3,-3.48,1.16,1785100494493.511
-0.113,-0.341,-0.911,3.57,-3.88,1.1,1785100494493.794
-0.11,-0.344,-0.917,3.08,-4.24,1.1,1785100494494.076
-0.111,-0.344,-0.918,2.66,-4.7,1.1,1785100494494.354
-0.112,-0.346,-0.919,2.56,-4.85,1.71,1785100494494.647
-0.111,-0.346,-0.922,2.59,-4.91,2.26,1785100494494.93
-0.11,-0.344,-0.929,2.93,-4.94,2.72,1785100494495.21
-0.112,-0.348,-0.937,3.39,-5.07,3.14,1785100494495.488
-0.111,-0.351,-0.941,3.17,-4.85,3.75,1785100494495.773
-0.113,-0.354,-0.942,2.75,-4.73,4.39,1785100494496.062
-0.109,-0.361,-0.949,2.72,-4.97,4.73,1785100494496.3682
-0.112,-0.366,-0.952,2.17,-5.01,4.85,1785100494496.653
-0.116,-0.367,-0.954,1.56,-4.82,4.91,1785100494496.9348
-0.116,-0.364,-0.956,1.04,-4.61,4.43,1785100494497.19
-0.116,-0.363,-0.957,0.55,-4.55,3.72,1785100494497.4568
-0.117,-0.363,-0.954,0.0,-4.52,3.05,1785100494497.7368
-0.12,-0.365,-0.956,-0.49,-4.58,2.47,1785100494497.9949
-0.122,-0.364,-0.954,-0.7,-4.43,1.83,1785100494498.2568
-0.125,-0.362,-0.954,-0.58,-4.55,1.19,1785100494498.558
-0.126,-0.359,-0.958,-0.61,-4.91,0.4,1785100494498.86
-0.128,-0.361,-0.959,-1.31,-4.91,-0.52,1785100494499.158
-0.13,-0.359,-0.953,-2.26,-4.82,-1.53,1785100494499.411
-0.13,-0.353,-0.945,-3.05,-4.55,-2.26,1785100494499.682
-0.13,-0.349,-0.936,-3.42,-4.15,-2.35,1785100494500.011
-0.132,-0.346,-0.929,-3.23,-3.57,-2.23,1785100494500.284
-0.136,-0.345,-0.923,-2.72,-3.11,-2.08,1785100494500.542
-0.135,-0.344,-0.924,-2.5,-2.56,-1.86,1785100494500.7998
-0.134,-0.346,-0.922,-2.59,-1.89,-1.34,1785100494501.049
-0.136,-0.349,-0.922,-2.44,-1.37,-0.67,1785100494501.3298
-0.138,-0.352,-0.92,-2.47,-0.79,-0.18,1785100494501.594
-0.141,-0.354,-0.917,-2.66,-0.18,0.12,1785100494501.8518
-0.141,-0.357,-0.917,-2.99,0.31,0.46,1785100494502.099
-0.141,-0.361,-0.919,-3.08,0.7,0.79,1785100494502.3733
-0.143,-0.36,-0.918,-2.72,0.89,1.01,1785100494502.6272
-0.144,-0.361,-0.92,-2.26,1.16,1.28,1785100494502.891
-0.143,-0.361,-0.923,-1.74,1.43,1.56,1785100494503.1611
-0.144,-0.362,-0.924,-1.04,1.56,1.59,1785100494503.43
-0.142,-0.363,-0.919,-0.34,1.56,1.89,1785100494503.6978
-0.143,-0.366,-0.917,0.7,1.71,1.98,1785100494503.948
-0.145,-0.365,-0.917,1.68,1.83,2.14,1785100494504.211
-0.145,-0.364,-0.917,2.41,1.83,2.35,1785100494504.474
-0.146,-0.365,-0.918,2.9,1.65,2.56,1785100494504.728
-0.145,-0.368,-0.917,2.84,1.46,2.56,1785100494504.9731
-0.147,-0.37,-0.917,2.41,1.31,2.53,1785100494505.2258
-0.147,-0.372,-0.913,1.95,0.98,2.47,1785100494505.4587
-0.145,-0.373,-0.912,1.43,0.58,2.59,1785100494505.7012
-0.143,-0.373,-0.913,1.07,0.12,2.59,1785100494505.941
-0.144,-0.373,-0.909,0.76,-0.21,2.78,1785100494506.1719
-0.144,-0.373,-0.909,0.61,-0.61,3.05,1785100494506.4011
-0.142,-0.372,-0.911,0.37,-0.92,3.17,1785100494506.634
-0.136,-0.373,-0.912,-0.21,-1.46,3.33,1785100494506.8691
-0.13,-0.371,-0.914,-0.89,-1.89,3.36,1785100494507.096
-0.123,-0.37,-0.917,-1.56,-2.17,2.84,1785100494507.341
-0.119,-0.373,-0.921,-1.56,-2.17,2.84,1785100494507.644
-0.118,-0.374,-0.92,-2.44,-2.11,2.35,1785100494507.8909
-0.116,-0.375,-0.919,-2.87,-1.98,2.04,1785100494508.164
-0.117,-0.373,-0.919,-3.14,-1.62,1.56,1785100494508.399
-0.118,-0.369,-0.919,-3.14,-1.01,1.34,1785100494508.628
-0.116,-0.364,-0.922,-2.56,-0.34,1.13,1785100494508.854
-0.118,-0.358,-0.928,-1.83,0.55,0.73,1785100494509.084
-0.125,-0.361,-0.933,-1.01,1.46,0.61,1785100494509.314
-0.131,-0.366,-0.937,-0.03,2.72,0.61,1785100494509.54
-0.138,-0.369,-0.94,0.92,4.21,0.82,1785100494509.814
-0.142,-0.372,-0.941,2.29,5.65,1.1,1785100494510.0642
-0.146,-0.372,-0.943,3.36,6.74,1.25,1785100494510.294
-0.148,-0.368,-0.946,3.97,7.69,1.4,1785100494510.561
-0.146,-0.366,-0.944,4.55,8.48,1.19,1785100494510.834
-0.146,-0.367,-0.942,4.79,9.03,0.64,1785100494511.0789
-0.144,-0.362,-0.94,4.7,9.34,0.09,1785100494511.335
-0.139,-0.353,-0.931,5.07,9.25,-0.24,1785100494511.571
-0.134,-0.343,-0.927,6.04,8.58,-0.73,1785100494511.795
-0.13,-0.333,-0.922,7.02,7.75,-1.59,1785100494512.0159
-0.127,-0.327,-0.915,7.63,6.5,-2.23,1785100494512.2402
-0.126,-0.325,-0.909,7.54,5.16,-2.93,1785100494512.469
-0.123,-0.322,-0.907,6.93,3.85,-3.6,1785100494512.6873
-0.125,-0.323,-0.902,6.38,2.72,-4.15,1785100494512.9119
-0.125,-0.326,-0.898,5.49,1.5,-4.18,1785100494513.1377
-0.126,-0.327,-0.897,4.3,0.46,-4.3,1785100494513.3691
-0.128,-0.325,-0.898,2.56,-0.49,-4.09,1785100494513.5842
-0.126,-0.323,-0.896,0.61,-1.37,-3.36,1785100494513.8079
-0.125,-0.324,-0.892,-1.1,-2.04,-2.59,1785100494514.0322
-0.127,-0.324,-0.887,-2.53,-2.53,-1.8,1785100494514.245
-0.128,-0.327,-0.885,-3.3,-3.02,-0.95,1785100494514.466
-0.127,-0.328,-0.882,-3.2,-3.75,-0.06,1785100494514.689
-0.124,-0.33,-0.885,-2.96,-4.43,0.73,1785100494514.9062
-0.126,-0.335,-0.888,-2.99,-5.25,1.59,1785100494515.1292
-0.126,-0.342,-0.9,-3.45,-5.95,2.26,1785100494515.3533
-0.128,-0.347,-0.904,-4.06,-6.41,2.81,1785100494515.5771
-0.13,-0.352,-0.908,-4.61,-7.08,3.66,1785100494515.81
-0.131,-0.359,-0.912,-4.88,-7.72,4.39,1785100494516.0361
-0.133,-0.36,-0.916,-5.01,-8.15,4.79,1785100494516.255
-0.135,-0.36,-0.919,-5.28,-8.39,5.19,1785100494516.469
-0.138,-0.36,-0.918,-5.49,-8.42,5.31,1785100494516.6787
-0.139,-0.357,-0.923,-5.43,-8.48,5.28,1785100494516.907
-0.142,-0.356,-0.928,-5.13,-8.33,5.25,1785100494517.113
-0.144,-0.359,-0.932,-4.76,-7.87,4.91,1785100494517.3198
-0.145,-0.362,-0.937,-4.58,-7.35,4.67,1785100494517.529
-0.148,-0.361,-0.939,-4.15,-6.81,4.7,1785100494517.734
-0.152,-0.364,-0.94,-3.48,-5.92,4.91,1785100494517.94
-0.155,-0.365,-0.936,-2.62,-4.94,5.13,1785100494518.1492
-0.154,-0.365,-0.938,-1.83,-4.18,5.25,1785100494518.359
-0.158,-0.371,-0.939,-1.07,-3.97,5.58,1785100494518.566
-0.16,-0.369,-0.937,-0.7,-3.27,5.49,1785100494518.772
-0.153,-0.369,-0.942,-0.18,-1.77,5.4,1785100494518.993
-0.152,-0.366,-0.945,-0.03,-1.04,4.73,1785100494519.23
-0.151,-0.364,-0.941,0.03,-0.79,4.33,1785100494519.432
-0.149,-0.363,-0.939,0.34,-0.49,4.09,1785100494519.6382
-0.149,-0.361,-0.934,1.04,-0.18,3.91,1785100494519.836
-0.145,-0.357,-0.934,2.38,0.15,3.57,1785100494520.041
-0.145,-0.355,-0.935,3.17,0.64,2.81,1785100494520.256
-0.143,-0.353,-0.937,3.2,1.31,2.04,1785100494520.469
-0.141,-0.35,-0.932,2.81,1.95,1.71,1785100494520.67
-0.14,-0.353,-0.929,2.96,2.23,1.65,1785100494520.8801
-0.139,-0.354,-0.927,2.99,2.47,1.68,1785100494521.089
-0.14,-0.352,-0.921,2.9,2.59,2.04,1785100494521.2979
-0.135,-0.353,-0.923,3.08,2.81,2.32,1785100494521.5051
-0.138,-0.353,-0.924,2.99,3.11,2.53,1785100494521.7202
-0.138,-0.354,-0.922,2.66,3.3,2.93,1785100494521.922
-0.137,-0.356,-0.922,2.38,3.42,3.57,1785100494522.15
-0.139,-0.362,-0.921,2.53,3.54,4.12,1785100494522.3647
-0.138,-0.36,-0.921,2.75,3.48,4.46,1785100494522.573
-0.137,-0.361,-0.924,2.78,3.51,4.97,1785100494522.779
-0.136,-0.365,-0.925,2.99,3.33,5.19,1785100494522.9922
-0.132,-0.366,-0.923,3.08,2.9,5.25,1785100494523.202
-0.129,-0.365,-0.926,3.11,2.66,4.82,1785100494523.405
-0.126,-0.364,-0.928,2.96,2.41,4.24,1785100494523.614
-0.125,-0.362,-0.926,2.96,1.95,3.78,1785100494523.826
-0.124,-0.362,-0.923,2.75,1.37,3.17,1785100494524.0269
-0.125,-0.363,-0.923,2.53,0.82,2.53,1785100494524.233
-0.123,-0.365,-0.925,2.29,0.24,1.8,1785100494524.4429
-0.124,-0.366,-0.93,1.74,-0.09,1.04,1785100494524.652
-0.128,-0.364,-0.932,0.79,-0.31,0.4,1785100494524.847
-0.128,-0.364,-0.931,0.03,-0.27,-0.12,1785100494525.04
-0.132,-0.366,-0.928,-0.64,0.09,-0.58,1785100494525.2312
-0.136,-0.365,-0.924,-1.13,0.34,-1.04,1785100494525.42
-0.138,-0.363,-0.922,-1.5,0.58,-1.46,1785100494525.614
-0.137,-0.359,-0.922,-1.59,0.92,-1.74,1785100494525.808
-0.142,-0.358,-0.918,-1.62,1.31,-1.89,1785100494525.995
-0.146,-0.364,-0.917,-1.31,1.5,-1.92,1785100494526.1892
-0.148,-0.367,-0.916,-0.95,1.8,-1.92,1785100494526.3792
-0.148,-0.365,-0.916,-0.7,2.35,-1.68,1785100494526.5942
-0.146,-0.36,-0.915,0.12,2.56,-1.28,1785100494526.782
-0.147,-0.358,-0.917,1.68,2.62,-0.34,1785100494527.167
-0.146,-0.362,-0.917,2.08,2.47,-0.03,1785100494527.356
-0.283,-0.866,-0.782,-9.7,-13.43,-24.87,1785100494527.646
-0.268,-0.836,-0.859,-7.45,-11.29,-39.12,1785100494527.854
-0.215,-0.802,-0.898,-2.32,-7.35,-52.58,1785100494528.047
-0.192,-0.788,-0.912,3.2,-5.31,-66.96,1785100494531.942
-0.188,-0.799,-0.927,6.53,-5.28,-79.74,1785100494537.501
-0.225,-0.834,-0.929,5.43,-5.98,-92.1,1785100494547.861
-0.292,-0.83,-0.935,-2.53,-8.67,-103.55,1785100494558.439
-0.318,-0.795,-0.917,-13.73,-10.99,-110.84,1785100494571.674
-0.318,-0.775,-0.872,-22.98,-12.48,-116.4,1785100494577.5308
-0.314,-0.763,-0.862,-29.24,-14.16,-123.42,1785100494588.3909
-0.277,-0.747,-0.879,-34.7,-14.89,-130.22,1785100494601.624
-0.234,-0.709,-0.853,-41.78,-15.05,-135.84,1785100494607.4922
-0.2,-0.687,-0.868,-47.52,-16.17,-140.02,1785100494618.4001
-0.19,-0.645,-0.84,-55.94,-17.15,-141.42,1785100494631.648
-0.21,-0.593,-0.757,-66.5,-20.66,-139.87,1785100494637.4668
-0.212,-0.563,-0.698,-75.53,-26.37,-136.33,1785100494648.4082
-0.167,-0.57,-0.694,-81.45,-32.32,-132.79,1785100494661.6587
-0.082,-0.581,-0.776,-86.52,-35.62,-130.19,1785100494667.4858
0.028,-0.562,-0.864,-91.01,-32.99,-126.07,1785100494678.525
0.111,-0.543,-0.868,-92.47,-28.38,-120.55,1785100494689.165
0.14,-0.509,-0.803,-94.55,-29.27,-115.18,1785100494702.425
0.16,-0.458,-0.694,-98.61,-33.17,-110.17,1785100494708.186
0.161,-0.436,-0.572,-100.89,-39.28,-104.77,1785100494721.879
0.152,-0.439,-0.506,-98.61,-48.65,-98.54,1785100494728.093
0.168,-0.436,-0.532,-89.75,-56.15,-92.5,1785100494738.4429
0.185,-0.395,-0.606,-78.86,-59.05,-86.79,1785100494749.091
0.222,-0.335,-0.699,-71.5,-57.95,-80.54,1785100494762.37
0.272,-0.303,-0.77,-67.81,-54.75,-76.82,1785100494768.28
0.296,-0.287,-0.782,-67.54,-53.96,-75.81,1785100494778.775
0.298,-0.276,-0.756,-68.97,-56.89,-73.03,1785100494792.0762
0.298,-0.274,-0.715,-66.53,-59.57,-66.74,1785100494797.718
0.291,-0.265,-0.704,-56.83,-60.88,-58.72,1785100494808.3599
0.29,-0.24,-0.729,-43.55,-60.09,-50.48,1785100494819.283
0.298,-0.212,-0.739,-31.07,-58.05,-43.0,1785100494832.3938
0.319,-0.202,-0.821,-23.01,-57.19,-38.51,1785100494838.262
0.341,-0.162,-0.901,-24.93,-54.63,-36.1,1785100494848.882
0.349,-0.109,-0.88,-34.27,-51.97,-32.62,1785100494862.0967
0.342,-0.091,-0.825,-45.01,-52.86,-28.78,1785100494867.9219
0.323,-0.105,-0.734,-53.47,-55.64,-24.75,1785100494878.561
0.289,-0.137,-0.622,-55.15,-60.49,-19.87,1785100494889.118
0.265,-0.173,-0.598,-48.01,-66.99,-14.77,1785100494902.377
0.268,-0.172,-0.683,-35.89,-71.47,-10.38,1785100494908.4822
0.283,-0.155,-0.792,-24.23,-73.03,-6.59,1785100494918.7761
0.288,-0.111,-0.898,-20.39,-73.0,-4.03,1785100494932.003
0.28,-0.065,-0.941,-24.63,-71.99,-1.77,1785100494937.912
0.278,-0.066,-0.958,-29.45,-71.96,-0.43,1785100494948.246
0.26,-0.083,-0.956,-31.68,-73.09,-0.24,1785100494958.735
0.24,-0.085,-0.932,-29.82,-74.89,1.74,1785100494972.094
0.233,-0.089,-0.932,-22.52,-76.72,5.19,1785100494979.411
0.226,-0.102,-0.951,-12.67,-77.61,8.64,1785100494988.211
0.223,-0.099,-0.99,-3.33,-77.09,11.47,1785100494998.776
0.222,-0.11,-1.032,6.41,-74.37,12.94,1785100495012.1138
0.205,-0.127,-1.063,14.74,-71.2,13.28,1785100495018.026
0.17,-0.133,-1.04,18.89,-69.52,13.73,1785100495028.4329
0.14,-0.141,-0.991,19.07,-70.41,15.35,1785100495039.011
0.113,-0.147,-0.968,18.22,-72.21,17.7,1785100495052.309
0.104,-0.171,-0.995,18.68,-72.12,19.47,1785100495058.26
0.115,-0.189,-1.08,20.54,-68.67,19.07,1785100495068.746
0.126,-0.189,-1.13,22.49,-63.11,18.77,1785100495082.0688
0.133,-0.205,-1.143,23.93,-58.66,18.8,1785100495087.913
0.122,-0.231,-1.152,24.08,-54.69,17.85,1785100495098.415
0.097,-0.251,-1.145,23.56,-51.55,17.46,1785100495109.075
0.066,-0.222,-1.13,22.06,-49.44,20.23,1785100495122.326
0.064,-0.192,-1.12,19.78,-47.15,25.15,1785100495128.417
0.073,-0.206,-1.115,17.64,-44.28,25.54,1785100495138.867
0.067,-0.218,-1.146,14.31,-40.62,21.7,1785100495152.0671
0.06,-0.226,-1.161,8.88,-35.28,19.41,1785100495157.97
0.048,-0.237,-1.141,3.81,-30.0,18.89,1785100495168.339
0.03,-0.23,-1.12,0.4,-25.76,19.81,1785100495178.914
0.005,-0.238,-1.078,-1.34,-22.46,21.94,1785100495192.103
-0.026,-0.275,-1.069,0.15,-19.87,22.4,1785100495197.991
-0.053,-0.303,-1.1,2.62,-16.57,21.79,1785100495208.2678
-0.063,-0.306,-1.134,1.68,-12.39,21.18,1785100495218.859
-0.071,-0.306,-1.151,-1.1,-7.84,19.68,1785100495232.0718
-0.072,-0.3,-1.164,-4.64,-3.66,17.49,1785100495237.9148
-0.064,-0.292,-1.142,-10.1,0.03,15.11,1785100495248.132
-0.068,-0.288,-1.108,-13.03,3.3,12.51,1785100495258.709
-0.073,-0.282,-1.05,-12.54,6.07,11.38,1785100495269.206
-0.074,-0.283,-0.986,-8.27,7.39,11.05,1785100495282.49
-0.083,-0.28,-0.961,-1.01,7.54,10.16,1785100495288.3079
-0.092,-0.264,-0.966,5.31,7.39,9.49,1785100495298.3071
-0.09,-0.248,-0.967,9.19,7.39,8.73,1785100495308.6729
-0.089,-0.237,-0.979,10.56,7.32,6.93,1785100495319.169
-0.09,-0.23,-0.993,8.73,7.45,4.79,1785100495332.3782
-0.086,-0.223,-0.979,4.52,7.72,3.54,1785100495338.047
-0.082,-0.227,-0.955,1.5,7.75,2.35,1785100495348.1191
-0.083,-0.232,-0.95,0.0,7.14,0.92,1785100495358.4548
-0.088,-0.222,-0.934,-1.13,6.68,1.04,1785100495368.86
-0.089,-0.213,-0.931,-0.76,5.98,2.26,1785100495379.344
-0.092,-0.2,-0.944,-0.7,5.16,3.3,1785100495392.468
-0.098,-0.196,-0.952,-1.83,4.7,4.03,1785100495398.159
-0.105,-0.209,-0.959,-3.36,4.7,4.27,1785100495408.15
-0.112,-0.222,-0.961,-5.98,4.7,4.24,1785100495418.571
-0.12,-0.217,-0.952,-10.41,4.76,4.88,1785100495429.028
-0.115,-0.217,-0.942,-14.25,4.55,5.58,1785100495442.2422
-0.113,-0.223,-0.946,-15.99,4.06,5.13,1785100495448.0698
-0.125,-0.216,-0.942,-17.3,3.2,5.52,1785100495458.19
-0.132,-0.209,-0.945,-16.88,1.8,7.14,1785100495468.7449
-0.136,-0.204,-0.953,-15.32,0.21,8.55,1785100495479.1418
-0.147,-0.205,-0.965,-14.25,-1.01,9.03,1785100495492.374
-0.159,-0.213,-0.984,-14.56,-1.86,8.76,1785100495498.128
-0.167,-0.223,-1.001,-16.75,-1.74,7.72,1785100495508.395
-0.175,-0.224,-1.003,-20.05,-1.53,6.81,1785100495518.872
-0.183,-0.233,-1.007,-22.25,-1.77,6.68,1785100495529.2979
-0.19,-0.245,-1.014,-22.31,-2.23,6.07,1785100495542.544
-0.196,-0.249,-1.018,-21.36,-2.66,5.49,1785100495548.395
-0.194,-0.248,-1.026,-19.32,-3.23,5.71,1785100495558.496
-0.19,-0.235,-1.025,-16.63,-3.66,5.86,1785100495568.9321
-0.181,-0.217,-1.021,-14.28,-4.06,5.77,1785100495582.218
-0.173,-0.201,-1.015,-11.72,-4.24,5.01,1785100495588.01
-0.17,-0.192,-1.005,-8.76,-4.27,3.66,1785100495598.024
-0.164,-0.183,-1.0,-6.29,-4.79,2.53,1785100495608.371
-0.164,-0.183,-1.0,-4.7,-5.43,1.31,1785100495618.8381
-0.16,-0.184,-1.004,-3.72,-6.65,0.34,1785100495629.189
-0.168,-0.184,-1.013,-3.11,-6.29,0.09,1785100495642.367
-0.165,-0.18,-1.008,-2.87,-5.31,-1.71,1785100495648.0908
-0.171,-0.185,-1.015,-5.04,-6.53,-2.84,1785100495658.1702
-0.179,-0.193,-1.012,-5.04,-6.53,-2.84,1785100495668.54
-0.176,-0.191,-0.996,-9.19,-7.51,-3.63,1785100495678.875
-0.176,-0.186,-0.986,-11.96,-6.47,-4.52,1785100495692.1147
-0.178,-0.188,-0.978,-12.82,-4.36,-4.27,1785100495698.051
-0.175,-0.186,-0.988,-12.45,-4.09,-4.39,1785100495708.1443
-0.165,-0.185,-1.004,-12.05,-4.73,-4.64,1785100495718.4917
-0.16,-0.191,-1.003,-10.99,-3.27,-4.58,1785100495729.071
-0.16,-0.195,-1.009,-9.22,-2.69,-3.6,1785100495742.2312
-0.164,-0.185,-1.014,-7.81,-2.81,-2.26,1785100495747.916
-0.158,-0.169,-1.003,-6.47,0.58,-2.01,1785100495757.927
-0.165,-0.166,-1.019,-6.5,2.93,-3.27,1785100495768.272
-0.173,-0.177,-1.016,-8.36,-0.55,-1.31,1785100495778.767
-0.164,-0.169,-0.995,-8.7,-1.77,0.55,1785100495789.0078
-0.16,-0.164,-0.988,-7.32,0.43,0.4,1785100495802.283
-0.166,-0.165,-0.988,-7.42,1.92,0.4,1785100495807.948
-0.153,-0.156,-0.996,-10.19,1.68,-0.98,1785100495818.0781
-0.157,-0.157,-0.972,-13.79,2.26,-3.08,1785100495828.429
-0.162,-0.178,-0.969,-14.59,3.02,-4.18,1785100495839.008
-0.166,-0.192,-0.975,-14.04,2.56,-5.13,1785100495852.313
-0.193,-0.19,-0.969,-13.7,0.31,-4.82,1785100495858.171
-0.173,-0.191,-0.996,-12.94,-1.31,-4.7,1785100495868.226
-0.143,-0.193,-1.011,-13.06,-1.53,-5.28,1785100495878.69
-0.138,-0.189,-1.021,-14.22,-1.46,-6.35,1785100495889.225
-0.152,-0.192,-1.014,-14.4,-1.62,-7.63,1785100495902.3699
-0.161,-0.196,-1.008,-13.52,-2.17,-9.13,1785100495908.224
-0.155,-0.198,-0.994,-12.36,-2.14,-9.92,1785100495918.2898
-0.158,-0.2,-0.972,-10.38,-2.35,-10.04,1785100495929.006
-0.166,-0.198,-0.951,-7.72,-3.17,-9.98,1785100495939.424
-0.168,-0.188,-0.933,-5.55,-4.55,-9.4,1785100495952.379
-0.169,-0.182,-0.935,-4.36,-6.23,-9.0,1785100495958.215
-0.168,-0.177,-0.933,-4.52,-7.17,-9.4,1785100495968.1558
-0.163,-0.17,-0.92,-5.16,-8.03,-10.13,1785100495978.793
-0.163,-0.169,-0.922,-4.52,-9.16,-11.29,1785100495989.0781
-0.171,-0.17,-0.927,-3.23,-10.07,-12.42,1785100496002.337
-0.176,-0.162,-0.932,-2.75,-10.96,-13.03,1785100496008.3132
-0.169,-0.154,-0.942,-3.11,-11.54,-13.58,1785100496018.61
-0.171,-0.152,-0.949,-3.94,-11.05,-14.1,1785100496029.1099
-0.168,-0.162,-0.947,-4.58,-9.98,-14.5,1785100496042.315
-0.17,-0.17,-0.946,-4.73,-8.7,-14.98,1785100496048.257
-0.173,-0.17,-0.95,-4.58,-7.39,-14.44,1785100496058.363
-0.177,-0.173,-0.949,-4.03,-5.77,-13.06,1785100496068.726
-0.173,-0.184,-0.948,-2.53,-3.63,-11.72,1785100496079.238
-0.162,-0.187,-0.957,-0.27,-0.7,-10.71,1785100496092.4421
-0.165,-0.179,-0.959,1.65,2.5,-9.31,1785100496098.2468
-0.174,-0.152,-0.963,2.56,4.91,-7.11,1785100496108.265
-0.165,-0.139,-0.981,3.02,8.0,-5.83,1785100496118.607
-0.156,-0.132,-0.984,2.62,11.87,-4.85,1785100496129.14
-0.157,-0.127,-0.984,2.93,15.69,-3.3,1785100496142.366
-0.161,-0.132,-0.997,5.68,20.05,-2.04,1785100496148.311
-0.158,-0.143,-0.993,10.07,24.23,-0.64,1785100496158.4019
-0.158,-0.154,-0.996,15.41,28.11,0.52,1785100496168.9402
-0.153,-0.157,-1.002,20.54,32.32,2.08,1785100496182.1848
-0.145,-0.162,-0.988,24.57,36.13,3.91,1785100496188.102
-0.141,-0.164,-0.964,26.92,38.51,4.73,1785100496198.377
-0.131,-0.138,-0.941,25.82,38.76,4.82,1785100496208.91
-0.101,-0.12,-0.961,23.59,39.34,4.46,1785100496222.2012
-0.097,-0.141,-0.993,23.1,41.69,2.66,1785100496228.052
-0.114,-0.16,-0.985,22.19,43.09,1.59,1785100496238.354
-0.128,-0.152,-0.915,20.87,42.05,2.44,1785100496248.936
-0.108,-0.138,-0.846,21.36,39.4,5.01,1785100496262.228
-0.088,-0.163,-0.814,25.67,36.74,5.98,1785100496268.075
-0.079,-0.178,-0.829,27.95,33.05,4.82,1785100496278.371
-0.05,-0.159,-0.901,26.0,31.98,4.97,1785100496288.909
-0.014,-0.17,-0.995,23.32,33.75,5.65,1785100496302.1409
0.009,-0.22,-1.101,19.71,37.32,3.11,1785100496308.1138
0.012,-0.292,-1.175,13.64,41.87,-2.14,1785100496318.347
-0.037,-0.305,-1.182,8.24,46.27,-6.1,1785100496328.8079
-0.06,-0.325,-1.118,6.16,48.71,-2.87,1785100496342.0632
-0.057,-0.315,-1.01,6.81,47.3,0.92,1785100496347.876
-0.044,-0.273,-0.949,11.11,43.95,3.72,1785100496358.139
-0.017,-0.243,-0.953,17.49,42.73,6.47,1785100496368.6677
0.006,-0.23,-0.936,20.05,42.85,7.42,1785100496379.347
0.022,-0.227,-0.952,19.62,41.23,6.07,1785100496392.459
0.04,-0.248,-1.009,17.12,41.6,3.51,1785100496398.3892
0.042,-0.273,-1.039,12.7,43.15,0.03,1785100496408.6443
0.038,-0.275,-1.051,8.48,43.46,-1.98,1785100496419.25
0.034,-0.254,-0.993,6.26,42.39,-1.68,1785100496432.343
0.037,-0.242,-0.941,6.62,38.67,-0.31,1785100496438.188
0.057,-0.256,-0.948,7.81,35.89,-0.64,1785100496448.284
0.074,-0.271,-0.979,6.35,35.8,-3.2,1785100496458.7861
0.08,-0.28,-1.023,1.77,37.45,-5.8,1785100496469.279
0.082,-0.273,-1.044,-5.1,39.74,-7.51,1785100496482.5388
0.089,-0.272,-1.06,-10.71,41.38,-7.35,1785100496488.435
0.092,-0.271,-1.033,-13.15,42.15,-6.59,1785100496498.698
0.09,-0.241,-0.983,-13.67,40.25,-4.73,1785100496509.1938
0.109,-0.225,-0.977,-13.06,38.67,-2.11,1785100496522.436
0.125,-0.206,-0.97,-15.81,38.09,-1.71,1785100496528.528
0.133,-0.19,-0.969,-21.42,37.9,-2.35,1785100496538.644
0.135,-0.187,-0.982,-27.5,38.58,-3.51,1785100496549.1587
0.132,-0.188,-0.967,-33.97,39.09,-4.7,1785100496562.4731
0.134,-0.195,-0.93,-37.05,38.48,-5.55,1785100496568.317
0.149,-0.219,-0.923,-34.94,36.96,-5.83,1785100496578.649
0.158,-0.237,-0.933,-31.34,36.32,-6.23,1785100496589.159
0.16,-0.232,-0.948,-28.81,35.95,-6.53,1785100496602.3892
0.157,-0.219,-0.969,-27.28,35.8,-5.71,1785100496608.343
0.157,-0.212,-0.981,-26.43,35.1,-4.94,1785100496618.6162
0.158,-0.211,-0.96,-25.97,33.97,-4.85,1785100496629.198
0.161,-0.203,-0.937,-26.15,32.01,-4.97,1785100496642.3782
0.169,-0.182,-0.921,-27.1,30.58,-4.43,1785100496648.337
0.183,-0.16,-0.897,-28.23,29.18,-3.2,1785100496658.7478
0.2,-0.156,-0.897,-28.63,28.11,-2.9,1785100496669.154
0.209,-0.164,-0.92,-28.38,27.68,-3.81,1785100496682.4893
0.206,-0.172,-0.949,-27.8,27.99,-5.13,1785100496688.3071
0.194,-0.178,-0.946,-24.93,28.41,-6.35,1785100496698.6821
0.191,-0.183,-0.914,-19.04,26.8,-6.5,1785100496709.1572
0.201,-0.174,-0.863,-11.26,23.47,-6.26,1785100496722.4077
0.222,-0.161,-0.881,-5.28,19.99,-6.04,1785100496728.4182
0.227,-0.137,-0.927,-4.91,19.41,-6.38,1785100496738.432
0.207,-0.122,-0.973,-8.51,20.17,-5.68,1785100496748.9229
0.192,-0.119,-0.987,-11.99,21.21,-3.91,1785100496762.082
0.189,-0.142,-0.983,-12.24,21.21,-3.23,1785100496768.0981
0.193,-0.163,-0.98,-8.58,21.27,-4.3,1785100496778.3152
0.189,-0.156,-0.98,-3.39,21.52,-4.76,1785100496788.734
0.193,-0.13,-0.991,0.73,21.67,-3.45,1785100496799.2507
0.198,-0.099,-1.008,2.41,22.77,-2.26,1785100496812.5232
0.193,-0.081,-1.017,2.01,24.48,-1.92,1785100496818.3
0.195,-0.071,-0.994,-0.03,25.67,-1.65,1785100496828.346
0.215,-0.068,-0.967,-2.96,25.73,-0.76,1785100496838.8428
0.233,-0.072,-0.957,-6.62,25.79,0.58,1785100496852.077
0.233,-0.078,-0.953,-10.41,25.82,2.04,1785100496858.231
0.228,-0.082,-0.954,-12.42,25.76,2.78,1785100496868.227
0.227,-0.095,-0.956,-12.09,25.54,2.87,1785100496878.9211
0.229,-0.097,-0.964,-11.02,25.45,2.99,1785100496892.029
0.239,-0.097,-0.957,-10.22,25.79,4.21,1785100496898.0159
0.239,-0.097,-0.957,-8.58,25.82,5.86,1785100496908.158
0.246,-0.108,-0.94,-6.32,25.67,6.62,1785100496918.591
0.255,-0.105,-0.942,-5.8,25.76,7.14,1785100496929.107
0.256,-0.116,-0.932,-4.7,24.93,7.32,1785100496942.324
0.256,-0.136,-0.91,-4.7,24.93,7.32,1785100496948.2397
0.258,-0.157,-0.902,-1.22,23.62,7.57,1785100496958.2441
0.25,-0.168,-0.906,4.85,22.03,5.62,1785100496968.7302
0.252,-0.162,-0.908,10.28,19.29,3.57,1785100496979.287
0.246,-0.147,-0.91,13.95,17.98,3.05,1785100496992.544
0.256,-0.124,-0.913,17.0,16.91,3.05,1785100496998.5017
0.274,-0.101,-0.903,18.13,14.47,3.14,1785100497008.7412
0.281,-0.088,-0.909,15.75,12.12,5.25,1785100497019.5168
0.287,-0.087,-0.9,13.4,11.11,6.81,1785100497032.573
0.286,-0.092,-0.92,14.92,10.47,3.88,1785100497038.4531
0.271,-0.088,-0.947,12.82,10.16,3.72,1785100497048.743
0.268,-0.087,-0.955,8.88,9.46,5.01,1785100497059.224
0.269,-0.104,-0.947,4.36,8.7,5.58,1785100497072.319
0.272,-0.127,-0.931,1.22,7.78,5.31,1785100497078.086
0.281,-0.131,-0.917,-1.4,6.23,5.55,1785100497088.0352
0.298,-0.134,-0.894,-2.38,4.64,6.26,1785100497098.408
0.312,-0.136,-0.892,-1.86,2.75,5.95,1785100497108.895
0.313,-0.135,-0.906,-1.1,1.56,4.97,1785100497119.174
0.309,-0.134,-0.926,-0.7,0.79,4.52,1785100497132.4302
0.302,-0.131,-0.951,-1.19,0.82,3.69,1785100497138.072
0.292,-0.14,-0.973,-2.38,1.31,2.9,1785100497148.0918
0.286,-0.145,-0.979,-4.03,2.17,2.47,1785100497158.457
0.29,-0.142,-0.969,-6.32,2.14,3.39,1785100497168.853
0.299,-0.14,-0.955,-9.37,1.74,4.64,1785100497179.371
0.314,-0.14,-0.935,-11.96,1.25,5.22,1785100497192.501
0.327,-0.145,-0.917,-13.34,0.37,5.43,1785100497198.3208
0.332,-0.143,-0.918,-13.25,0.0,5.1,1785100497208.3918
0.326,-0.145,-0.932,-11.75,0.06,4.49,1785100497218.894
0.32,-0.145,-0.941,-9.83,0.21,3.6,1785100497229.255
0.315,-0.151,-0.952,-8.61,0.58,2.84,1785100497242.489
0.304,-0.153,-0.955,-7.35,1.16,2.41,1785100497248.1501
0.315,-0.151,-0.945,-5.86,0.98,2.99,1785100497258.186
0.324,-0.151,-0.931,-5.46,0.18,3.23,1785100497268.576
0.325,-0.153,-0.926,-4.49,-0.58,3.2,1785100497278.932
0.327,-0.145,-0.93,-2.35,-1.16,3.48,1785100497292.189
0.326,-0.135,-0.937,-0.18,-1.16,3.54,1785100497297.842
0.324,-0.124,-0.934,1.28,-1.07,3.42,1785100497307.8389
0.333,-0.123,-0.916,2.72,-1.83,3.08,1785100497318.264
0.337,-0.128,-0.913,4.24,-2.17,2.44,1785100497328.642
0.327,-0.129,-0.92,5.55,-2.17,2.14,1785100497339.145
0.318,-0.122,-0.935,6.04,-2.41,2.5,1785100497352.264
0.303,-0.123,-0.957,5.49,-2.29,3.05,1785100497357.9001
0.294,-0.135,-0.969,4.27,-1.92,3.54,1785100497367.9868
0.295,-0.147,-0.964,3.54,-2.04,3.88,1785100497378.325
0.296,-0.147,-0.961,3.23,-1.98,4.7,1785100497388.693
0.303,-0.142,-0.952,4.12,-1.83,5.58,1785100497399.082
0.317,-0.128,-0.924,5.07,-2.84,6.04,1785100497412.383
0.338,-0.124,-0.896,5.28,-4.97,6.13,1785100497417.9958
0.346,-0.129,-0.878,5.04,-6.56,5.4,1785100497428.0242
0.342,-0.138,-0.881,5.46,-7.81,3.78,1785100497438.3738
0.325,-0.138,-0.906,6.87,-8.18,2.59,1785100497448.7988
0.307,-0.143,-0.94,8.85,-7.9,2.08,1785100497459.342
0.29,-0.153,-0.996,9.49,-7.14,1.28,1785100497472.4102
0.272,-0.149,-1.032,7.75,-4.64,0.7,1785100497478.1902
0.272,-0.137,-1.012,5.89,-3.17,1.4,1785100497488.086
0.3,-0.126,-0.98,4.52,-3.2,2.96,1785100497498.4783
0.32,-0.12,-0.944,4.3,-2.99,4.06,1785100497508.8188
0.33,-0.123,-0.906,4.61,-3.69,4.61,1785100497519.223
0.337,-0.12,-0.901,3.75,-4.46,4.67,1785100497532.527
0.327,-0.115,-0.892,1.56,-4.73,4.85,1785100497538.244
0.316,-0.138,-0.899,-0.46,-5.55,4.85,1785100497548.1868
0.304,-0.166,-0.944,-2.93,-4.97,3.23,1785100497558.521
0.285,-0.179,-0.971,-4.43,-2.99,1.74,1785100497568.961
0.276,-0.196,-0.983,-1.4,-1.53,1.65,1785100497579.336
0.284,-0.197,-1.022,4.7,0.58,1.43,1785100497592.591
0.278,-0.188,-1.054,10.65,3.97,1.1,1785100497598.325
0.271,-0.175,-1.032,15.29,7.05,1.25,1785100497608.4192
0.282,-0.157,-0.951,19.56,6.71,2.38,1785100497619.105
0.305,-0.155,-0.875,22.86,3.27,3.97,1785100497632.1611
0.319,-0.15,-0.841,21.88,0.03,4.15,1785100497637.985
0.314,-0.141,-0.823,16.88,-2.35,3.81,1785100497648.0552
0.312,-0.151,-0.852,11.99,-4.0,3.45,1785100497658.636
0.307,-0.17,-0.915,8.61,-3.36,1.77,1785100497668.906
0.292,-0.191,-0.979,7.42,-1.5,-1.04,1785100497679.293
0.287,-0.203,-1.058,8.61,1.68,-3.11,1785100497692.584
0.283,-0.198,-1.07,11.69,5.65,-4.33,1785100497698.388
0.28,-0.197,-1.045,17.24,6.62,-3.75,1785100497708.3928
0.293,-0.192,-1.065,21.85,7.72,-2.41,1785100497718.887
0.301,-0.169,-1.034,21.06,10.35,-2.14,1785100497732.238
0.294,-0.147,-0.92,16.91,9.19,-0.85,1785100497738.055
0.306,-0.146,-0.842,11.14,4.58,0.98,1785100497748.089
0.321,-0.142,-0.803,2.69,0.03,0.46,1785100497758.487
0.321,-0.151,-0.835,-7.6,-2.99,-0.76,1785100497768.897
0.315,-0.19,-0.944,-17.24,-1.71,-3.39,1785100497782.134
0.305,-0.242,-1.036,-23.44,2.9,-7.45,1785100497787.9282
0.302,-0.299,-1.065,-21.18,7.69,-10.77,1785100497798.2148
0.314,-0.33,-1.042,-9.67,10.32,-12.94,1785100497808.748
0.318,-0.324,-0.925,6.04,8.51,-13.86,1785100497819.349
0.294,-0.256,-0.817,18.52,-0.37,-11.84,1785100497832.53
0.298,-0.186,-0.826,24.35,-7.51,-7.48,1785100497838.405
0.301,-0.146,-0.846,20.29,-10.01,-6.26,1785100497848.658
0.287,-0.121,-0.829,8.45,-11.87,-7.11,1785100497859.2178
0.296,-0.133,-0.853,-3.81,-13.92,-8.21,1785100497872.285
0.319,-0.19,-0.919,-12.73,-13.98,-10.44,1785100497878.3748
0.328,-0.236,-0.943,-17.4,-12.42,-12.91,1785100497888.591
0.316,-0.245,-0.944,-14.68,-12.27,-14.37,1785100497899.346
0.305,-0.224,-0.938,-6.68,-13.12,-14.16,1785100497912.498
0.296,-0.184,-0.917,0.73,-15.35,-12.7,1785100497918.3682
0.289,-0.158,-0.891,5.31,-18.13,-11.41,1785100497928.668
0.284,-0.164,-0.844,6.84,-21.18,-11.75,1785100497939.3699
0.275,-0.19,-0.815,8.12,-24.41,-13.7,1785100497952.4531
0.272,-0.208,-0.814,11.38,-26.89,-15.66,1785100497958.383
0.268,-0.21,-0.802,17.46,-29.48,-15.02,1785100497968.8599
0.263,-0.192,-0.812,25.36,-33.33,-12.7,1785100497982.099
0.259,-0.146,-0.833,29.48,-37.08,-8.85,1785100497988.065
0.26,-0.104,-0.849,27.25,-39.61,-3.51,1785100497998.411
0.247,-0.088,-0.867,20.17,-41.54,-0.98,1785100498008.9312
0.238,-0.099,-0.871,11.51,-43.31,-1.89,1785100498022.303
0.235,-0.15,-0.873,7.29,-44.71,-5.31,1785100498028.342
0.234,-0.203,-0.914,9.77,-45.2,-10.04,1785100498038.372
0.227,-0.231,-0.948,14.95,-44.19,-12.15,1785100498051.572
0.219,-0.241,-0.966,20.23,-43.86,-11.2,1785100498062.1052
0.208,-0.243,-0.973,25.03,-44.13,-9.37,1785100498067.6702
0.197,-0.244,-0.962,29.21,-44.34,-7.29,1785100498078.615
0.192,-0.249,-0.973,32.84,-44.34,-5.8,1785100498089.189
0.182,-0.243,-0.988,33.05,-43.52,-4.12,1785100498102.297
0.17,-0.22,-0.987,29.63,-41.75,-1.19,1785100498107.897
0.167,-0.205,-0.98,23.07,-39.95,1.92,1785100498118.389
0.172,-0.213,-0.97,15.41,-39.03,3.27,1785100498129.184
0.172,-0.226,-0.954,8.61,-38.21,2.5,1785100498142.377
0.171,-0.231,-0.952,4.88,-37.14,1.01,1785100498148.229
0.169,-0.238,-0.951,5.07,-35.62,0.58,1785100498158.278
0.158,-0.241,-0.963,8.03,-34.24,0.7,1785100498168.666
0.154,-0.231,-0.976,10.99,-32.75,1.83,1785100498179.461
0.154,-0.231,-0.976,12.76,-31.56,3.51,1785100498192.517
0.154,-0.21,-0.98,14.8,-29.48,4.33,1785100498198.472
0.159,-0.203,-1.001,16.45,-27.5,4.12,1785100498208.707
0.155,-0.204,-0.994,18.4,-26.0,3.85,1785100498219.548
0.157,-0.217,-1.002,19.07,-23.16,3.63,1785100498232.524
0.145,-0.228,-0.998,19.07,-23.16,3.63,1785100498238.4792
0.131,-0.235,-1.002,19.07,-21.79,4.76,1785100498248.6729
0.127,-0.242,-1.001,18.13,-20.57,6.07,1785100498259.4248
0.126,-0.25,-0.994,16.69,-19.5,7.69,1785100498272.523
0.125,-0.263,-0.999,15.99,-18.07,8.39,1785100498278.5
0.124,-0.276,-1.007,14.65,-16.36,7.63,1785100498288.6392
0.117,-0.286,-1.015,11.63,-15.02,6.56,1785100498299.412
0.113,-0.29,-1.023,7.35,-13.86,5.52,1785100498312.511
0.114,-0.29,-1.019,2.62,-12.48,4.55,1785100498318.387
0.113,-0.286,-1.021,-1.01,-11.38,3.72,1785100498328.512
0.113,-0.282,-1.027,-3.75,-10.28,3.14,1785100498339.0488
0.111,-0.278,-1.016,-5.19,-8.91,2.78,1785100498349.299
0.105,-0.278,-1.009,-5.1,-7.81,2.38,1785100498362.6199
0.104,-0.283,-1.01,-3.66,-6.38,1.95,1785100498368.209
0.098,-0.284,-1.002,-2.78,-5.13,1.8,1785100498382.0522
0.099,-0.279,-0.994,-1.95,-4.58,1.83,1785100498388.4292
0.101,-0.281,-0.995,-0.52,-3.85,1.59,1785100498398.904
0.096,-0.282,-0.994,0.7,-3.11,1.34,1785100498409.499
0.096,-0.284,-0.989,1.65,-2.62,1.31,1785100498422.7131
0.097,-0.285,-0.991,2.35,-2.62,1.16,1785100498428.3982
0.101,-0.285,-0.995,2.29,-2.14,0.67,1785100498438.3428
0.094,-0.279,-0.989,1.43,-1.46,0.49,1785100498448.664
0.093,-0.283,-0.986,0.52,-1.07,0.37,1785100498459.282
0.089,-0.284,-0.985,-1.59,-1.01,-0.43,1785100498472.191
0.092,-0.278,-0.985,-4.12,-0.85,-1.22,1785100498478.1719
0.096,-0.267,-0.975,-4.88,-0.18,-1.1,1785100498487.971
0.088,-0.263,-0.953,-3.88,-0.24,-0.61,1785100498498.347
0.086,-0.252,-0.964,-2.56,-1.25,-0.52,1785100498508.7942
0.094,-0.245,-0.965,-1.43,-1.19,-0.03,1785100498519.146
0.094,-0.256,-0.961,0.46,-1.19,0.06,1785100498532.4988
0.088,-0.267,-0.954,1.98,-1.1,-0.37,1785100498538.02
0.085,-0.273,-0.944,2.72,-0.76,-0.34,1785100498548.068
0.087,-0.276,-0.945,2.96,-0.12,-0.03,1785100498558.502
0.084,-0.274,-0.931,2.93,0.67,0.55,1785100498568.8782
0.083,-0.27,-0.924,3.11,0.0,0.85,1785100498579.2761
0.088,-0.268,-0.944,1.92,-0.98,0.46,1785100498592.504
0.086,-0.27,-0.961,-0.67,-0.79,-0.27,1785100498598.2961
0.082,-0.269,-0.964,-3.48,-0.52,-0.18,1785100498608.174
0.082,-0.268,-0.958,-4.85,-0.31,0.61,1785100498618.591
0.087,-0.274,-0.966,-4.64,-0.58,0.67,1785100498629.014
0.091,-0.277,-0.969,-4.73,-0.55,0.7,1785100498639.2363
0.087,-0.275,-0.962,-4.52,-0.21,1.34,1785100498652.478
0.081,-0.274,-0.954,-3.81,-0.15,1.83,1785100498658.3682
0.077,-0.269,-0.937,-3.23,-0.43,2.38,1785100498668.2761
0.081,-0.269,-0.929,-2.29,-0.98,2.69,1785100498678.471
0.083,-0.264,-0.927,-1.5,-1.62,2.87,1785100498688.961
0.091,-0.262,-0.94,-0.79,-2.11,2.93,1785100498699.627
0.088,-0.261,-0.948,-0.64,-1.8,2.53,1785100498712.633
0.084,-0.263,-0.947,-0.92,-1.95,1.98,1785100498718.21
0.088,-0.269,-0.953,-1.4,-2.26,1.28,1785100498728.333
0.085,-0.27,-0.954,-1.74,-2.2,0.67,1785100498738.625
0.081,-0.268,-0.955,-1.46,-2.47,0.55,1785100498749.042
0.084,-0.267,-0.961,-0.85,-2.93,0.64,1785100498762.42
0.084,-0.269,-0.969,-0.24,-2.81,0.52,1785100498767.878
0.081,-0.269,-0.97,0.24,-2.29,0.7,1785100498777.8088
0.078,-0.266,-0.967,1.01,-1.65,1.16,1785100498788.251
0.075,-0.265,-0.971,2.35,-0.76,1.59,1785100498798.7258
0.079,-0.265,-0.974,3.81,0.18,1.68,1785100498809.1619
0.082,-0.265,-0.975,5.19,1.5,1.86,1785100498822.3723
0.078,-0.263,-0.963,6.56,2.56,2.66,1785100498827.5818
0.079,-0.262,-0.957,9.03,2.9,3.48,1785100498838.063
0.087,-0.26,-0.955,12.02,3.42,3.72,1785100498848.295
0.087,-0.261,-0.96,15.17,3.85,3.97,1785100498858.6528
0.09,-0.267,-0.962,17.4,3.91,4.3,1785100498871.896
0.089,-0.271,-0.956,17.85,3.57,3.54,1785100498877.6052
0.088,-0.283,-0.969,17.0,2.75,1.92,1785100498887.788
0.085,-0.293,-0.972,13.73,2.2,0.79,1785100498898.289
0.082,-0.299,-0.972,9.77,2.14,0.82,1785100498908.662
0.081,-0.304,-0.97,6.84,2.29,1.13,1785100498919.022
0.08,-0.304,-0.96,4.76,2.2,1.4,1785100498932.432
0.084,-0.303,-0.963,3.72,1.77,1.4,1785100498937.967
0.086,-0.297,-0.972,2.62,1.8,1.34,1785100498947.9602
0.087,-0.29,-0.964,1.1,2.14,1.74,1785100498958.341
0.086,-0.287,-0.956,0.34,2.29,2.29,1785100498968.718
0.087,-0.288,-0.947,0.43,2.2,2.44,1785100498981.955
0.089,-0.286,-0.941,0.76,1.53,2.11,1785100498987.37
0.096,-0.281,-0.949,1.53,0.95,1.59,1785100498997.643
0.096,-0.283,-0.958,1.68,0.76,1.01,1785100499008.021
0.092,-0.282,-0.957,0.49,0.76,0.64,1785100499018.396
0.093,-0.286,-0.945,-0.18,0.85,0.82,1785100499028.8708
0.091,-0.291,-0.941,0.21,0.37,0.89,1785100499042.1628
0.089,-0.291,-0.941,0.79,0.06,0.79,1785100499047.637
0.091,-0.282,-0.943,0.76,-0.58,0.95,1785100499057.781
0.096,-0.28,-0.942,0.18,-0.82,1.25,1785100499068.234
0.094,-0.283,-0.939,-0.82,-0.85,1.56,1785100499078.6199
0.089,-0.289,-0.936,-1.74,-0.61,1.8,1785100499089.049
0.091,-0.291,-0.937,-2.17,-0.46,2.04,1785100499102.119
0.092,-0.286,-0.942,-2.08,-0.73,1.83,1785100499107.6301
0.094,-0.284,-0.959,-2.04,-0.92,1.83,1785100499117.794
0.09,-0.288,-0.963,-3.17,-0.55,2.08,1785100499128.29
0.086,-0.29,-0.956,-4.58,-0.34,2.26,1785100499138.5789
0.084,-0.292,-0.953,-4.73,-0.15,2.35,1785100499149.0403
0.086,-0.291,-0.954,-3.88,0.31,2.35,1785100499162.329
0.083,-0.291,-0.948,-2.87,0.85,2.38,1785100499167.718
0.082,-0.289,-0.939,-1.77,1.19,2.69,1785100499177.922
0.079,-0.293,-0.936,-0.12,1.46,2.78,1785100499188.296
0.078,-0.291,-0.935,1.43,1.53,2.72,1785100499198.648
0.081,-0.283,-0.934,2.87,1.53,2.62,1785100499209.101
0.084,-0.287,-0.934,5.49,1.16,2.69,1785100499222.2998
0.082,-0.295,-0.94,7.57,0.85,2.26,1785100499227.874
0.079,-0.3,-0.943,8.18,0.46,1.74,1785100499238.034
0.085,-0.307,-0.956,7.97,0.18,1.25,1785100499248.389
0.081,-0.308,-0.957,6.84,0.21,0.92,1785100499258.728
0.081,-0.308,-0.954,5.68,-0.18,0.82,1785100499271.947
0.086,-0.309,-0.959,4.61,-0.46,0.58,1785100499277.465
0.085,-0.307,-0.961,3.54,-0.7,0.67,1785100499287.6438
0.085,-0.307,-0.964,2.35,-0.76,0.85,1785100499298.003
0.086,-0.302,-0.962,1.19,-0.82,1.07,1785100499308.396
0.088,-0.294,-0.959,0.7,-0.76,1.19,1785100499318.7761
0.088,-0.288,-0.956,0.61,-0.52,1.19,1785100499332.083
0.09,-0.281,-0.954,0.92,-0.64,1.1,1785100499337.495
0.094,-0.283,-0.958,1.22,-0.85,0.76,1785100499347.958
0.09,-0.286,-0.955,1.19,-0.58,0.67,1785100499358.221
0.085,-0.293,-0.952,1.22,-0.64,1.16,1785100499368.6577
0.089,-0.297,-0.954,1.65,-0.82,1.74,1785100499379.0479
0.088,-0.299,-0.952,1.86,-0.7,2.2,1785100499392.107
0.087,-0.3,-0.953,1.77,-0.92,2.69,1785100499397.6309
0.086,-0.298,-0.954,1.28,-1.4,2.96,1785100499407.7593
0.088,-0.297,-0.954,0.61,-1.98,2.78,1785100499418.1208
0.092,-0.3,-0.963,-0.34,-2.59,2.53,1785100499428.54
0.089,-0.299,-0.956,-1.43,-2.96,2.23,1785100499438.876
0.09,-0.298,-0.947,-2.14,-3.42,2.04,1785100499452.4019
0.094,-0.297,-0.949,-1.77,-3.85,1.8,1785100499458.072
