ax,ay,az,gx,gy,gz,timestamp_ms
-0.13,-0.364,-0.938,-0.46,-4.88,1.19,1785100591706.488
-0.131,-0.364,-0.938,-1.01,-4.82,1.53,1785100591706.937
-0.13,-0.363,-0.948,-0.85,-4.85,1.5,1785100591707.358
-0.131,-0.365,-0.951,-0.92,-4.33,1.13,1785100591707.754
-0.132,-0.366,-0.947,-1.07,-3.69,1.34,1785100591708.1191
-0.134,-0.369,-0.943,-0.89,-3.23,1.62,1785100591708.457
-0.135,-0.371,-0.942,-0.4,-2.66,1.83,1785100591708.7822
-0.136,-0.372,-0.943,0.34,-2.2,2.17,1785100591709.105
-0.134,-0.372,-0.944,0.67,-1.56,2.38,1785100591709.434
-0.133,-0.372,-0.946,0.95,-1.01,2.69,1785100591709.771
-0.139,-0.374,-0.947,0.92,-0.34,2.78,1785100591710.109
-0.143,-0.376,-0.95,0.58,0.34,2.72,1785100591710.42
-0.144,-0.377,-0.948,0.06,1.37,2.78,1785100591710.706
-0.145,-0.377,-0.942,0.03,2.35,2.87,1785100591710.9912
-0.143,-0.378,-0.944,0.31,3.08,2.81,1785100591711.279
-0.139,-0.376,-0.944,0.58,3.78,2.78,1785100591711.595
-0.139,-0.373,-0.938,0.95,4.46,2.9,1785100591711.9119
-0.138,-0.37,-0.929,1.65,4.67,3.08,1785100591712.21
-0.134,-0.363,-0.924,2.59,4.88,3.11,1785100591712.499
-0.128,-0.363,-0.918,3.48,4.88,2.93,1785100591712.7932
-0.126,-0.363,-0.915,4.21,4.88,2.93,1785100591713.092
-0.124,-0.367,-0.912,4.73,5.13,2.99,1785100591713.381
-0.125,-0.369,-0.909,4.97,5.04,2.93,1785100591713.681
-0.122,-0.367,-0.908,4.64,4.79,2.78,1785100591713.978
-0.118,-0.367,-0.906,4.15,4.76,3.11,1785100591714.325
-0.118,-0.367,-0.899,3.81,4.46,3.33,1785100591714.6099
-0.115,-0.368,-0.898,3.3,3.97,3.3,1785100591714.901
-0.114,-0.37,-0.9,2.72,3.78,3.27,1785100591715.214
-0.118,-0.371,-0.896,1.83,3.66,3.54,1785100591715.515
-0.118,-0.373,-0.894,1.46,3.45,3.91,1785100591715.801
-0.117,-0.377,-0.891,1.59,3.45,4.06,1785100591716.0881
-0.12,-0.38,-0.891,1.8,3.39,4.21,1785100591716.3782
-0.119,-0.38,-0.888,2.04,3.27,4.76,1785100591716.6619
-0.119,-0.38,-0.886,2.75,3.11,5.25,1785100591716.97
-0.117,-0.384,-0.891,3.75,2.53,5.49,1785100591717.2852
-0.116,-0.384,-0.893,4.24,2.04,5.43,1785100591717.601
-0.111,-0.383,-0.893,4.15,1.83,5.58,1785100591717.9092
-0.113,-0.384,-0.89,4.06,1.5,5.4,1785100591718.179
-0.114,-0.387,-0.892,4.06,1.19,5.01,1785100591718.436
-0.115,-0.388,-0.894,4.12,1.13,4.39,1785100591718.708
-0.114,-0.39,-0.892,4.15,0.98,4.18,1785100591718.963
-0.112,-0.39,-0.89,4.67,0.67,4.15,1785100591719.2139
-0.116,-0.392,-0.89,5.37,0.49,4.18,1785100591719.457
-0.116,-0.395,-0.89,5.98,0.31,4.21,1785100591719.7068
-0.115,-0.394,-0.888,6.2,0.4,4.24,1785100591719.958
-0.116,-0.394,-0.888,6.26,0.21,4.52,1785100591720.203
-0.118,-0.398,-0.891,6.23,0.15,4.52,1785100591720.4531
-0.123,-0.401,-0.895,6.07,0.06,4.21,1785100591720.702
-0.126,-0.402,-0.899,6.01,0.03,4.21,1785100591720.9502
-0.126,-0.403,-0.905,5.77,0.15,4.09,1785100591721.196
-0.128,-0.403,-0.912,5.68,0.31,3.81,1785100591721.444
-0.133,-0.398,-0.914,5.71,0.43,3.42,1785100591721.6958
-0.134,-0.393,-0.913,5.52,0.67,3.11,1785100591721.942
-0.136,-0.388,-0.913,5.49,0.85,2.84,1785100591722.1938
-0.136,-0.386,-0.914,6.2,0.95,2.44,1785100591722.45
-0.133,-0.387,-0.919,6.81,1.25,1.89,1785100591722.7021
-0.132,-0.388,-0.918,7.11,1.8,1.71,1785100591722.956
-0.133,-0.391,-0.914,7.69,2.14,1.98,1785100591723.2102
-0.132,-0.392,-0.914,8.39,2.26,2.41,1785100591723.483
-0.133,-0.39,-0.912,8.85,2.56,3.02,1785100591723.7297
-0.133,-0.39,-0.91,9.03,2.81,3.72,1785100591724.011
-0.134,-0.39,-0.909,8.7,2.78,4.09,1785100591724.246
-0.131,-0.392,-0.911,7.97,2.56,4.09,1785100591724.4758
-0.13,-0.397,-0.908,7.11,2.29,3.91,1785100591724.705
-0.132,-0.401,-0.904,6.01,1.77,3.66,1785100591724.931
-0.13,-0.409,-0.909,5.04,1.28,3.51,1785100591725.163
-0.127,-0.419,-0.916,4.06,1.19,3.63,1785100591725.3872
-0.121,-0.426,-0.922,3.08,1.4,3.69,1785100591725.614
-0.113,-0.43,-0.926,2.99,1.62,3.75,1785100591725.847
-0.109,-0.431,-0.93,3.36,1.68,3.81,1785100591726.0908
-0.106,-0.432,-0.935,3.54,1.8,3.94,1785100591726.337
-0.106,-0.431,-0.934,3.02,1.89,4.06,1785100591726.573
-0.103,-0.432,-0.932,2.41,1.92,3.78,1785100591726.806
-0.098,-0.431,-0.926,1.92,2.14,3.33,1785100591727.0332
-0.093,-0.43,-0.918,1.53,2.23,2.84,1785100591727.272
-0.095,-0.429,-0.912,1.62,2.14,2.53,1785100591727.5122
-0.095,-0.428,-0.911,2.04,2.2,1.98,1785100591727.767
-0.093,-0.426,-0.912,2.5,2.2,1.65,1785100591727.999
-0.091,-0.429,-0.913,2.66,2.29,1.56,1785100591728.232
-0.09,-0.431,-0.911,2.41,2.17,1.25,1785100591728.4731
-0.088,-0.436,-0.917,2.38,2.29,0.89,1785100591728.706
-0.091,-0.441,-0.914,2.26,2.69,0.73,1785100591728.9421
-0.095,-0.444,-0.912,2.23,2.72,0.64,1785100591729.176
-0.097,-0.444,-0.913,2.23,3.02,0.7,1785100591729.423
-0.102,-0.442,-0.91,2.2,3.48,0.46,1785100591729.659
-0.106,-0.44,-0.906,2.01,3.54,0.46,1785100591729.894
-0.106,-0.433,-0.902,1.98,3.75,0.43,1785100591730.122
-0.103,-0.429,-0.898,2.66,3.85,0.21,1785100591730.3638
-0.103,-0.429,-0.899,3.39,3.48,0.0,1785100591730.598
-0.107,-0.425,-0.898,3.69,2.99,-0.18,1785100591730.8271
-0.107,-0.425,-0.898,3.94,2.5,-0.31,1785100591731.101
-0.107,-0.423,-0.899,3.97,1.95,-0.52,1785100591731.336
-0.109,-0.419,-0.896,4.15,1.37,-0.7,1785100591731.585
-0.107,-0.416,-0.897,4.18,1.4,-0.76,1785100591731.814
-0.106,-0.412,-0.898,4.03,1.62,-0.85,1785100591732.039
-0.108,-0.408,-0.895,4.03,1.62,-0.85,1785100591732.258
-0.11,-0.409,-0.893,4.0,1.1,-0.85,1785100591732.471
-0.112,-0.408,-0.89,3.57,0.73,-0.82,1785100591732.69
-0.117,-0.405,-0.885,2.84,0.43,-0.61,1785100591732.9111
-0.12,-0.406,-0.885,2.04,-0.06,-0.49,1785100591733.1252
-0.119,-0.406,-0.883,0.7,-0.4,-0.7,1785100591733.336
-0.118,-0.407,-0.879,-0.18,-0.7,-0.98,1785100591733.5562
-0.119,-0.41,-0.873,-0.37,-0.85,-1.13,1785100591733.776
-0.123,-0.408,-0.868,0.06,-1.4,-1.01,1785100591734.005
-0.123,-0.406,-0.876,0.37,-2.01,-0.76,1785100591734.2239
-0.126,-0.405,-0.878,0.27,-2.41,-0.64,1785100591734.4639
-0.131,-0.4,-0.875,-0.98,-3.02,-0.55,1785100591734.721
-0.129,-0.396,-0.874,-2.59,-3.39,-0.61,1785100591734.9792
-0.125,-0.4,-0.878,-3.66,-3.57,-1.01,1785100591735.241
-0.123,-0.408,-0.88,-4.27,-3.69,-1.5,1785100591735.456
-0.124,-0.414,-0.882,-4.21,-3.75,-1.92,1785100591735.6711
-0.123,-0.415,-0.886,-3.42,-4.09,-1.95,1785100591735.9639
-0.122,-0.415,-0.893,-2.14,-4.79,-1.8,1785100591736.209
-0.123,-0.42,-0.91,-1.13,-5.04,-2.01,1785100591736.4258
-0.125,-0.424,-0.919,-1.56,-4.67,-2.01,1785100591736.654
-0.125,-0.425,-0.915,-2.11,-3.94,-1.34,1785100591736.875
-0.127,-0.429,-0.915,-1.83,-3.23,-0.43,1785100591737.1099
-0.13,-0.433,-0.912,-1.22,-3.02,0.12,1785100591737.333
-0.128,-0.432,-0.907,-0.64,-2.84,0.89,1785100591737.557
-0.13,-0.428,-0.903,-0.12,-2.59,1.37,1785100591737.7688
-0.132,-0.427,-0.904,0.4,-2.47,1.56,1785100591737.98
-0.131,-0.426,-0.905,0.64,-2.44,1.59,1785100591738.194
-0.131,-0.422,-0.906,0.55,-2.38,1.56,1785100591738.402
-0.127,-0.413,-0.905,-0.21,-2.62,1.5,1785100591738.6
-0.124,-0.409,-0.903,-1.25,-2.87,1.25,1785100591738.808
-0.125,-0.409,-0.896,-1.98,-3.02,0.7,1785100591739.018
-0.125,-0.41,-0.891,-2.01,-3.02,0.34,1785100591739.22
-0.126,-0.41,-0.887,-1.71,-3.17,0.24,1785100591739.428
-0.126,-0.41,-0.889,-0.89,-3.27,0.43,1785100591739.6392
-0.125,-0.41,-0.899,0.15,-3.14,0.61,1785100591739.84
-0.125,-0.41,-0.905,0.76,-2.75,0.7,1785100591740.088
-0.127,-0.409,-0.906,1.07,-2.44,1.04,1785100591740.305
-0.127,-0.413,-0.904,1.19,-2.08,1.31,1785100591740.5068
-0.125,-0.416,-0.9,1.56,-1.83,1.59,1785100591740.727
-0.128,-0.42,-0.898,1.95,-1.68,1.68,1785100591740.9312
-0.128,-0.42,-0.898,2.66,-1.43,1.86,1785100591741.1343
-0.129,-0.422,-0.901,2.93,-1.19,2.26,1785100591741.334
-0.129,-0.423,-0.904,3.02,-0.76,2.35,1785100591741.538
-0.129,-0.424,-0.907,3.14,-0.46,2.59,1785100591741.741
-0.129,-0.427,-0.91,3.23,-0.12,2.78,1785100591741.938
-0.129,-0.429,-0.907,3.02,0.03,2.87,1785100591742.1428
-0.128,-0.427,-0.907,2.99,0.06,3.05,1785100591742.35
-0.127,-0.423,-0.902,3.02,0.31,3.17,1785100591742.5488
-0.127,-0.42,-0.897,2.99,0.27,3.42,1785100591742.7551
-0.127,-0.417,-0.894,2.66,0.09,3.48,1785100591742.994
-0.128,-0.418,-0.89,2.44,0.12,3.33,1785100591743.1948
-0.132,-0.417,-0.888,2.26,0.18,2.9,1785100591743.402
-0.13,-0.416,-0.892,2.26,0.09,2.66,1785100591743.6091
-0.127,-0.413,-0.894,2.17,-0.27,2.53,1785100591743.817
-0.127,-0.412,-0.896,1.71,-0.64,2.35,1785100591744.0151
-0.127,-0.411,-0.895,1.19,-0.61,2.2,1785100591744.221
-0.129,-0.413,-0.891,1.28,-0.7,2.11,1785100591744.428
-0.127,-0.414,-0.892,1.74,-0.76,2.01,1785100591744.632
-0.129,-0.413,-0.893,2.29,-0.73,1.68,1785100591744.843
-0.13,-0.414,-0.892,2.78,-0.82,1.59,1785100591745.054
-0.131,-0.415,-0.897,2.62,-1.19,1.28,1785100591745.2559
-0.133,-0.414,-0.897,1.83,-1.4,1.01,1785100591745.458
-0.128,-0.414,-0.9,1.28,-1.62,1.1,1785100591745.666
-0.129,-0.414,-0.899,0.95,-1.56,1.28,1785100591745.871
-0.135,-0.414,-0.895,0.79,-1.5,1.46,1785100591746.081
-0.135,-0.416,-0.892,1.22,-1.37,1.83,1785100591746.282
-0.137,-0.419,-0.891,1.56,-1.25,2.23,1785100591746.485
-0.137,-0.421,-0.889,2.23,-1.28,2.53,1785100591746.6948
-0.134,-0.423,-0.891,2.66,-1.07,2.93,1785100591746.941
-0.137,-0.426,-0.89,2.81,-0.89,3.39,1785100591747.158
-0.141,-0.428,-0.889,2.44,-0.61,3.72,1785100591747.393
-0.144,-0.428,-0.883,2.17,-0.52,4.15,1785100591747.633
-0.147,-0.431,-0.882,2.23,-0.82,4.67,1785100591747.8342
-0.153,-0.438,-0.886,2.2,-1.13,5.07,1785100591748.031
-0.159,-0.443,-0.886,1.68,-1.37,5.16,1785100591748.23
-0.163,-0.444,-0.892,0.61,-1.46,5.28,1785100591748.429
-0.169,-0.443,-0.893,-1.16,-1.59,5.19,1785100591748.613
-0.17,-0.444,-0.89,-2.62,-1.65,4.94,1785100591748.8032
-0.174,-0.453,-0.885,-3.2,-1.62,4.06,1785100591749.197
-0.175,-0.451,-0.883,-1.77,-1.59,3.88,1785100591749.383
-0.19,-0.752,-0.896,36.9,-1.25,-8.91,1785100591749.835
-0.21,-0.732,-0.934,38.82,1.89,-18.37,1785100591750.0369
-0.231,-0.725,-0.949,34.73,4.91,-29.54,1785100591750.654
-0.239,-0.73,-0.925,28.02,6.16,-41.51,1785100591763.9392
-0.222,-0.751,-0.891,22.34,4.91,-53.56,1785100591769.576
-0.2,-0.769,-0.876,19.84,3.48,-64.61,1785100591780.183
-0.207,-0.767,-0.866,17.73,1.92,-75.75,1785100591790.6829
-0.243,-0.738,-0.863,13.37,-0.15,-86.06,1785100591803.977
-0.273,-0.701,-0.868,7.57,-2.41,-94.67,1785100591809.68
-0.273,-0.672,-0.888,0.95,-4.24,-102.21,1785100591820.056
-0.257,-0.651,-0.901,-6.1,-4.52,-108.31,1785100591830.6182
-0.213,-0.636,-0.908,-13.64,-4.43,-112.55,1785100591843.908
-0.179,-0.641,-0.892,-21.52,-4.52,-115.88,1785100591849.5732
-0.183,-0.632,-0.883,-31.53,-5.65,-117.86,1785100591860.4631
-0.183,-0.634,-0.87,-39.03,-5.34,-117.56,1785100591873.636
-0.172,-0.692,-0.851,-40.16,-5.52,-118.05,1785100591879.411
-0.15,-0.666,-0.799,-41.14,-7.9,-117.44,1785100591890.079
-0.087,-0.612,-0.751,-41.35,-11.44,-113.04,1785100591903.3599
-0.027,-0.567,-0.699,-40.74,-15.17,-106.94,1785100591909.175
0.015,-0.53,-0.666,-38.94,-19.26,-101.23,1785100591920.0261
0.041,-0.501,-0.679,-36.74,-23.13,-97.38,1785100591930.868
0.063,-0.466,-0.7,-36.81,-26.22,-93.72,1785100591944.397
0.099,-0.424,-0.709,-39.86,-29.33,-88.69,1785100591950.1008
0.149,-0.378,-0.695,-46.27,-32.81,-82.86,1785100591960.711
0.186,-0.349,-0.658,-54.81,-37.05,-77.27,1785100591973.943
0.211,-0.366,-0.645,-61.68,-40.53,-72.91,1785100591979.871
0.217,-0.416,-0.628,-65.03,-42.51,-70.89,1785100591990.3528
0.214,-0.455,-0.614,-64.18,-45.41,-69.64,1785100592000.975
0.214,-0.455,-0.614,-58.93,-48.83,-66.04,1785100592014.271
0.237,-0.457,-0.637,-50.75,-51.3,-59.88,1785100592020.104
0.265,-0.419,-0.656,-42.24,-54.08,-52.37,1785100592030.708
0.287,-0.367,-0.649,-34.58,-57.1,-45.81,1785100592044.084
0.297,-0.35,-0.678,-31.5,-58.47,-40.77,1785100592049.885
0.289,-0.33,-0.728,-31.5,-58.47,-40.77,1785100592060.451
0.288,-0.315,-0.767,-31.07,-57.37,-35.55,1785100592073.612
0.289,-0.314,-0.774,-31.28,-55.82,-32.14,1785100592079.617
0.298,-0.308,-0.786,-32.35,-55.21,-30.4,1785100592090.083
0.317,-0.3,-0.798,-31.95,-54.96,-27.8,1785100592100.922
0.338,-0.299,-0.783,-29.02,-55.73,-23.59,1785100592114.027
0.347,-0.293,-0.798,-26.09,-57.86,-19.96,1785100592119.9182
0.341,-0.259,-0.818,-25.76,-59.48,-16.21,1785100592130.571
0.328,-0.212,-0.798,-27.89,-60.55,-11.32,1785100592143.8223
0.321,-0.21,-0.794,-30.37,-62.14,-7.45,1785100592149.583
0.315,-0.243,-0.832,-33.69,-62.75,-7.29,1785100592160.3333
0.311,-0.256,-0.855,-38.27,-62.5,-8.88,1785100592170.485
0.314,-0.268,-0.866,-40.59,-62.75,-9.77,1785100592183.764
0.316,-0.275,-0.875,-40.35,-64.24,-9.19,1785100592189.618
0.301,-0.27,-0.85,-37.51,-66.62,-6.9,1785100592199.934
0.266,-0.265,-0.792,-31.13,-70.47,-3.11,1785100592210.5488
0.236,-0.267,-0.779,-22.4,-75.96,1.37,1785100592223.739
0.22,-0.24,-0.841,-14.68,-80.2,5.68,1785100592229.654
0.219,-0.175,-0.912,-9.77,-81.55,10.22,1785100592239.907
0.237,-0.134,-0.988,-7.29,-81.51,12.88,1785100592250.4849
0.245,-0.106,-1.048,-10.25,-80.84,11.63,1785100592264.003
0.232,-0.085,-1.024,-16.57,-80.48,9.86,1785100592269.686
0.214,-0.118,-0.971,-18.89,-81.94,8.76,1785100592280.037
0.189,-0.167,-0.934,-16.33,-84.29,8.42,1785100592290.535
0.149,-0.188,-0.874,-8.76,-86.4,9.61,1785100592303.7861
0.117,-0.203,-0.851,3.88,-89.75,12.57,1785100592310.0942
0.093,-0.213,-0.883,16.85,-92.41,15.23,1785100592320.008
0.072,-0.209,-0.94,24.9,-93.36,17.33,1785100592330.7039
0.062,-0.196,-1.004,26.83,-92.75,18.65,1785100592344.029
0.051,-0.194,-1.038,23.93,-91.49,19.44,1785100592349.856
0.036,-0.199,-1.069,17.46,-91.04,20.6,1785100592360.532
0.014,-0.205,-1.065,8.88,-90.88,22.83,1785100592370.9153
-0.008,-0.219,-1.035,1.59,-91.59,26.28,1785100592384.1619
-0.028,-0.257,-1.033,-1.1,-91.8,28.93,1785100592390.1272
-0.063,-0.299,-1.067,-0.27,-90.61,29.02,1785100592400.417
-0.092,-0.314,-1.115,-1.16,-87.98,27.44,1785100592411.0059
-0.091,-0.349,-1.18,-3.39,-82.92,24.2,1785100592424.4438
-0.101,-0.367,-1.243,-6.96,-76.02,18.65,1785100592430.1792
-0.115,-0.361,-1.251,-10.41,-69.31,15.72,1785100592440.5288
-0.14,-0.335,-1.217,-13.61,-65.52,16.36,1785100592453.739
-0.153,-0.292,-1.152,-17.67,-63.39,19.53,1785100592459.6748
-0.155,-0.273,-1.088,-18.95,-61.74,22.03,1785100592470.098
-0.157,-0.26,-1.07,-15.66,-59.48,21.94,1785100592480.606
-0.169,-0.274,-1.082,-9.09,-55.18,19.26,1785100592494.111
-0.211,-0.272,-1.128,-4.06,-50.39,14.98,1785100592499.9668
-0.217,-0.277,-1.165,-2.56,-45.17,12.21,1785100592510.4438
-0.232,-0.31,-1.184,-2.9,-39.92,8.76,1785100592520.716
-0.255,-0.341,-1.177,-5.55,-35.49,5.16,1785100592534.004
-0.272,-0.353,-1.155,-8.15,-32.41,3.27,1785100592539.787
-0.28,-0.353,-1.104,-8.91,-30.0,3.51,1785100592549.9119
-0.287,-0.329,-1.054,-8.76,-28.93,3.39,1785100592560.538
-0.277,-0.292,-1.016,-10.13,-27.92,1.98,1785100592570.9373
-0.268,-0.26,-1.018,-12.3,-26.76,-0.34,1785100592584.186
-0.274,-0.226,-1.032,-16.05,-25.61,-2.56,1785100592590.101
-0.276,-0.198,-1.027,-21.03,-25.15,-3.94,1785100592600.419
-0.281,-0.195,-1.002,-26.64,-24.29,-5.31,1785100592611.003
-0.279,-0.217,-0.976,-29.51,-22.25,-6.5,1785100592624.255
-0.301,-0.246,-0.958,-26.12,-20.78,-6.9,1785100592630.142
-0.313,-0.254,-0.96,-18.04,-20.69,-5.74,1785100592640.4412
-0.31,-0.238,-0.969,-9.86,-19.32,-4.03,1785100592650.839
-0.317,-0.21,-0.98,-5.22,-17.46,-1.95,1785100592664.122
-0.316,-0.209,-0.974,-4.76,-15.99,-0.43,1785100592669.893
-0.333,-0.231,-0.949,-7.29,-14.89,-1.13,1785100592680.0461
-0.346,-0.25,-0.947,-10.77,-14.25,-2.17,1785100592690.563
-0.342,-0.256,-0.934,-14.56,-13.79,-1.65,1785100592703.794
-0.339,-0.254,-0.928,-17.52,-14.07,-0.73,1785100592710.3628
-0.349,-0.241,-0.925,-19.2,-14.25,-0.31,1785100592720.0398
-0.354,-0.225,-0.915,-19.96,-14.31,0.31,1785100592730.658
-0.353,-0.218,-0.911,-19.23,-14.28,0.64,1785100592744.092
-0.354,-0.212,-0.9,-17.98,-14.56,0.46,1785100592749.847
-0.349,-0.211,-0.888,-15.9,-14.07,-0.31,1785100592760.268
-0.368,-0.209,-0.881,-13.64,-14.01,-1.34,1785100592770.578
-0.366,-0.212,-0.885,-11.26,-14.8,-1.07,1785100592783.823
-0.364,-0.216,-0.875,-8.51,-15.53,-1.4,1785100592789.813
-0.376,-0.205,-0.864,-6.56,-14.28,-1.25,1785100592799.8762
-0.379,-0.196,-0.874,-6.53,-14.07,-0.52,1785100592810.427
-0.377,-0.192,-0.874,-9.31,-15.9,0.15,1785100592820.7778
-0.371,-0.193,-0.869,-11.81,-17.27,0.46,1785100592834.028
-0.37,-0.195,-0.863,-12.39,-16.36,0.03,1785100592839.926
-0.373,-0.197,-0.862,-12.67,-16.14,0.03,1785100592850.228
-0.37,-0.189,-0.854,-13.34,-16.72,0.4,1785100592860.864
-0.365,-0.183,-0.846,-12.27,-17.0,1.13,1785100592874.063
-0.372,-0.189,-0.849,-8.55,-17.15,1.98,1785100592880.0981
-0.382,-0.192,-0.866,-3.57,-17.06,2.32,1785100592890.0781
-0.391,-0.192,-0.894,1.13,-16.91,3.75,1785100592900.5261
-0.379,-0.18,-0.907,2.11,-14.25,5.25,1785100592913.841
-0.382,-0.186,-0.922,-1.68,-12.15,5.95,1785100592919.616
-0.389,-0.192,-0.909,-8.21,-10.77,6.47,1785100592929.7212
-0.393,-0.213,-0.896,-11.35,-7.6,7.29,1785100592940.1973
-0.394,-0.227,-0.903,-11.41,-4.49,7.42,1785100592950.6208
-0.406,-0.207,-0.914,-12.45,-3.48,7.54,1785100592963.943
-0.403,-0.196,-0.937,-13.37,-3.27,8.64,1785100592969.8
-0.398,-0.196,-0.954,-13.46,-1.5,8.88,1785100592979.858
-0.398,-0.203,-0.971,-12.76,1.37,8.03,1785100592990.316
-0.399,-0.216,-0.981,-12.05,3.94,7.05,1785100593000.822
-0.402,-0.216,-0.975,-10.93,5.89,6.41,1785100593014.106
-0.405,-0.216,-0.976,-8.58,7.69,6.44,1785100593019.796
-0.399,-0.222,-0.978,-4.85,9.67,6.84,1785100593029.784
-0.398,-0.237,-0.982,-0.09,11.99,7.02,1785100593040.2888
-0.406,-0.243,-0.987,4.0,14.77,6.47,1785100593050.7231
-0.416,-0.243,-0.984,6.13,17.37,5.95,1785100593064.0562
-0.425,-0.244,-0.996,6.26,20.11,4.97,1785100593069.7888
-0.424,-0.242,-1.004,4.33,22.89,3.75,1785100593079.9219
-0.408,-0.246,-1.01,2.41,26.12,2.41,1785100593090.42
-0.402,-0.244,-1.022,1.04,29.6,0.18,1785100593100.841
-0.405,-0.24,-1.021,0.09,33.48,-1.56,1785100593114.167
-0.405,-0.236,-1.035,0.85,37.48,-3.48,1785100593119.901
-0.396,-0.225,-1.031,2.32,42.09,-4.85,1785100593130.05
-0.396,-0.217,-1.014,4.64,45.47,-5.43,1785100593140.547
-0.393,-0.209,-1.026,7.51,48.52,-5.55,1785100593150.947
-0.385,-0.209,-1.039,10.1,52.58,-5.34,1785100593164.2913
-0.38,-0.219,-1.045,13.52,57.44,-5.98,1785100593170.102
-0.379,-0.225,-1.043,17.76,61.86,-6.68,1785100593180.4832
-0.367,-0.233,-1.032,22.4,66.59,-6.96,1785100593190.832
-0.357,-0.234,-1.001,26.28,70.74,-7.23,1785100593204.104
-0.34,-0.227,-0.984,30.09,73.79,-7.69,1785100593209.93
-0.314,-0.226,-1.007,33.11,76.82,-8.79,1785100593220.413
-0.297,-0.227,-1.038,33.69,81.18,-10.22,1785100593233.6519
-0.289,-0.23,-1.043,32.32,85.45,-10.83,1785100593239.5698
-0.278,-0.235,-1.053,29.97,88.99,-10.8,1785100593250.1572
-0.263,-0.251,-1.041,26.92,92.53,-11.02,1785100593260.842
-0.248,-0.281,-1.033,23.8,95.43,-12.48,1785100593274.008
-0.234,-0.302,-1.032,20.94,97.93,-14.71,1785100593280.068
-0.203,-0.32,-1.035,19.14,101.14,-16.39,1785100593290.557
-0.203,-0.32,-1.035,19.65,104.68,-19.01,1785100593303.816
-0.174,-0.346,-1.026,22.55,106.48,-22.92,1785100593310.1199
-0.162,-0.353,-1.011,27.47,108.37,-24.69,1785100593320.541
-0.165,-0.354,-1.021,32.17,109.74,-24.84,1785100593333.7861
-0.148,-0.383,-1.038,32.17,109.74,-24.84,1785100593339.711
-0.116,-0.386,-1.043,34.97,110.6,-26.15,1785100593350.49
-0.09,-0.383,-1.03,37.81,111.51,-28.02,1785100593363.8242
-0.064,-0.383,-1.014,38.24,111.39,-29.69,1785100593369.725
-0.042,-0.37,-1.004,34.61,111.55,-31.71,1785100593380.497
-0.016,-0.353,-0.998,26.67,111.39,-33.39,1785100593393.87
0.014,-0.347,-0.993,16.88,111.24,-34.76,1785100593399.667
0.042,-0.352,-0.996,6.71,111.06,-36.1,1785100593410.781
0.067,-0.358,-1.013,-3.78,110.97,-37.72,1785100593421.143
0.073,-0.334,-0.991,-16.27,110.08,-40.07,1785100593434.229
0.085,-0.298,-0.943,-26.34,108.43,-39.8,1785100593440.195
0.11,-0.295,-0.907,-31.25,106.14,-37.57,1785100593450.9631
0.136,-0.308,-0.884,-32.14,104.22,-36.62,1785100593464.229
0.151,-0.304,-0.885,-31.31,101.47,-36.68,1785100593470.134
0.166,-0.299,-0.905,-29.45,99.92,-36.41,1785100593480.593
0.173,-0.294,-0.917,-27.92,98.61,-36.41,1785100593493.949
0.182,-0.259,-0.925,-28.32,96.5,-36.74,1785100593500.072
0.196,-0.228,-0.908,-28.69,95.03,-36.01,1785100593510.616
0.207,-0.23,-0.909,-28.29,94.15,-34.94,1785100593523.779
0.228,-0.233,-0.885,-28.99,93.33,-34.76,1785100593529.892
0.239,-0.22,-0.848,-30.98,90.91,-33.88,1785100593540.2087
0.254,-0.209,-0.833,-31.59,88.6,-31.1,1785100593550.886
0.266,-0.193,-0.816,-30.37,86.09,-28.57,1785100593564.186
0.277,-0.186,-0.821,-27.86,83.56,-26.46,1785100593570.05
0.284,-0.171,-0.828,-26.73,81.33,-24.75,1785100593580.585
0.295,-0.154,-0.815,-25.3,78.71,-23.07,1785100593593.781
0.309,-0.146,-0.803,-22.25,75.81,-22.03,1785100593599.523
0.315,-0.132,-0.813,-20.23,72.79,-21.0,1785100593610.4583
0.325,-0.124,-0.831,-20.26,70.38,-19.35,1785100593620.8892
0.336,-0.105,-0.837,-22.83,67.48,-17.67,1785100593634.227
0.342,-0.089,-0.835,-25.73,65.31,-15.84,1785100593640.72
0.348,-0.093,-0.816,-27.95,63.3,-13.82,1785100593650.656
0.356,-0.094,-0.807,-30.18,60.49,-12.05,1785100593663.927
0.359,-0.087,-0.809,-32.17,58.11,-10.28,1785100593669.8618
0.358,-0.083,-0.814,-32.99,55.94,-8.36,1785100593680.3699
0.36,-0.078,-0.826,-34.03,53.41,-5.74,1785100593690.858
0.364,-0.077,-0.803,-34.76,51.12,-3.27,1785100593704.124
0.378,-0.069,-0.794,-35.43,47.91,-1.34,1785100593710.5059
0.392,-0.068,-0.793,-37.48,45.2,0.98,1785100593720.261
0.403,-0.076,-0.79,-39.92,43.09,2.08,1785100593730.831
0.402,-0.081,-0.782,-42.3,40.56,2.96,1785100593744.18
0.4,-0.09,-0.775,-41.93,38.09,4.0,1785100593750.009
0.396,-0.102,-0.78,-39.61,36.13,4.18,1785100593760.3918
0.389,-0.109,-0.785,-37.48,33.69,4.94,1785100593770.804
0.398,-0.111,-0.787,-36.01,30.46,6.2,1785100593784.1147
0.404,-0.108,-0.793,-34.79,27.59,6.62,1785100593790.017
0.411,-0.104,-0.801,-34.49,25.27,6.99,1785100593800.308
0.424,-0.099,-0.803,-34.24,23.35,7.42,1785100593810.942
0.436,-0.096,-0.799,-33.27,21.52,7.78,1785100593824.086
0.448,-0.096,-0.794,-31.34,19.38,8.12,1785100593830.1592
0.454,-0.096,-0.788,-28.08,17.3,8.51,1785100593840.283
0.459,-0.095,-0.79,-24.14,15.23,9.25,1785100593850.86
0.477,-0.086,-0.794,-20.54,14.04,8.91,1785100593864.211
0.479,-0.081,-0.8,-18.31,12.91,8.82,1785100593870.103
0.483,-0.082,-0.803,-16.91,12.45,8.85,1785100593880.38
0.485,-0.088,-0.803,-14.98,11.96,8.42,1785100593890.722
0.488,-0.096,-0.788,-11.23,10.5,8.03,1785100593904.072
0.495,-0.109,-0.786,-6.5,8.3,7.72,1785100593910.239
0.493,-0.116,-0.788,-2.75,6.71,6.99,1785100593919.876
0.494,-0.112,-0.801,0.98,5.07,6.38,1785100593930.291
0.505,-0.094,-0.802,4.85,3.51,6.65,1785100593940.7192
0.517,-0.078,-0.796,7.6,1.56,7.02,1785100593953.665
0.53,-0.061,-0.799,9.09,-0.73,6.93,1785100593959.241
0.534,-0.051,-0.819,9.16,-1.77,6.5,1785100593969.476
0.528,-0.043,-0.855,7.57,-1.43,6.41,1785100593980.0151
0.521,-0.041,-0.879,4.49,-0.67,6.68,1785100593990.349
0.52,-0.046,-0.879,0.64,-0.09,7.17,1785100594000.728
0.527,-0.051,-0.864,-2.32,-0.03,8.27,1785100594014.0957
0.549,-0.055,-0.837,-4.33,-0.76,9.55,1785100594019.614
0.561,-0.062,-0.824,-5.77,-1.43,9.92,1785100594029.679
0.568,-0.068,-0.815,-5.83,-1.92,9.55,1785100594040.041
0.569,-0.079,-0.819,-4.52,-2.59,9.16,1785100594050.452
0.559,-0.091,-0.824,-3.23,-2.75,8.18,1785100594060.9282
0.547,-0.113,-0.837,-1.65,-2.9,7.11,1785100594074.035
0.535,-0.127,-0.849,-0.21,-2.66,5.95,1785100594079.72
0.53,-0.134,-0.849,1.89,-2.62,5.74,1785100594089.725
0.535,-0.131,-0.847,4.15,-2.99,6.13,1785100594100.1091
0.539,-0.124,-0.843,5.74,-3.27,6.2,1785100594110.5708
0.54,-0.114,-0.846,6.9,-3.6,6.38,1785100594120.8489
0.545,-0.101,-0.84,7.23,-3.85,6.23,1785100594134.123
0.55,-0.095,-0.836,6.78,-4.52,5.52,1785100594139.741
0.551,-0.084,-0.841,5.34,-4.7,4.61,1785100594149.7842
0.549,-0.076,-0.845,4.39,-4.79,3.97,1785100594160.2812
0.55,-0.067,-0.849,3.54,-4.85,3.66,1785100594170.517
0.547,-0.067,-0.845,1.8,-4.76,3.45,1785100594180.907
0.545,-0.073,-0.845,-0.67,-4.91,3.23,1785100594194.3171
0.536,-0.085,-0.856,-3.23,-3.97,3.2,1785100594199.806
0.525,-0.097,-0.881,-5.34,-2.59,3.36,1785100594210.128
0.516,-0.093,-0.898,-6.96,-1.53,4.15,1785100594220.2659
0.515,-0.093,-0.893,-7.08,-0.82,5.46,1785100594230.628
0.522,-0.095,-0.866,-7.05,-0.64,6.44,1785100594243.9429
0.534,-0.099,-0.829,-7.48,-1.43,6.41,1785100594249.7568
0.536,-0.114,-0.811,-7.14,-2.26,5.86,1785100594259.531
0.533,-0.126,-0.799,-6.13,-2.44,4.82,1785100594269.886
0.531,-0.136,-0.778,-3.23,-3.45,3.63,1785100594280.3252
0.534,-0.141,-0.772,1.04,-5.58,2.87,1785100594290.6501
0.529,-0.135,-0.793,5.4,-7.35,2.35,1785100594303.9329
0.513,-0.126,-0.839,9.13,-8.18,1.71,1785100594309.6562
0.503,-0.118,-0.892,11.6,-7.48,1.25,1785100594319.6821
0.492,-0.11,-0.909,13.06,-6.01,0.89,1785100594330.1902
0.487,-0.102,-0.906,13.79,-5.58,0.95,1785100594340.645
0.496,-0.084,-0.879,13.58,-5.58,1.86,1785100594353.876
0.502,-0.09,-0.842,12.45,-6.07,2.5,1785100594359.926
0.505,-0.101,-0.814,10.9,-6.74,1.89,1785100594369.835
0.506,-0.102,-0.777,10.71,-8.06,1.22,1785100594380.285
0.509,-0.107,-0.782,11.96,-10.41,1.56,1785100594390.9277
0.514,-0.109,-0.798,12.82,-11.38,1.4,1785100594404.1392
0.501,-0.12,-0.807,13.55,-12.42,0.64,1785100594410.532
0.49,-0.13,-0.846,13.61,-13.37,0.0,1785100594420.309
0.49,-0.132,-0.882,12.91,-12.76,-1.22,1785100594430.6948
0.483,-0.133,-0.883,13.12,-12.05,-1.98,1785100594444.2283
0.475,-0.132,-0.86,14.95,-11.96,-1.62,1785100594450.0322
0.476,-0.116,-0.811,16.3,-13.15,-0.7,1785100594460.4358
0.474,-0.109,-0.74,17.94,-17.33,0.85,1785100594470.8381
0.472,-0.127,-0.699,20.54,-22.55,1.37,1785100594483.91
0.476,-0.143,-0.712,21.73,-26.03,0.09,1785100594490.1619
0.475,-0.15,-0.752,20.23,-27.53,-1.95,1785100594500.312
0.463,-0.151,-0.78,17.46,-28.44,-3.85,1785100594510.905
0.447,-0.15,-0.776,15.44,-31.07,-4.61,1785100594524.123
0.443,-0.149,-0.811,14.89,-34.24,-4.55,1785100594530.232
0.446,-0.144,-0.862,13.89,-34.64,-4.46,1785100594540.301
0.438,-0.134,-0.885,12.7,-33.94,-4.15,1785100594550.878
0.431,-0.136,-0.903,12.67,-33.3,-3.3,1785100594564.148
0.418,-0.135,-0.852,13.28,-33.66,-2.96,1785100594570.0203
0.418,-0.135,-0.852,15.44,-37.75,-2.44,1785100594580.291
0.411,-0.159,-0.795,14.28,-40.71,-3.14,1785100594590.718
0.423,-0.188,-0.806,7.05,-41.05,-5.22,1785100594604.0261
0.419,-0.169,-0.828,0.12,-40.8,-4.61,1785100594610.381
0.412,-0.154,-0.875,-6.44,-39.61,-3.11,1785100594620.0251
0.409,-0.154,-0.909,-6.44,-39.61,-3.11,1785100594630.5542
0.401,-0.159,-0.886,-11.6,-39.31,-3.48,1785100594643.91
0.393,-0.164,-0.83,-11.63,-41.54,-4.18,1785100594649.673
0.391,-0.18,-0.813,-5.07,-44.86,-4.39,1785100594660.2932
0.382,-0.193,-0.817,5.65,-46.54,-5.46,1785100594670.333
0.365,-0.186,-0.821,18.68,-47.58,-6.16,1785100594680.907
0.356,-0.168,-0.859,31.19,-48.55,-5.58,1785100594694.283
0.345,-0.138,-0.871,37.42,-49.71,-5.52,1785100594700.0461
0.348,-0.126,-0.852,37.54,-52.61,-5.01,1785100594710.431
0.355,-0.186,-0.843,34.97,-55.51,-5.65,1785100594720.875
0.348,-0.259,-0.826,29.48,-57.1,-8.7,1785100594734.206
0.33,-0.29,-0.81,24.26,-59.08,-10.8,1785100594740.1272
0.312,-0.249,-0.839,19.47,-62.2,-8.82,1785100594750.4329
0.299,-0.134,-0.898,12.67,-64.09,-3.33,1785100594761.149
0.303,-0.055,-0.928,7.08,-63.36,2.35,1785100594774.348
0.304,-0.049,-0.917,2.72,-64.21,4.36,1785100594780.137
0.294,-0.09,-0.888,-0.73,-67.42,2.59,1785100594790.1968
0.273,-0.136,-0.836,-1.04,-69.31,-2.11,1785100594800.6138
0.235,-0.208,-0.783,6.5,-71.17,-5.43,1785100594813.983
0.201,-0.314,-0.777,22.43,-71.81,-8.61,1785100594819.785
0.175,-0.343,-0.818,37.26,-74.59,-10.71,1785100594830.147
0.161,-0.306,-0.878,45.93,-79.62,-6.56,1785100594840.643
0.164,-0.254,-0.934,47.46,-82.19,0.03,1785100594853.939
0.159,-0.212,-0.969,40.77,-83.35,4.33,1785100594860.055
0.144,-0.183,-0.983,27.65,-84.9,5.19,1785100594870.1
0.128,-0.169,-0.99,11.51,-85.24,3.54,1785100594880.658
0.122,-0.204,-0.975,-1.19,-84.05,-0.15,1785100594894.1428
0.1,-0.251,-0.979,-5.52,-83.04,-5.34,1785100594899.786
0.077,-0.267,-0.971,-2.53,-82.09,-7.48,1785100594910.2158
0.064,-0.286,-0.948,6.9,-81.67,-6.38,1785100594920.305
0.058,-0.296,-0.947,18.62,-81.36,-4.24,1785100594930.96
0.05,-0.284,-0.941,28.23,-81.45,-0.89,1785100594944.376
0.038,-0.26,-0.931,33.63,-82.43,3.08,1785100594950.086
0.035,-0.239,-0.948,36.1,-83.19,6.04,1785100594960.804
0.029,-0.206,-0.977,35.37,-82.55,7.51,1785100594970.857
0.022,-0.194,-0.985,32.69,-81.64,7.29,1785100594984.156
0.014,-0.204,-1.009,27.89,-81.12,4.7,1785100594990.0168
-0.002,-0.218,-1.05,20.91,-79.29,0.95,1785100595000.449
-0.016,-0.22,-1.061,13.12,-76.3,-1.22,1785100595010.952
-0.023,-0.228,-1.06,8.36,-74.04,-1.68,1785100595024.193
-0.026,-0.246,-1.057,7.54,-71.75,-1.98,1785100595030.033
-0.035,-0.256,-1.043,9.7,-69.03,-1.92,1785100595040.125
-0.052,-0.275,-1.045,14.74,-66.47,-1.07,1785100595050.5972
-0.071,-0.285,-1.06,18.25,-63.54,0.43,1785100595063.926
-0.079,-0.291,-1.082,19.01,-60.0,2.23,1785100595069.8262
-0.082,-0.288,-1.101,17.79,-56.46,3.85,1785100595080.095
-0.085,-0.294,-1.117,15.11,-52.92,4.21,1785100595090.57
-0.092,-0.298,-1.116,10.35,-48.43,2.81,1785100595103.851
-0.1,-0.308,-1.118,4.97,-45.96,2.11,1785100595110.198
-0.102,-0.309,-1.102,0.92,-43.34,2.5,1785100595119.812
-0.115,-0.299,-1.073,-1.56,-39.19,3.42,1785100595130.369
-0.118,-0.292,-1.057,-1.62,-34.79,4.85,1785100595140.7922
-0.117,-0.291,-1.057,-0.09,-32.47,5.07,1785100595154.031
-0.119,-0.288,-1.068,0.7,-31.13,4.36,1785100595160.213
-0.12,-0.279,-1.071,0.27,-29.08,4.0,1785100595169.966
-0.121,-0.267,-1.064,0.12,-26.06,3.85,1785100595180.4612
-0.124,-0.264,-1.057,0.89,-23.13,3.63,1785100595190.9448
-0.127,-0.27,-1.044,1.8,-21.03,3.48,1785100595204.136
-0.135,-0.28,-1.028,3.02,-19.5,3.48,1785100595210.245
-0.142,-0.295,-1.029,4.85,-17.98,3.51,1785100595220.0989
-0.147,-0.297,-1.026,6.29,-16.24,3.69,1785100595230.5852
-0.151,-0.29,-1.021,7.17,-14.71,4.0,1785100595243.9028
-0.147,-0.29,-1.024,6.5,-13.15,3.94,1785100595249.8
-0.142,-0.297,-1.018,4.24,-10.93,2.81,1785100595259.754
-0.147,-0.301,-1.002,2.69,-9.28,2.32,1785100595270.134
-0.147,-0.302,-0.996,2.72,-8.12,2.14,1785100595280.498
-0.146,-0.294,-0.99,3.11,-7.11,2.17,1785100595290.8682
-0.142,-0.285,-0.989,2.75,-6.35,2.41,1785100595304.174
-0.143,-0.284,-0.994,2.14,-4.97,2.32,1785100595309.825
-0.145,-0.293,-0.997,1.07,-3.3,1.77,1785100595319.767
-0.151,-0.293,-0.984,-1.04,-1.56,1.4,1785100595330.2268
-0.152,-0.295,-0.972,-2.17,-0.12,1.74,1785100595340.548
-0.152,-0.307,-0.967,-1.28,1.07,1.77,1785100595350.8533
-0.156,-0.312,-0.968,-0.52,2.23,1.46,1785100595364.1282
-0.153,-0.303,-0.958,-0.67,3.33,2.32,1785100595369.6719
-0.154,-0.296,-0.95,-0.09,3.91,3.66,1785100595379.893
-0.145,-0.295,-0.965,1.43,4.03,3.51,1785100595390.264
-0.148,-0.29,-0.969,1.62,5.01,3.2,1785100595400.6602
-0.154,-0.29,-0.963,0.61,6.26,3.6,1785100595414.012
-0.157,-0.289,-0.946,-0.43,6.32,3.78,1785100595419.554
-0.154,-0.284,-0.942,-0.09,5.89,3.2,1785100595429.634
-0.146,-0.295,-0.946,1.92,6.62,1.77,1785100595439.949
-0.148,-0.302,-0.946,2.08,7.35,1.19,1785100595450.33
-0.157,-0.295,-0.935,0.09,6.84,2.01,1785100595460.806
-0.155,-0.295,-0.927,-0.92,6.38,3.23,1785100595473.938
-0.151,-0.301,-0.924,-1.07,6.16,3.66,1785100595479.776
-0.157,-0.301,-0.909,-1.28,6.04,3.66,1785100595489.638
-0.17,-0.294,-0.88,-0.76,4.46,3.63,1785100595500.031
-0.141,-0.301,-0.935,1.01,2.26,1.8,1785100595510.676
-0.148,-0.311,-0.947,0.73,2.56,-1.01,1785100595520.7988
-0.163,-0.312,-0.938,-1.65,1.77,-1.04,1785100595534.119
-0.16,-0.313,-0.939,-2.96,0.98,0.31,1785100595539.7188
-0.154,-0.309,-0.933,-2.44,0.64,0.85,1785100595549.7588
-0.155,-0.307,-0.931,-0.7,0.24,0.67,1785100595560.462
-0.156,-0.305,-0.931,0.21,-0.12,0.46,1785100595570.4583
-0.156,-0.304,-0.934,0.09,-0.4,0.12,1785100595580.9001
-0.162,-0.308,-0.928,-0.43,-0.34,-0.06,1785100595594.2412
-0.164,-0.31,-0.923,-0.27,-0.27,-0.09,1785100595599.7598
-0.165,-0.31,-0.922,0.85,-0.12,-0.21,1785100595610.116
-0.163,-0.306,-0.926,1.56,-0.58,-0.4,1785100595620.1758
-0.163,-0.307,-0.937,1.95,-0.76,-0.49,1785100595630.463
-0.165,-0.31,-0.932,1.98,0.0,-0.52,1785100595640.958
-0.167,-0.31,-0.931,1.68,-0.37,-0.73,1785100595654.239
-0.162,-0.313,-0.939,2.38,0.03,-1.25,1785100595660.296
-0.16,-0.314,-0.95,3.2,0.31,-2.23,1785100595669.843
-0.151,-0.305,-0.955,3.2,-0.09,-2.66,1785100595680.285
-0.145,-0.291,-0.948,2.44,0.15,-2.84,1785100595690.6428
-0.145,-0.288,-0.936,2.32,0.92,-2.96,1785100595700.9822
-0.147,-0.293,-0.932,3.54,0.61,-3.42,1785100595714.3098
-0.141,-0.3,-0.946,5.01,-0.24,-3.66,1785100595719.867
-0.141,-0.298,-0.944,4.94,-0.15,-3.94,1785100595729.971
-0.143,-0.294,-0.937,4.27,0.98,-3.88,1785100595740.318
-0.14,-0.298,-0.942,4.15,1.98,-3.88,1785100595750.7021
-0.136,-0.299,-0.943,3.69,1.92,-3.75,1785100595764.1567
-0.132,-0.301,-0.952,3.27,1.37,-3.3,1785100595769.64
-0.13,-0.301,-0.957,2.81,1.34,-3.08,1785100595779.688
-0.133,-0.291,-0.953,2.01,1.89,-3.3,1785100595790.0522
-0.13,-0.293,-0.956,2.47,3.72,-3.6,1785100595800.4321
-0.133,-0.296,-0.951,3.08,4.67,-3.54,1785100595810.986
-0.135,-0.293,-0.933,3.6,4.39,-2.56,1785100595823.9932
-0.132,-0.291,-0.929,5.13,4.18,-1.62,1785100595829.7349
-0.131,-0.289,-0.937,6.74,4.61,-1.25,1785100595839.6921
-0.131,-0.292,-0.946,6.87,4.67,-0.58,1785100595850.0427
-0.131,-0.301,-0.946,5.83,4.58,-0.12,1785100595860.568
-0.131,-0.301,-0.946,4.82,4.18,0.24,1785100595870.806
-0.137,-0.311,-0.944,3.63,3.72,0.37,1785100595884.151
-0.14,-0.312,-0.947,2.26,3.3,0.43,1785100595889.749
-0.14,-0.306,-0.948,1.46,3.11,0.18,1785100595899.7441
-0.14,-0.308,-0.949,1.46,3.11,0.18,1785100595910.292
-0.143,-0.307,-0.946,0.52,3.14,-0.37,1785100595920.512
-0.145,-0.305,-0.942,-0.64,2.78,-0.4,1785100595930.916
-0.145,-0.305,-0.938,-1.62,2.23,-0.4,1785100595944.3682
-0.147,-0.304,-0.942,-1.92,1.86,-0.98,1785100595951.8652
-0.141,-0.305,-0.951,-2.38,1.86,-2.08,1785100595961.3418
-0.139,-0.304,-0.949,-3.02,1.71,-2.75,1785100595970.133
-0.138,-0.297,-0.945,-3.75,1.37,-2.87,1785100595980.621
-0.138,-0.293,-0.933,-3.42,1.1,-2.62,1785100595991.034
-0.134,-0.292,-0.936,-1.77,0.92,-2.47,1785100596004.241
-0.134,-0.293,-0.94,-0.12,0.89,-2.72,1785100596010.159
-0.136,-0.298,-0.941,0.67,0.89,-2.56,1785100596019.8618
-0.141,-0.304,-0.937,0.67,1.22,-2.04,1785100596030.297
-0.143,-0.311,-0.931,0.37,1.43,-1.56,1785100596040.6233
-0.143,-0.314,-0.93,0.09,1.59,-1.25,1785100596053.931
-0.142,-0.317,-0.934,-0.12,1.68,-1.13,1785100596059.697
-0.142,-0.311,-0.94,-0.67,1.8,-1.13,1785100596069.591
-0.139,-0.307,-0.936,-1.16,2.11,-0.73,1785100596080.003
-0.135,-0.305,-0.931,-1.1,2.35,-0.58,1785100596090.428
-0.138,-0.3,-0.929,-0.43,2.29,-0.58,1785100596100.7231
-0.136,-0.303,-0.938,0.89,2.29,-0.73,1785100596114.113
-0.137,-0.307,-0.936,1.86,2.41,-1.01,1785100596119.616
-0.14,-0.309,-0.93,2.17,2.87,-1.1,1785100596129.666
-0.142,-0.309,-0.925,2.78,2.93,-0.73,1785100596140.028
-0.139,-0.31,-0.93,3.57,3.02,-0.52,1785100596150.412
-0.138,-0.311,-0.933,3.85,3.27,-0.43,1785100596160.9229
-0.141,-0.314,-0.928,3.81,3.39,-0.18,1785100596174.221
-0.14,-0.316,-0.924,3.85,3.66,0.06,1785100596179.8643
-0.139,-0.319,-0.925,4.3,3.66,0.52,1785100596189.697
-0.142,-0.323,-0.926,4.61,3.81,0.64,1785100596200.13
-0.14,-0.32,-0.926,4.55,3.94,0.7,1785100596210.5652
-0.137,-0.318,-0.927,4.43,3.75,0.92,1785100596220.9238
-0.136,-0.315,-0.925,4.3,3.51,1.1,1785100596234.108
-0.131,-0.312,-0.919,4.52,2.81,1.31,1785100596239.712
-0.129,-0.315,-0.919,5.34,2.38,1.22,1785100596249.822
-0.13,-0.317,-0.916,5.89,2.04,1.13,1785100596260.234
-0.129,-0.317,-0.921,6.65,1.62,1.22,1785100596270.528
-0.127,-0.317,-0.925,7.17,1.25,1.04,1785100596280.988
-0.124,-0.317,-0.922,7.17,1.07,0.79,1785100596294.283
-0.12,-0.323,-0.92,6.74,0.89,0.49,1785100596299.848
-0.119,-0.327,-0.917,6.32,0.76,0.4,1785100596310.03
-0.123,-0.33,-0.914,6.07,0.67,0.58,1785100596320.248
-0.121,-0.329,-0.916,5.68,0.7,0.76,1785100596330.624
-0.119,-0.322,-0.914,4.91,0.76,1.04,1785100596341.0208
-0.115,-0.314,-0.91,4.39,0.4,1.31,1785100596354.2312
-0.109,-0.31,-0.915,4.67,0.0,0.95,1785100596359.9849
-0.109,-0.313,-0.922,4.94,-0.21,0.0,1785100596369.93
-0.113,-0.315,-0.928,5.13,-0.15,-0.12,1785100596380.315
-0.111,-0.312,-0.927,5.86,-0.12,0.52,1785100596390.6729
-0.11,-0.313,-0.929,7.42,-0.34,1.37,1785100596403.929
-0.114,-0.319,-0.934,8.7,-0.46,1.59,1785100596409.656
-0.118,-0.321,-0.934,9.0,-0.61,1.53,1785100596419.5872
-0.122,-0.316,-0.932,8.97,-1.01,1.83,1785100596430.021
-0.12,-0.314,-0.939,9.16,-1.71,2.29,1785100596440.459
-0.12,-0.31,-0.946,8.42,-2.62,2.38,1785100596450.672
-0.122,-0.308,-0.949,6.35,-3.88,2.29,1785100596464.142
-0.118,-0.315,-0.958,5.1,-5.07,1.37,1785100596469.664
-0.115,-0.323,-0.963,5.07,-5.22,0.82,1785100596479.787
-0.115,-0.327,-0.979,5.52,-4.09,1.8,1785100596490.1602
-0.124,-0.332,-0.931,5.28,-2.69,3.33,1785100596500.4348
-0.117,-0.355,-0.945,7.63,-3.27,2.35,1785100596511.0168
-0.124,-0.365,-0.975,11.35,-2.29,0.46,1785100596524.193
-0.122,-0.343,-0.973,9.74,-2.26,1.04,1785100596529.9148
-0.113,-0.339,-0.975,5.1,-1.65,0.98,1785100596539.85
-0.12,-0.344,-0.954,0.67,-0.43,0.12,1785100596550.256
-0.12,-0.342,-0.946,-1.16,-0.52,-0.46,1785100596560.697
-0.116,-0.344,-0.953,-1.37,0.21,-0.98,1785100596570.961
-0.119,-0.339,-0.941,-1.59,1.28,-1.07,1785100596584.252
-0.119,-0.339,-0.939,-1.4,1.74,-1.07,1785100596589.97
-0.121,-0.333,-0.931,-1.22,2.23,-0.98,1785100596599.947
-0.122,-0.331,-0.931,-0.89,2.87,-1.22,1785100596610.442
-0.122,-0.333,-0.927,-0.31,3.66,-1.25,1785100596620.666
-0.121,-0.338,-0.925,0.4,4.39,-1.04,1785100596633.909
-0.125,-0.342,-0.913,1.07,4.91,-0.73,1785100596639.553
-0.128,-0.346,-0.908,1.8,5.28,0.0,1785100596649.617
-0.129,-0.351,-0.907,2.35,5.55,0.92,1785100596660.3242
-0.133,-0.355,-0.909,2.41,5.86,1.8,1785100596670.3901
-0.134,-0.359,-0.911,2.53,5.95,2.59,1785100596680.8162
