ax,ay,az,gx,gy,gz,timestamp_ms
-0.137,-0.309,-0.913,4.7,2.08,1.04,1785100829146.92
-0.133,-0.306,-0.912,5.01,1.53,1.22,1785100829147.231
-0.135,-0.301,-0.913,5.28,0.7,0.98,1785100829147.537
-0.135,-0.304,-0.926,5.31,-0.09,0.4,1785100829147.833
-0.139,-0.307,-0.93,4.27,-0.37,-0.15,1785100829148.12
-0.141,-0.31,-0.929,3.11,-0.55,-0.21,1785100829148.412
-0.14,-0.308,-0.924,2.35,-0.85,-0.34,1785100829148.701
-0.142,-0.309,-0.921,2.38,-1.25,-0.27,1785100829148.991
-0.144,-0.309,-0.926,2.5,-1.62,-0.15,1785100829149.2788
-0.142,-0.305,-0.936,2.26,-2.04,-0.12,1785100829149.546
-0.138,-0.301,-0.944,1.98,-2.26,-0.21,1785100829149.803
-0.137,-0.301,-0.945,1.95,-2.17,-0.21,1785100829150.06
-0.138,-0.304,-0.948,2.11,-2.41,-0.34,1785100829150.327
-0.136,-0.306,-0.952,2.2,-2.41,-0.46,1785100829150.5898
-0.136,-0.307,-0.952,2.26,-2.26,-0.27,1785100829150.8591
-0.142,-0.313,-0.951,2.5,-2.08,0.12,1785100829151.124
-0.145,-0.315,-0.948,2.75,-1.77,0.46,1785100829151.384
-0.142,-0.313,-0.95,2.87,-1.68,0.98,1785100829151.635
-0.137,-0.315,-0.954,2.66,-1.53,1.31,1785100829151.8818
-0.134,-0.318,-0.954,2.2,-1.5,1.31,1785100829152.1357
-0.133,-0.32,-0.955,1.62,-1.62,1.43,1785100829152.3882
-0.132,-0.322,-0.957,1.28,-1.74,1.4,1785100829152.639
-0.134,-0.319,-0.955,0.95,-2.17,1.19,1785100829152.885
-0.127,-0.32,-0.96,0.64,-2.41,0.61,1785100829153.1401
-0.123,-0.316,-0.965,0.06,-1.98,-0.12,1785100829153.391
-0.125,-0.316,-0.957,-0.43,-1.37,-0.31,1785100829153.634
-0.126,-0.317,-0.951,-0.27,-0.89,-0.12,1785100829153.881
-0.123,-0.32,-0.942,0.64,-0.52,0.37,1785100829154.1318
-0.12,-0.323,-0.942,1.59,-0.12,0.92,1785100829154.3801
-0.122,-0.324,-0.94,1.92,0.34,1.31,1785100829154.624
-0.124,-0.326,-0.937,1.98,0.67,1.53,1785100829154.884
-0.123,-0.326,-0.935,1.77,1.22,1.89,1785100829155.155
-0.124,-0.327,-0.933,1.74,1.86,2.14,1785100829155.4001
-0.125,-0.326,-0.93,1.77,2.26,2.35,1785100829155.652
-0.124,-0.326,-0.926,1.86,2.5,2.66,1785100829155.904
-0.124,-0.325,-0.925,1.83,2.53,2.84,1785100829156.1558
-0.126,-0.324,-0.928,1.74,2.72,2.87,1785100829156.406
-0.127,-0.327,-0.925,1.98,2.9,2.66,1785100829156.656
-0.129,-0.329,-0.93,2.41,2.96,2.23,1785100829156.908
-0.127,-0.329,-0.931,2.66,3.23,1.83,1785100829157.1572
-0.128,-0.329,-0.926,3.33,3.39,1.74,1785100829157.388
-0.129,-0.329,-0.923,4.24,3.36,1.56,1785100829157.618
-0.129,-0.329,-0.921,5.19,3.02,1.53,1785100829157.849
-0.131,-0.325,-0.916,5.46,2.62,1.31,1785100829158.075
-0.128,-0.322,-0.919,5.37,2.17,1.25,1785100829158.305
-0.131,-0.324,-0.919,4.79,1.95,1.25,1785100829158.5369
-0.133,-0.327,-0.915,4.21,1.89,1.19,1785100829158.7642
-0.135,-0.327,-0.914,3.66,1.77,0.79,1785100829158.9949
-0.138,-0.326,-0.911,3.33,1.77,0.49,1785100829159.262
-0.14,-0.325,-0.912,3.23,1.5,0.34,1785100829159.523
-0.138,-0.324,-0.915,3.2,1.28,0.31,1785100829159.8
-0.138,-0.323,-0.92,3.66,1.28,0.21,1785100829160.059
-0.138,-0.321,-0.923,4.09,1.37,-0.03,1785100829160.332
-0.14,-0.324,-0.922,4.61,1.1,0.09,1785100829160.5818
-0.145,-0.324,-0.922,5.04,0.67,-0.15,1785100829160.8123
-0.145,-0.327,-0.926,4.91,0.21,-0.46,1785100829161.0408
-0.144,-0.326,-0.931,4.43,0.31,-0.24,1785100829161.273
-0.143,-0.326,-0.933,4.18,0.34,0.03,1785100829161.498
-0.143,-0.322,-0.935,4.18,0.43,0.55,1785100829161.727
-0.14,-0.317,-0.936,4.46,0.64,1.34,1785100829161.975
-0.141,-0.312,-0.939,4.91,1.01,1.83,1785100829162.205
-0.14,-0.313,-0.938,4.88,1.5,2.44,1785100829162.44
-0.14,-0.318,-0.941,4.73,1.89,2.78,1785100829162.6748
-0.141,-0.325,-0.943,4.88,2.53,3.27,1785100829162.908
-0.141,-0.328,-0.945,5.55,2.93,3.81,1785100829163.1301
-0.135,-0.334,-0.947,6.32,3.36,4.18,1785100829163.3542
-0.134,-0.337,-0.939,6.59,3.54,4.61,1785100829163.568
-0.131,-0.339,-0.942,6.84,3.3,4.91,1785100829163.778
-0.13,-0.34,-0.952,6.65,3.23,5.13,1785100829163.9932
-0.128,-0.338,-0.953,5.22,3.23,5.74,1785100829164.21
-0.124,-0.339,-0.955,3.69,3.2,6.23,1785100829164.428
-0.12,-0.339,-0.958,2.38,3.36,6.23,1785100829164.64
-0.119,-0.345,-0.956,1.43,3.63,5.98,1785100829164.8628
-0.121,-0.354,-0.95,0.92,4.09,5.55,1785100829165.083
-0.122,-0.361,-0.946,1.13,4.43,5.04,1785100829165.2952
-0.119,-0.363,-0.945,2.23,5.07,4.76,1785100829165.516
-0.114,-0.362,-0.944,3.02,5.83,4.46,1785100829165.74
-0.116,-0.358,-0.942,3.36,6.44,4.21,1785100829165.958
-0.114,-0.355,-0.939,3.94,7.35,4.27,1785100829166.182
-0.114,-0.354,-0.934,4.36,8.58,4.36,1785100829166.404
-0.112,-0.353,-0.929,4.76,9.55,4.64,1785100829166.624
-0.113,-0.358,-0.928,5.34,10.68,4.52,1785100829166.84
-0.116,-0.36,-0.922,5.37,12.05,4.39,1785100829167.062
-0.115,-0.359,-0.917,5.46,13.28,5.01,1785100829167.289
-0.117,-0.361,-0.909,5.49,14.28,5.52,1785100829167.5032
-0.115,-0.364,-0.905,5.83,15.02,5.62,1785100829167.725
-0.113,-0.361,-0.905,5.98,15.35,5.89,1785100829167.9539
-0.115,-0.361,-0.901,6.29,15.59,6.16,1785100829168.17
-0.112,-0.361,-0.902,6.35,15.38,6.01,1785100829168.3909
-0.11,-0.362,-0.902,6.16,15.17,5.83,1785100829168.637
-0.109,-0.368,-0.906,6.04,14.89,5.37,1785100829168.8599
-0.107,-0.368,-0.908,5.68,14.5,4.43,1785100829169.077
-0.103,-0.367,-0.907,5.07,13.79,3.6,1785100829169.296
-0.097,-0.364,-0.908,4.12,12.82,2.59,1785100829169.514
-0.093,-0.356,-0.909,3.3,11.47,1.92,1785100829169.729
-0.088,-0.355,-0.908,3.02,9.92,1.28,1785100829169.9463
-0.082,-0.353,-0.908,3.05,8.24,0.49,1785100829170.166
-0.08,-0.351,-0.908,3.23,6.56,-0.31,1785100829170.382
-0.081,-0.35,-0.906,3.66,4.91,-1.13,1785100829170.5999
-0.078,-0.351,-0.906,4.21,3.51,-1.95,1785100829170.8071
-0.08,-0.353,-0.91,4.64,2.29,-2.38,1785100829171.0068
-0.082,-0.356,-0.917,4.49,1.25,-2.72,1785100829171.206
-0.082,-0.362,-0.919,3.91,0.7,-2.96,1785100829171.4128
-0.077,-0.363,-0.924,3.36,0.55,-3.02,1785100829171.62
-0.077,-0.365,-0.924,2.9,0.37,-2.84,1785100829171.819
-0.078,-0.364,-0.925,2.56,0.18,-2.5,1785100829172.0178
-0.076,-0.363,-0.926,2.35,0.15,-2.08,1785100829172.2341
-0.074,-0.362,-0.93,1.89,0.03,-1.53,1785100829172.4448
-0.072,-0.361,-0.937,1.37,0.09,-1.19,1785100829172.66
-0.069,-0.36,-0.939,1.16,0.27,-1.13,1785100829172.8608
-0.071,-0.363,-0.937,1.22,0.55,-1.04,1785100829173.06
-0.075,-0.366,-0.932,1.4,0.73,-0.43,1785100829173.2568
-0.077,-0.37,-0.925,1.77,0.61,0.49,1785100829173.46
-0.079,-0.371,-0.923,2.53,0.4,1.34,1785100829173.6619
-0.08,-0.374,-0.929,3.54,0.34,1.95,1785100829173.862
-0.081,-0.374,-0.937,3.66,0.27,2.26,1785100829174.0642
-0.082,-0.378,-0.939,3.23,0.34,2.5,1785100829174.268
-0.081,-0.382,-0.942,2.53,0.55,2.44,1785100829174.47
-0.079,-0.383,-0.946,1.74,0.79,2.29,1785100829174.668
-0.081,-0.384,-0.945,1.04,1.19,2.35,1785100829174.872
-0.08,-0.385,-0.943,0.79,1.46,2.5,1785100829175.0798
-0.079,-0.382,-0.942,0.79,2.04,2.32,1785100829175.2808
-0.079,-0.382,-0.942,0.92,2.75,2.11,1785100829175.4858
-0.081,-0.379,-0.945,1.01,3.81,1.77,1785100829175.691
-0.08,-0.382,-0.949,0.58,4.97,1.13,1785100829175.9119
-0.084,-0.382,-0.949,0.15,6.16,0.92,1785100829176.1248
-0.084,-0.383,-0.943,0.18,7.17,1.1,1785100829176.363
-0.084,-0.378,-0.93,0.18,7.17,1.1,1785100829176.5618
-0.085,-0.376,-0.925,0.85,7.93,1.56,1785100829176.749
-0.083,-0.376,-0.926,1.71,8.85,1.89,1785100829176.946
-0.085,-0.375,-0.922,2.2,9.86,1.89,1785100829177.149
-0.085,-0.376,-0.921,2.87,10.74,2.08,1785100829177.341
-0.085,-0.379,-0.919,3.51,11.54,2.38,1785100829177.59
-0.086,-0.383,-0.913,4.67,12.02,2.78,1785100829177.803
-0.085,-0.386,-0.915,6.01,12.27,2.78,1785100829178.012
-0.084,-0.384,-0.911,7.02,12.3,3.2,1785100829178.237
-0.081,-0.384,-0.906,7.75,12.02,3.75,1785100829178.453
-0.078,-0.381,-0.899,8.48,11.23,4.21,1785100829178.688
-0.077,-0.38,-0.897,9.49,10.5,4.55,1785100829178.9019
-0.068,-0.38,-0.898,10.41,9.52,4.39,1785100829179.101
-0.065,-0.379,-0.891,9.8,7.84,3.85,1785100829179.2969
-0.058,-0.375,-0.888,9.52,6.35,3.2,1785100829179.4893
-0.057,-0.375,-0.885,9.25,3.08,2.35,1785100829179.7039
-0.057,-0.37,-0.881,5.34,-0.27,0.7,1785100829179.91
-0.064,-0.366,-0.878,0.89,-2.41,0.49,1785100829180.1118
-0.07,-0.361,-0.873,-0.79,-4.64,1.13,1785100829180.305
-0.071,-0.356,-0.875,-1.5,-7.42,0.82,1785100829180.5042
-0.074,-0.351,-0.876,-4.0,-9.98,-0.31,1785100829180.703
-0.068,-0.35,-0.887,-6.53,-11.93,-1.31,1785100829180.913
-0.065,-0.351,-0.893,-6.96,-13.09,-2.11,1785100829181.142
-0.069,-0.335,-0.907,-5.77,-14.07,-1.34,1785100829181.343
-0.064,-0.33,-0.914,-3.27,-14.65,0.24,1785100829181.536
-0.063,-0.349,-0.924,-0.18,-15.11,0.76,1785100829181.7349
-0.065,-0.356,-0.942,2.11,-14.74,0.89,1785100829181.938
-0.064,-0.364,-0.958,4.58,-13.52,1.68,1785100829182.14
-0.071,-0.378,-0.97,6.2,-12.21,2.14,1785100829182.335
-0.08,-0.399,-0.991,6.2,-10.77,1.77,1785100829182.525
-0.086,-0.414,-1.001,3.66,-9.03,1.25,1785100829182.719
-0.08,-0.427,-1.001,-0.15,-7.26,0.76,1785100829182.9053
-0.08,-0.436,-0.998,-2.84,-5.65,0.61,1785100829183.095
-0.086,-0.437,-0.999,-4.46,-4.0,0.64,1785100829183.29
-0.087,-0.428,-0.998,-5.55,-2.32,0.79,1785100829183.476
-0.083,-0.417,-0.995,-5.58,-0.64,0.61,1785100829183.664
-0.085,-0.409,-0.986,-4.97,1.37,-0.24,1785100829183.8772
-0.083,-0.403,-0.974,-4.09,3.17,-1.07,1785100829184.062
-0.08,-0.4,-0.965,-2.59,4.7,-1.56,1785100829184.2507
-0.073,-0.395,-0.958,-0.82,5.86,-1.56,1785100829184.4348
-0.07,-0.394,-0.951,1.07,6.87,-1.4,1785100829184.625
-0.065,-0.395,-0.947,3.39,7.45,-1.4,1785100829184.8252
-0.057,-0.386,-0.945,5.16,8.03,-1.65,1785100829185.034
-0.053,-0.382,-0.941,5.86,8.67,-1.89,1785100829185.226
-0.051,-0.386,-0.934,5.89,9.16,-2.5,1785100829185.406
-0.053,-0.392,-0.928,5.4,9.28,-3.6,1785100829185.5847
-0.056,-0.386,-0.911,2.38,9.06,-4.33,1785100829185.95
-0.053,-0.379,-0.899,0.0,8.55,-4.18,1785100829186.131
-0.074,-0.789,-0.72,-40.68,-13.82,-11.08,1785100829186.4697
-0.133,-0.821,-0.732,-38.82,-15.26,-18.4,1785100829186.656
-0.183,-0.871,-0.773,-36.74,-14.86,-25.03,1785100829186.8447
-0.238,-0.906,-0.796,-37.08,-13.67,-33.2,1785100829194.793
-0.289,-0.925,-0.775,-39.28,-13.21,-43.73,1785100829208.01
-0.319,-0.924,-0.763,-39.49,-12.73,-56.86,1785100829213.669
-0.319,-0.93,-0.776,-33.97,-10.83,-72.15,1785100829224.4558
-0.29,-0.915,-0.789,-22.58,-7.02,-88.23,1785100829237.67
-0.273,-0.883,-0.782,-8.88,-4.39,-105.32,1785100829243.451
-0.27,-0.846,-0.777,4.09,-5.55,-121.8,1785100829253.924
-0.264,-0.829,-0.791,15.47,-8.24,-134.86,1785100829264.565
-0.278,-0.824,-0.795,22.95,-11.93,-144.6,1785100829277.907
-0.311,-0.816,-0.819,24.9,-17.49,-151.31,1785100829283.638
-0.334,-0.775,-0.847,19.68,-22.06,-153.9,1785100829294.579
-0.329,-0.722,-0.832,11.11,-24.29,-151.86,1785100829307.794
-0.287,-0.672,-0.805,3.05,-25.61,-147.01,1785100829313.608
-0.207,-0.597,-0.738,-7.66,-28.32,-140.57,1785100829324.377
-0.101,-0.527,-0.7,-19.84,-32.87,-133.15,1785100829337.6738
0.003,-0.48,-0.7,-33.45,-36.19,-126.71,1785100829343.486
0.088,-0.457,-0.71,-47.52,-37.14,-122.47,1785100829354.379
0.145,-0.446,-0.697,-59.97,-37.05,-118.69,1785100829372.5178
0.183,-0.447,-0.671,-69.37,-38.18,-113.8,1785100829375.958
0.203,-0.458,-0.649,-75.87,-40.19,-107.94,1785100829392.477
0.217,-0.477,-0.64,-77.58,-41.99,-101.5,1785100829398.649
0.239,-0.485,-0.623,-75.87,-43.64,-95.03,1785100829403.2378
0.265,-0.473,-0.598,-71.6,-46.78,-88.69,1785100829414.0461
0.29,-0.45,-0.591,-65.74,-51.12,-82.31,1785100829424.611
0.312,-0.403,-0.624,-59.97,-55.57,-75.38,1785100829437.8318
0.338,-0.365,-0.679,-54.99,-58.38,-68.45,1785100829443.5479
0.346,-0.318,-0.713,-53.53,-60.55,-61.92,1785100829454.2761
0.356,-0.262,-0.738,-55.3,-62.11,-54.9,1785100829467.519
0.365,-0.24,-0.763,-58.72,-62.23,-48.28,1785100829473.2217
0.372,-0.266,-0.803,-61.37,-61.4,-44.31,1785100829484.084
0.375,-0.296,-0.849,-63.48,-59.76,-42.97,1785100829494.75
0.371,-0.29,-0.869,-64.12,-57.04,-41.23,1785100829507.9292
0.38,-0.282,-0.874,-60.46,-54.72,-37.08,1785100829513.6462
0.389,-0.267,-0.852,-55.09,-54.29,-32.65,1785100829524.383
0.395,-0.252,-0.814,-48.1,-55.79,-27.92,1785100829537.6958
0.394,-0.24,-0.769,-39.89,-59.11,-23.01,1785100829543.341
0.393,-0.221,-0.778,-30.98,-63.57,-17.12,1785100829554.2012
0.396,-0.196,-0.829,-22.74,-66.29,-11.41,1785100829564.7202
0.391,-0.16,-0.874,-18.37,-66.99,-7.63,1785100829578.034
0.384,-0.134,-0.94,-18.13,-66.93,-5.55,1785100829583.662
0.386,-0.108,-0.956,-22.95,-66.41,-3.39,1785100829594.2422
0.382,-0.118,-0.91,-26.7,-67.81,-0.92,1785100829604.762
0.353,-0.187,-0.861,-23.83,-71.26,0.34,1785100829617.933
0.301,-0.254,-0.828,-15.59,-75.32,2.01,1785100829623.6501
0.284,-0.295,-0.861,-3.72,-78.59,6.44,1785100829634.1428
0.281,-0.284,-0.909,6.9,-79.74,10.65,1785100829644.63
0.279,-0.272,-0.993,13.09,-80.51,13.73,1785100829657.867
0.29,-0.258,-1.091,10.65,-79.71,15.11,1785100829663.631
0.293,-0.252,-1.109,2.32,-77.61,15.2,1785100829674.414
0.28,-0.272,-1.097,-5.65,-77.24,13.12,1785100829687.669
0.225,-0.294,-1.05,-11.41,-78.1,10.93,1785100829693.4478
0.163,-0.327,-0.974,-12.27,-80.32,12.33,1785100829704.04
0.143,-0.36,-0.944,-10.71,-83.9,15.08,1785100829714.701
0.142,-0.345,-0.953,-11.11,-86.4,15.9,1785100829728.199
0.129,-0.316,-1.002,-11.87,-86.37,15.9,1785100829734.002
0.095,-0.305,-1.037,-12.91,-84.11,14.95,1785100829744.555
0.073,-0.312,-1.07,-15.2,-81.15,13.09,1785100829757.687
0.086,-0.325,-1.075,-19.68,-77.7,11.11,1785100829763.747
0.086,-0.325,-1.075,-22.28,-74.95,9.8,1785100829774.014
0.045,-0.324,-1.002,-18.68,-73.4,10.16,1785100829784.81
0.024,-0.332,-0.972,-15.11,-72.18,10.68,1785100829798.656
-0.007,-0.314,-0.963,-15.26,-71.23,13.03,1785100829804.172
-0.04,-0.259,-0.954,-19.01,-70.44,16.36,1785100829814.5498
-0.078,-0.19,-0.948,-19.01,-70.44,16.36,1785100829827.81
-0.057,-0.163,-0.977,-25.42,-68.88,17.88,1785100829833.7258
-0.044,-0.197,-0.997,-32.04,-65.61,15.41,1785100829844.238
-0.058,-0.256,-1.008,-35.25,-61.01,11.08,1785100829854.849
-0.08,-0.307,-1.015,-31.62,-55.76,7.63,1785100829868.0872
-0.094,-0.324,-1.016,-24.38,-51.39,6.2,1785100829874.05
-0.108,-0.298,-1.021,-15.75,-47.21,7.14,1785100829884.3022
-0.094,-0.274,-1.02,-6.26,-41.75,9.83,1785100829894.766
-0.095,-0.258,-1.019,2.5,-36.62,11.63,1785100829908.037
-0.113,-0.236,-1.008,7.84,-33.11,12.76,1785100829913.9158
-0.124,-0.243,-1.014,8.18,-30.67,14.04,1785100829924.272
-0.151,-0.251,-1.01,2.9,-28.05,14.28,1785100829934.8171
-0.165,-0.254,-0.977,-5.16,-25.82,14.16,1785100829948.065
-0.152,-0.279,-0.965,-11.32,-23.35,14.07,1785100829953.9368
-0.162,-0.285,-0.957,-14.98,-21.55,13.64,1785100829964.4348
-0.165,-0.272,-0.972,-16.08,-20.81,13.82,1785100829975.1492
-0.159,-0.249,-1.001,-16.88,-19.93,12.82,1785100829988.2612
-0.149,-0.22,-1.021,-19.04,-19.2,11.17,1785100829994.593
-0.153,-0.207,-1.023,-21.15,-17.76,8.94,1785100830004.74
-0.159,-0.206,-1.026,-21.76,-16.02,6.96,1785100830018.6382
-0.174,-0.209,-1.015,-21.33,-13.95,5.71,1785100830023.762
-0.183,-0.215,-1.029,-18.71,-11.99,5.22,1785100830033.8618
-0.189,-0.213,-1.03,-15.66,-9.28,5.52,1785100830044.599
-0.19,-0.208,-1.033,-12.76,-6.59,6.68,1785100830055.027
-0.163,-0.206,-1.05,-9.89,-3.81,8.33,1785100830068.2659
-0.155,-0.21,-1.06,-7.39,-1.16,9.67,1785100830074.005
-0.156,-0.214,-1.062,-4.52,1.25,10.13,1785100830084.043
-0.152,-0.222,-1.052,-2.01,3.05,10.38,1785100830094.6099
-0.145,-0.23,-1.046,-0.73,4.91,10.93,1785100830104.958
-0.159,-0.233,-1.029,-0.49,6.78,11.44,1785100830118.264
-0.161,-0.228,-1.03,-0.43,8.15,11.44,1785100830124.2827
-0.162,-0.232,-1.027,-1.46,9.37,10.44,1785100830134.2239
-0.179,-0.224,-1.016,-4.76,9.4,9.22,1785100830144.807
-0.176,-0.225,-1.027,-8.36,9.28,7.84,1785100830155.523
-0.187,-0.238,-1.019,-11.32,9.92,6.65,1785100830168.223
-0.197,-0.247,-1.02,-13.0,9.92,5.65,1785100830174.107
-0.195,-0.248,-1.004,-14.37,9.83,5.16,1785100830184.1128
-0.199,-0.247,-0.978,-14.56,9.4,4.88,1785100830194.6082
-0.195,-0.256,-0.973,-12.67,8.67,3.97,1785100830205.029
-0.202,-0.255,-0.965,-10.93,7.78,2.84,1785100830218.527
-0.207,-0.254,-0.976,-9.43,6.47,2.17,1785100830223.71
-0.21,-0.238,-0.985,-9.22,5.68,1.37,1785100830234.05
-0.212,-0.233,-0.987,-9.61,5.25,0.58,1785100830244.593
-0.218,-0.24,-0.996,-10.77,4.94,-0.82,1785100830254.893
-0.226,-0.228,-0.99,-13.15,5.71,-1.83,1785100830268.185
-0.226,-0.227,-0.994,-15.75,6.78,-2.23,1785100830274.005
-0.232,-0.222,-0.989,-18.28,8.33,-3.27,1785100830284.1223
-0.23,-0.22,-0.98,-19.04,11.29,-4.03,1785100830294.9287
-0.238,-0.219,-0.969,-19.29,11.96,-4.36,1785100830307.9329
-0.229,-0.212,-0.944,-19.2,11.2,-3.97,1785100830314.163
-0.237,-0.2,-0.929,-16.63,13.55,-4.43,1785100830324.1338
-0.25,-0.182,-0.907,-14.44,16.36,-4.85,1785100830334.7112
-0.252,-0.149,-0.866,-15.5,16.14,-4.67,1785100830348.0251
-0.23,-0.141,-0.866,-17.52,14.5,-5.28,1785100830353.861
-0.21,-0.145,-0.85,-20.2,12.42,-6.99,1785100830364.773
-0.159,-0.15,-0.907,-20.81,10.28,-7.42,1785100830374.624
-0.136,-0.222,-1.006,-14.92,15.2,-7.87,1785100830387.902
-0.122,-0.289,-1.073,-7.23,21.85,-10.01,1785100830393.974
-0.126,-0.317,-1.114,3.17,29.66,-11.02,1785100830404.0679
-0.131,-0.331,-1.1,14.16,39.31,-10.35,1785100830414.6611
-0.177,-0.324,-1.05,19.5,44.25,-8.03,1785100830429.9788
-0.203,-0.287,-0.974,21.09,47.33,-5.07,1785100830433.3342
-0.198,-0.247,-0.916,22.52,49.32,-3.33,1785100830443.879
-0.168,-0.224,-0.909,22.16,48.25,-1.89,1785100830454.478
-0.146,-0.193,-0.946,16.79,46.11,-3.72,1785100830467.663
-0.128,-0.167,-0.984,9.06,45.96,-7.05,1785100830473.307
-0.118,-0.162,-0.992,3.08,47.09,-7.02,1785100830483.706
-0.101,-0.209,-1.006,1.98,49.17,-6.26,1785100830494.1729
-0.101,-0.28,-0.977,5.13,49.29,-8.03,1785100830504.596
-0.107,-0.313,-0.986,11.11,46.94,-9.95,1785100830517.7861
-0.087,-0.333,-1.007,18.98,47.52,-9.67,1785100830523.4822
-0.083,-0.328,-0.982,24.87,46.33,-9.92,1785100830534.0369
-0.078,-0.293,-0.952,26.61,43.43,-10.74,1785100830544.69
-0.069,-0.266,-0.925,23.59,41.75,-11.6,1785100830557.914
-0.06,-0.245,-0.928,15.72,40.04,-12.63,1785100830563.618
-0.044,-0.235,-0.955,5.86,40.13,-13.55,1785100830574.2888
-0.041,-0.212,-0.928,-4.91,39.92,-14.44,1785100830587.533
-0.028,-0.211,-0.907,-12.02,37.57,-13.89,1785100830593.181
-0.015,-0.243,-0.925,-14.31,35.13,-13.89,1785100830603.959
-0.011,-0.237,-0.94,-15.84,33.51,-13.95,1785100830614.55
0.007,-0.223,-0.964,-14.5,32.81,-11.84,1785100830627.8882
0.021,-0.244,-0.992,-10.86,32.93,-11.47,1785100830633.566
0.015,-0.249,-1.009,-10.86,33.23,-14.34,1785100830644.219
0.01,-0.229,-1.012,-16.39,33.81,-16.48,1785100830657.572
0.004,-0.196,-0.975,-25.7,33.11,-16.45,1785100830663.2322
0.012,-0.187,-0.949,-32.69,31.95,-15.05,1785100830674.0688
0.036,-0.203,-0.932,-35.49,32.87,-14.5,1785100830684.5989
0.044,-0.225,-0.932,-34.15,33.14,-15.08,1785100830697.8518
0.035,-0.241,-0.92,-29.88,28.78,-13.18,1785100830703.6182
0.039,-0.233,-0.888,-23.35,22.55,-10.35,1785100830714.345
0.047,-0.181,-0.911,-16.82,19.56,-10.44,1785100830727.846
0.058,-0.129,-0.921,-13.06,21.24,-11.41,1785100830733.4568
0.069,-0.139,-0.943,-13.12,22.1,-11.84,1785100830744.164
0.069,-0.162,-0.979,-18.37,21.82,-14.56,1785100830754.904
0.047,-0.146,-0.992,-28.35,20.51,-16.97,1785100830768.2612
0.036,-0.12,-0.977,-37.17,18.4,-15.72,1785100830774.164
0.057,-0.104,-0.949,-42.57,15.99,-12.67,1785100830784.732
0.084,-0.093,-0.912,-45.41,13.37,-10.8,1785100830798.1812
0.097,-0.074,-0.876,-48.13,10.53,-9.83,1785100830803.931
0.107,-0.068,-0.869,-50.26,7.32,-9.31,1785100830814.171
0.121,-0.074,-0.907,-51.79,6.29,-9.25,1785100830824.68
0.117,-0.078,-0.96,-51.27,6.93,-9.4,1785100830837.846
0.089,-0.074,-0.997,-48.98,7.9,-8.33,1785100830843.8542
0.061,-0.063,-1.022,-47.12,7.54,-5.34,1785100830853.801
0.045,-0.061,-1.046,-46.02,7.45,-1.95,1785100830864.2812
0.047,-0.073,-1.073,-45.63,8.58,0.06,1785100830874.814
0.047,-0.073,-1.057,-45.2,10.44,0.27,1785100830887.975
0.056,-0.066,-1.029,-42.24,11.75,0.79,1785100830893.981
0.078,-0.078,-1.0,-37.23,12.97,1.4,1785100830904.177
0.084,-0.084,-0.995,-30.88,14.92,1.13,1785100830914.851
0.075,-0.06,-0.987,-25.36,16.3,1.68,1785100830928.123
0.08,-0.026,-0.986,-20.94,16.51,2.38,1785100830933.9033
0.071,-0.011,-1.008,-18.8,16.72,2.75,1785100830944.12
0.057,0.0,-1.021,-21.33,17.09,4.24,1785100830955.0159
0.058,0.005,-1.018,-26.18,17.03,6.13,1785100830968.008
0.064,-0.004,-0.997,-29.11,16.51,8.12,1785100830973.991
0.081,-0.004,-0.981,-29.42,15.96,8.64,1785100830984.181
0.094,-0.019,-0.954,-28.23,15.53,8.67,1785100830994.7761
0.092,-0.04,-0.951,-22.31,15.32,7.39,1785100831008.041
0.091,-0.057,-0.945,-14.13,14.92,6.41,1785100831013.935
0.094,-0.066,-0.948,-7.08,13.92,5.37,1785100831024.0908
0.098,-0.055,-0.95,-2.41,12.67,4.39,1785100831034.5962
0.098,-0.042,-0.966,1.83,11.32,4.27,1785100831045.086
0.098,-0.026,-0.968,4.55,9.89,6.62,1785100831058.858
0.098,-0.026,-0.968,9.74,8.97,5.52,1785100831063.9392
0.118,0.003,-0.965,12.3,8.18,4.39,1785100831074.045
0.115,0.011,-0.986,10.62,8.18,4.79,1785100831084.492
0.106,0.018,-1.004,8.21,8.61,5.49,1785100831094.895
0.099,0.014,-1.012,8.21,8.61,5.49,1785100831108.2502
0.102,0.003,-0.996,6.1,8.58,5.71,1785100831113.7878
0.108,-0.013,-0.977,5.1,7.6,5.25,1785100831123.776
0.118,-0.023,-0.966,5.52,6.41,5.25,1785100831134.161
0.125,-0.021,-0.966,5.92,5.1,5.65,1785100831144.598
0.118,-0.021,-0.974,5.74,3.88,5.71,1785100831155.025
0.108,-0.015,-0.981,5.04,3.45,5.37,1785100831168.223
0.109,-0.013,-0.981,4.76,2.81,5.71,1785100831173.8508
0.111,-0.012,-0.974,3.36,2.44,6.65,1785100831183.912
0.117,-0.014,-0.97,2.47,1.71,7.29,1785100831194.279
0.127,-0.012,-0.956,1.8,0.09,7.75,1785100831204.627
0.139,-0.016,-0.948,0.58,-1.86,7.78,1785100831215.034
0.132,-0.025,-0.96,-0.4,-2.53,7.35,1785100831228.3
0.111,-0.032,-0.994,-1.01,-1.56,6.84,1785100831233.877
0.091,-0.035,-1.019,-1.19,-0.06,6.71,1785100831243.9302
0.085,-0.044,-1.023,-1.5,0.7,6.96,1785100831254.356
0.093,-0.065,-1.012,-1.98,0.34,7.02,1785100831264.759
0.105,-0.089,-0.986,-1.22,0.24,6.38,1785100831278.141
0.116,-0.105,-0.978,2.29,0.27,5.71,1785100831283.604
0.119,-0.106,-0.994,6.41,1.16,5.74,1785100831293.612
0.125,-0.095,-0.983,10.65,2.47,5.65,1785100831304.086
0.139,-0.087,-0.936,15.59,0.4,4.85,1785100831314.6108
0.16,-0.07,-0.935,17.94,-2.59,4.27,1785100831325.0571
0.155,-0.073,-0.954,18.59,-2.66,2.75,1785100831338.5442
0.133,-0.087,-0.977,20.87,-1.65,0.03,1785100831344.1658
0.122,-0.092,-1.042,23.65,0.4,-1.86,1785100831354.2112
0.115,-0.087,-1.071,24.87,3.45,-1.95,1785100831364.69
0.105,-0.083,-1.042,25.67,4.33,-0.89,1785100831377.998
0.133,-0.066,-1.027,25.3,4.49,0.52,1785100831383.804
0.153,-0.053,-0.974,22.77,3.51,1.1,1785100831393.8691
0.156,-0.063,-0.934,20.11,0.03,1.13,1785100831404.347
0.167,-0.077,-0.94,18.92,-0.82,0.64,1785100831414.862
0.165,-0.081,-0.93,18.77,0.43,-0.18,1785100831428.0852
0.156,-0.096,-0.935,21.06,-0.34,-0.37,1785100831433.9148
0.158,-0.115,-0.975,23.68,-1.13,-1.13,1785100831443.999
0.148,-0.101,-0.954,25.76,-1.31,-2.84,1785100831454.446
0.14,-0.08,-0.923,30.09,-1.77,-1.95,1785100831464.947
0.145,-0.067,-0.861,35.49,-4.09,0.0,1785100831478.526
0.143,-0.061,-0.835,39.22,-9.77,0.98,1785100831483.6821
0.151,-0.06,-0.903,39.37,-12.6,1.71,1785100831494.475
0.144,-0.067,-0.967,36.71,-11.08,1.59,1785100831504.8389
0.133,-0.103,-1.028,33.6,-9.19,2.14,1785100831518.6062
0.13,-0.138,-1.074,27.13,-6.81,1.8,1785100831523.9
0.129,-0.149,-1.055,17.79,-5.62,-0.09,1785100831534.0103
0.135,-0.135,-1.041,8.36,-6.44,-0.27,1785100831544.502
0.153,-0.121,-1.03,2.66,-5.65,1.46,1785100831555.0469
0.156,-0.13,-1.0,4.36,-4.15,3.2,1785100831567.991
0.162,-0.13,-0.979,11.75,-2.99,4.3,1785100831574.103
0.163,-0.141,-1.017,20.48,-2.69,5.77,1785100831583.843
0.163,-0.173,-1.063,30.3,0.79,3.66,1785100831594.292
0.166,-0.222,-1.097,38.33,4.58,-0.24,1785100831604.7612
0.166,-0.246,-1.089,41.2,6.74,-3.45,1785100831617.992
0.162,-0.233,-1.026,41.26,3.91,-2.96,1785100831623.837
0.163,-0.214,-0.973,43.15,0.21,0.52,1785100831633.929
0.158,-0.171,-0.918,43.37,-4.15,4.15,1785100831644.413
0.149,-0.119,-0.838,42.57,-9.7,6.68,1785100831654.8428
0.137,-0.144,-0.776,46.36,-16.85,6.59,1785100831668.183
0.097,-0.188,-0.744,48.25,-24.96,4.18,1785100831674.062
0.065,-0.223,-0.736,47.61,-32.38,2.04,1785100831684.381
0.039,-0.223,-0.731,44.8,-39.0,2.87,1785100831694.916
0.014,-0.205,-0.725,38.94,-45.9,7.81,1785100831708.3918
0.009,-0.179,-0.746,31.01,-52.0,12.18,1785100831714.064
0.028,-0.161,-0.78,20.78,-55.24,13.89,1785100831724.534
0.059,-0.175,-0.796,11.08,-56.06,11.75,1785100831737.7268
0.066,-0.196,-0.827,4.43,-55.67,7.84,1785100831743.7283
0.057,-0.193,-0.849,2.41,-53.71,5.92,1785100831753.846
0.05,-0.185,-0.9,6.35,-52.03,5.95,1785100831764.379
0.053,-0.177,-0.958,11.2,-49.1,5.46,1785100831775.0342
0.044,-0.183,-1.014,12.85,-45.63,4.24,1785100831788.115
0.028,-0.22,-1.041,11.2,-41.08,2.41,1785100831794.251
0.019,-0.278,-1.053,10.1,-35.95,0.27,1785100831804.3677
-0.002,-0.317,-1.055,11.02,-30.85,-0.15,1785100831814.995
-0.003,-0.341,-1.042,15.9,-26.37,3.02,1785100831828.267
-0.014,-0.346,-1.03,22.52,-23.96,7.69,1785100831834.065
-0.006,-0.349,-1.035,30.24,-21.67,10.9,1785100831844.548
-0.008,-0.333,-1.042,35.86,-19.68,12.18,1785100831855.1208
0.003,-0.315,-1.048,37.75,-17.76,13.03,1785100831868.387
0.011,-0.317,-1.05,36.77,-15.29,12.33,1785100831874.295
-0.003,-0.295,-1.026,30.82,-13.06,11.2,1785100831884.799
-0.008,-0.291,-1.013,26.06,-12.21,10.25,1785100831898.149
0.009,-0.294,-1.026,23.04,-12.18,7.81,1785100831903.953
0.005,-0.295,-1.02,19.84,-10.47,4.7,1785100831914.3691
-0.008,-0.302,-1.01,17.37,-8.91,2.81,1785100831925.119
-0.012,-0.308,-1.005,16.08,-8.73,2.62,1785100831938.277
-0.018,-0.306,-0.99,15.38,-9.64,3.14,1785100831944.012
-0.028,-0.307,-0.987,15.41,-10.8,3.69,1785100831954.0632
-0.012,-0.31,-0.994,15.08,-10.59,3.14,1785100831964.59
-0.017,-0.309,-0.997,12.85,-9.89,2.69,1785100831975.1648
-0.03,-0.317,-0.99,9.13,-9.31,2.5,1785100831988.306
-0.031,-0.328,-0.975,5.13,-9.52,2.2,1785100831997.586
-0.033,-0.333,-0.97,1.68,-10.13,2.32,1785100832003.8918
-0.033,-0.336,-0.963,-0.06,-10.35,2.41,1785100832014.3052
-0.034,-0.333,-0.961,-0.31,-10.38,2.26,1785100832025.091
-0.038,-0.329,-0.966,-0.31,-10.47,2.26,1785100832038.2312
-0.036,-0.329,-0.965,-0.92,-9.98,2.5,1785100832044.0168
-0.037,-0.323,-0.971,-2.08,-9.16,2.17,1785100832053.977
-0.035,-0.317,-0.97,-3.94,-8.73,1.65,1785100832064.387
-0.04,-0.313,-0.952,-5.43,-7.6,1.01,1785100832074.969
-0.044,-0.315,-0.94,-5.19,-5.98,1.43,1785100832088.0498
-0.049,-0.315,-0.947,-3.36,-5.71,1.62,1785100832093.7788
-0.044,-0.309,-0.954,-1.86,-5.01,0.76,1785100832103.717
-0.051,-0.312,-0.957,-1.68,-5.1,0.46,1785100832113.9487
-0.06,-0.319,-0.957,-1.74,-6.81,1.04,1785100832124.4421
-0.062,-0.314,-0.957,-0.85,-6.59,0.89,1785100832134.836
-0.052,-0.325,-0.958,1.65,-2.9,0.89,1785100832148.11
-0.05,-0.327,-0.963,2.81,-0.89,1.16,1785100832153.764
-0.057,-0.317,-0.959,1.83,-2.14,1.31,1785100832163.8123
-0.06,-0.316,-0.941,0.76,-3.94,1.83,1785100832174.171
-0.055,-0.322,-0.951,1.8,-3.78,1.5,1785100832184.5652
-0.051,-0.322,-0.963,2.17,-1.95,0.85,1785100832194.9019
-0.051,-0.318,-0.965,1.43,-0.92,0.89,1785100832208.1821
-0.054,-0.313,-0.962,0.15,-1.1,0.92,1785100832213.839
-0.052,-0.31,-0.963,-1.28,-1.98,0.49,1785100832223.807
-0.056,-0.316,-0.97,-1.83,-2.38,-0.34,1785100832234.224
-0.069,-0.317,-0.968,-2.26,-1.77,-0.06,1785100832244.59
-0.097,-0.312,-0.961,-1.22,-0.06,2.26,1785100832254.967
-0.112,-0.317,-0.956,2.29,2.08,6.29,1785100832268.205
-0.058,-0.337,-0.978,6.35,3.36,9.77,1785100832273.8408
-0.025,-0.335,-0.986,7.72,3.39,10.68,1785100832284.0051
-0.027,-0.316,-0.981,7.42,4.52,10.25,1785100832294.4949
-0.034,-0.31,-0.969,6.13,4.64,9.86,1785100832304.825
-0.036,-0.31,-0.949,5.25,4.3,8.7,1785100832318.217
-0.029,-0.313,-0.946,5.1,3.3,6.93,1785100832323.7498
-0.034,-0.304,-0.952,2.96,2.5,5.89,1785100832333.7478
-0.034,-0.304,-0.952,-1.04,2.2,6.04,1785100832344.177
-0.04,-0.294,-0.94,-3.75,1.31,5.22,1785100832354.506
-0.043,-0.289,-0.938,-4.97,0.85,3.63,1785100832364.9229
-0.056,-0.299,-0.942,-5.8,1.34,3.3,1785100832378.519
-0.059,-0.319,-0.945,-5.98,1.74,3.72,1785100832383.8132
-0.051,-0.332,-0.947,-5.98,1.74,3.72,1785100832393.855
-0.06,-0.326,-0.943,-5.55,1.37,4.03,1785100832404.194
-0.055,-0.323,-0.951,-4.82,0.85,3.97,1785100832414.594
-0.047,-0.328,-0.954,-4.52,0.18,2.96,1785100832424.9658
-0.045,-0.329,-0.954,-3.81,-0.85,1.89,1785100832438.219
-0.049,-0.326,-0.955,-3.78,-1.65,1.25,1785100832443.853
-0.051,-0.316,-0.953,-4.39,-2.47,1.25,1785100832453.896
-0.048,-0.317,-0.959,-4.46,-2.99,0.79,1785100832464.415
-0.046,-0.317,-0.959,-4.46,-2.84,-0.12,1785100832474.773
-0.046,-0.314,-0.962,-4.7,-2.87,-0.98,1785100832484.864
-0.05,-0.313,-0.957,-5.13,-3.08,-1.59,1785100832498.589
-0.057,-0.311,-0.95,-4.88,-3.42,-2.08,1785100832503.999
-0.065,-0.311,-0.949,-3.72,-3.2,-1.92,1785100832514.0159
-0.062,-0.319,-0.94,-2.26,-2.62,-0.95,1785100832524.29
-0.054,-0.315,-0.939,-0.18,-2.38,0.12,1785100832534.76
-0.046,-0.31,-0.948,1.53,-2.04,0.89,1785100832548.0151
-0.043,-0.307,-0.946,1.95,-1.65,1.53,1785100832553.613
-0.042,-0.306,-0.948,1.56,-1.43,1.95,1785100832563.7068
-0.046,-0.308,-0.95,0.82,-0.85,2.32,1785100832574.048
-0.052,-0.31,-0.942,0.64,-0.18,2.99,1785100832584.409
-0.05,-0.311,-0.935,1.07,0.37,3.6,1785100832594.814
-0.052,-0.313,-0.937,2.23,0.95,4.03,1785100832608.0972
-0.046,-0.32,-0.936,3.11,1.56,4.36,1785100832613.683
-0.039,-0.32,-0.931,3.23,1.34,4.49,1785100832623.695
-0.044,-0.318,-0.925,3.27,1.1,4.36,1785100832634.0898
-0.048,-0.312,-0.927,2.72,0.24,4.0,1785100832644.554
-0.04,-0.304,-0.935,0.21,-0.21,3.88,1785100832654.872
-0.04,-0.3,-0.933,-2.35,-0.15,3.91,1785100832668.104
-0.042,-0.307,-0.928,-2.84,-0.21,3.54,1785100832673.759
-0.052,-0.308,-0.921,-2.17,-0.58,2.96,1785100832683.8247
-0.057,-0.314,-0.925,-1.07,-1.1,2.5,1785100832694.238
-0.054,-0.322,-0.934,-0.12,-1.46,1.77,1785100832704.559
-0.06,-0.318,-0.935,-0.37,-1.74,1.34,1785100832714.973
-0.06,-0.319,-0.933,-0.76,-1.62,1.74,1785100832728.301
-0.058,-0.316,-0.933,-0.92,-1.56,1.86,1785100832733.8713
-0.057,-0.311,-0.932,-0.52,-1.59,1.71,1785100832743.916
-0.063,-0.309,-0.931,0.55,-1.62,1.71,1785100832754.262
-0.064,-0.312,-0.93,1.89,-1.68,1.89,1785100832764.67
-0.065,-0.309,-0.934,2.72,-1.8,2.08,1785100832775.1711
-0.068,-0.311,-0.935,2.81,-1.92,2.41,1785100832788.262
-0.062,-0.312,-0.939,2.17,-1.98,2.5,1785100832794.0989
-0.067,-0.308,-0.938,0.18,-2.26,2.5,1785100832803.9219
-0.067,-0.308,-0.939,-0.95,-2.59,2.66,1785100832814.357
-0.067,-0.313,-0.946,-0.37,-2.59,2.04,1785100832824.866
-0.067,-0.321,-0.951,1.04,-2.84,1.04,1785100832838.102
-0.07,-0.321,-0.952,2.11,-3.33,0.34,1785100832843.842
-0.073,-0.323,-0.954,2.87,-3.54,0.21,1785100832853.61
-0.076,-0.319,-0.95,3.02,-3.66,0.31,1785100832864.008
-0.074,-0.316,-0.958,3.08,-3.91,0.21,1785100832874.461
-0.075,-0.311,-0.967,2.75,-3.85,0.46,1785100832884.7493
-0.074,-0.31,-0.966,2.26,-3.63,1.07,1785100832898.19
-0.073,-0.315,-0.965,2.08,-3.6,1.25,1785100832903.697
-0.077,-0.319,-0.969,1.89,-3.72,1.04,1785100832913.698
-0.079,-0.32,-0.974,1.22,-3.72,0.73,1785100832924.101
-0.079,-0.317,-0.97,0.21,-3.6,0.34,1785100832934.441
-0.075,-0.314,-0.968,-0.4,-3.48,-0.06,1785100832944.8262
-0.075,-0.308,-0.966,-0.73,-3.33,-0.4,1785100832958.0103
-0.074,-0.304,-0.965,-0.64,-3.54,-0.4,1785100832963.7693
-0.065,-0.3,-0.969,-0.15,-3.48,-0.46,1785100832973.784
-0.061,-0.297,-0.972,0.4,-3.08,-0.67,1785100832984.135
-0.061,-0.295,-0.967,0.76,-2.59,-0.7,1785100832994.556
-0.059,-0.296,-0.966,1.37,-2.23,-0.46,1785100833004.909
-0.06,-0.301,-0.968,1.77,-1.8,-0.12,1785100833018.4478
-0.063,-0.305,-0.964,1.86,-0.79,0.4,1785100833023.7961
-0.07,-0.309,-0.955,1.89,0.21,1.07,1785100833033.875
-0.074,-0.309,-0.948,1.68,0.85,2.11,1785100833044.237
-0.067,-0.316,-0.95,1.19,1.56,2.75,1785100833054.5808
-0.062,-0.322,-0.944,-0.15,1.86,3.23,1785100833064.9778
-0.06,-0.321,-0.941,-1.46,1.68,3.6,1785100833078.582
-0.051,-0.323,-0.948,-2.11,1.28,3.78,1785100833083.9429
-0.051,-0.326,-0.948,-2.72,0.95,3.63,1785100833093.903
-0.049,-0.327,-0.946,-3.54,0.73,3.72,1785100833104.32
-0.049,-0.328,-0.94,-3.91,0.64,3.78,1785100833114.718
-0.057,-0.326,-0.933,-3.48,0.31,3.51,1785100833125.163
-0.059,-0.325,-0.936,-2.56,0.21,3.11,1785100833138.4858
-0.061,-0.326,-0.943,-1.92,0.34,2.23,1785100833144.012
-0.068,-0.327,-0.946,-2.11,0.67,1.43,1785100833153.96
-0.069,-0.328,-0.946,-2.66,1.19,0.79,1785100833164.4192
-0.067,-0.33,-0.943,-2.84,1.77,0.31,1785100833174.8062
-0.068,-0.329,-0.94,-2.08,2.2,0.09,1785100833187.9822
-0.078,-0.329,-0.937,-0.92,2.5,0.34,1785100833193.708
-0.083,-0.327,-0.932,0.31,2.96,0.67,1785100833203.6638
-0.078,-0.323,-0.928,1.46,3.2,0.37,1785100833214.0532
-0.081,-0.314,-0.933,2.87,2.93,-0.4,1785100833224.437
-0.077,-0.316,-0.947,4.24,2.9,-1.34,1785100833234.778
-0.074,-0.318,-0.953,4.43,3.05,-2.23,1785100833248.032
-0.075,-0.317,-0.951,3.75,2.96,-2.5,1785100833253.689
-0.077,-0.317,-0.949,3.27,2.69,-2.59,1785100833263.733
-0.077,-0.316,-0.942,3.08,2.14,-2.66,1785100833274.107
-0.076,-0.312,-0.941,3.08,1.62,-2.69,1785100833284.498
-0.077,-0.304,-0.936,2.75,1.28,-2.62,1785100833294.861
-0.078,-0.302,-0.933,2.62,0.7,-2.5,1785100833308.175
-0.077,-0.303,-0.933,2.29,0.18,-2.59,1785100833313.7542
-0.08,-0.303,-0.934,1.68,-0.18,-2.62,1785100833323.828
-0.082,-0.304,-0.936,0.98,-0.4,-2.29,1785100833334.2468
-0.08,-0.305,-0.941,0.85,-0.55,-1.86,1785100833344.612
-0.077,-0.307,-0.947,0.76,-0.73,-1.83,1785100833354.952
-0.074,-0.305,-0.944,0.49,-1.1,-1.68,1785100833368.183
-0.073,-0.306,-0.942,0.31,-1.71,-1.46,1785100833373.833
-0.075,-0.309,-0.949,0.15,-2.23,-1.59,1785100833383.873
-0.076,-0.309,-0.944,-0.67,-2.29,-1.5,1785100833394.24
-0.072,-0.305,-0.942,-1.04,-2.38,-0.89,1785100833404.671
-0.07,-0.303,-0.944,-1.1,-2.47,-0.46,1785100833415.0771
-0.067,-0.301,-0.946,-0.82,-2.29,-0.31,1785100833428.294
-0.064,-0.304,-0.948,-0.37,-2.2,0.09,1785100833433.9268
-0.066,-0.31,-0.948,-0.15,-2.08,0.34,1785100833443.968
-0.068,-0.314,-0.949,0.03,-1.8,0.64,1785100833454.3281
-0.074,-0.317,-0.949,0.31,-1.13,0.85,1785100833464.738
-0.069,-0.319,-0.95,0.67,-0.4,1.34,1785100833478.0227
-0.067,-0.319,-0.948,1.04,0.24,1.86,1785100833483.671
-0.067,-0.318,-0.944,1.46,0.82,2.17,1785100833493.664
-0.065,-0.318,-0.944,1.74,1.22,2.41,1785100833504.0278
-0.064,-0.317,-0.948,1.98,1.68,2.38,1785100833514.4473
-0.065,-0.314,-0.944,2.26,2.04,2.44,1785100833524.946
-0.066,-0.316,-0.945,2.62,2.08,2.59,1785100833538.044
-0.067,-0.323,-0.945,2.72,2.47,2.32,1785100833543.793
-0.069,-0.323,-0.936,2.69,2.69,2.41,1785100833553.7432
-0.067,-0.325,-0.934,3.05,2.56,2.84,1785100833564.163
-0.067,-0.327,-0.933,3.51,2.5,3.05,1785100833574.548
-0.069,-0.327,-0.932,3.78,2.32,2.99,1785100833584.8582
-0.069,-0.327,-0.931,3.51,2.2,2.72,1785100833598.186
-0.069,-0.327,-0.933,3.14,2.23,2.53,1785100833603.762
-0.07,-0.329,-0.926,3.2,2.14,2.23,1785100833613.8408
-0.069,-0.327,-0.924,3.45,1.71,1.92,1785100833624.161
-0.069,-0.327,-0.924,3.23,1.4,1.71,1785100833634.529
-0.069,-0.321,-0.921,3.36,1.13,1.71,1785100833645.043
-0.071,-0.321,-0.921,3.6,0.89,1.56,1785100833658.323
-0.073,-0.323,-0.919,3.78,0.67,1.31,1785100833663.811
-0.069,-0.322,-0.922,3.78,0.67,1.31,1785100833673.839
-0.069,-0.323,-0.928,3.6,0.46,1.04,1785100833684.2283
-0.071,-0.322,-0.928,3.08,-0.03,0.89,1785100833694.601
-0.071,-0.322,-0.925,2.56,-0.34,0.92,1785100833704.972
-0.073,-0.323,-0.927,2.47,-0.46,0.73,1785100833718.2368
-0.073,-0.321,-0.929,2.53,-0.85,0.58,1785100833723.871
-0.07,-0.321,-0.928,2.62,-1.13,0.61,1785100833733.963
-0.071,-0.321,-0.933,2.69,-1.34,0.7,1785100833744.3828
-0.07,-0.321,-0.94,2.87,-1.71,0.79,1785100833754.663
-0.068,-0.319,-0.947,2.9,-2.08,0.52,1785100833765.081
-0.069,-0.32,-0.945,2.59,-2.26,0.55,1785100833778.4373
-0.07,-0.321,-0.947,2.26,-2.66,0.43,1785100833783.992
-0.067,-0.323,-0.951,2.04,-2.72,0.46,1785100833794.0159
-0.07,-0.323,-0.947,1.65,-2.66,0.64,1785100833804.338
-0.072,-0.325,-0.944,1.34,-2.87,1.19,1785100833814.762
-0.072,-0.325,-0.942,1.28,-2.84,1.83,1785100833828.121
-0.071,-0.325,-0.946,1.77,-2.93,2.29,1785100833833.663
-0.071,-0.328,-0.955,2.04,-2.84,2.78,1785100833843.592
-0.072,-0.331,-0.96,1.89,-2.69,2.93,1785100833853.954
-0.074,-0.334,-0.962,1.46,-2.72,2.99,1785100833864.4512
-0.075,-0.338,-0.963,1.22,-2.81,2.81,1785100833874.9949
-0.075,-0.339,-0.966,0.92,-2.75,2.44,1785100833888.0562
-0.073,-0.334,-0.965,0.24,-2.62,2.29,1785100833893.8901
-0.071,-0.33,-0.961,0.03,-2.32,2.29,1785100833903.7283
-0.067,-0.327,-0.957,0.58,-2.2,2.17,1785100833914.182
-0.066,-0.326,-0.955,1.31,-2.11,1.8,1785100833924.543
-0.062,-0.325,-0.956,1.71,-1.98,1.59,1785100833934.956
-0.06,-0.332,-0.96,1.62,-1.56,1.43,1785100833948.1753
-0.066,-0.339,-0.955,1.34,-1.01,1.53,1785100833954.082
-0.068,-0.343,-0.949,1.16,-0.49,1.92,1785100833963.8213
-0.066,-0.339,-0.942,1.13,0.09,2.47,1785100833974.228
-0.065,-0.339,-0.941,1.19,0.58,3.17,1785100833984.576
-0.068,-0.337,-0.938,1.22,1.13,3.54,1785100833994.99
-0.067,-0.336,-0.936,0.89,1.62,3.69,1785100834008.279
-0.069,-0.336,-0.933,0.52,2.08,3.91,1785100834013.8572
-0.07,-0.34,-0.935,0.89,2.41,3.81,1785100834023.926
-0.069,-0.344,-0.937,1.37,2.99,3.42,1785100834034.273
-0.072,-0.344,-0.934,1.46,3.08,3.42,1785100834044.7031
-0.073,-0.347,-0.93,1.68,2.96,3.6,1785100834055.027
-0.074,-0.345,-0.924,2.11,2.5,3.45,1785100834068.279
-0.072,-0.345,-0.927,2.81,1.95,3.23,1785100834073.962
-0.073,-0.347,-0.93,2.9,1.71,2.81,1785100834083.9438
-0.074,-0.347,-0.931,2.66,1.31,2.41,1785100834094.351
-0.075,-0.348,-0.929,2.47,1.04,2.01,1785100834104.72
-0.075,-0.347,-0.926,2.47,0.61,1.8,1785100834118.19
