ax,ay,az,gx,gy,gz,timestamp_ms
-0.056,-0.329,-0.95,1.4,-1.56,-0.31,1785100770593.039
-0.055,-0.327,-0.944,0.89,-1.71,-0.61,1785100770593.397
-0.058,-0.328,-0.945,0.58,-1.74,-0.92,1785100770593.6902
-0.059,-0.33,-0.946,0.31,-1.68,-1.19,1785100770593.956
-0.062,-0.333,-0.946,0.12,-1.8,-1.19,1785100770594.2332
-0.065,-0.336,-0.945,-0.21,-1.71,-1.16,1785100770594.521
-0.07,-0.335,-0.939,-0.55,-1.53,-1.07,1785100770594.802
-0.074,-0.334,-0.938,-0.49,-1.25,-0.95,1785100770595.061
-0.075,-0.333,-0.94,-0.67,-1.01,-0.89,1785100770595.3237
-0.075,-0.333,-0.944,-0.98,-0.76,-0.82,1785100770595.594
-0.075,-0.332,-0.942,-1.13,-0.61,-0.79,1785100770595.857
-0.073,-0.332,-0.944,-0.64,-0.37,-0.76,1785100770596.128
-0.077,-0.333,-0.941,-0.06,-0.12,-0.82,1785100770596.4019
-0.077,-0.331,-0.941,0.55,0.15,-0.7,1785100770596.668
-0.078,-0.333,-0.937,1.22,0.46,-0.67,1785100770596.92
-0.077,-0.336,-0.934,1.89,0.7,-0.67,1785100770597.1821
-0.078,-0.339,-0.937,2.17,0.73,-0.67,1785100770597.45
-0.079,-0.34,-0.935,1.95,0.61,-0.67,1785100770597.713
-0.076,-0.34,-0.939,1.56,0.61,-0.49,1785100770597.9788
-0.074,-0.343,-0.943,1.46,0.55,-0.15,1785100770598.243
-0.071,-0.345,-0.946,1.28,0.58,-0.06,1785100770598.493
-0.071,-0.346,-0.946,1.22,0.79,0.0,1785100770598.7551
-0.071,-0.349,-0.943,1.59,1.04,0.27,1785100770599.0159
-0.073,-0.347,-0.94,2.01,1.25,0.31,1785100770599.28
-0.073,-0.346,-0.936,2.29,1.25,0.43,1785100770599.5369
-0.071,-0.346,-0.933,1.89,1.16,0.52,1785100770599.8
-0.07,-0.347,-0.93,1.5,1.13,0.43,1785100770600.058
-0.067,-0.35,-0.931,1.34,0.92,0.31,1785100770600.3442
-0.067,-0.35,-0.931,1.4,0.79,0.27,1785100770600.612
-0.066,-0.349,-0.936,1.37,0.7,0.4,1785100770600.8801
-0.063,-0.348,-0.936,1.46,0.73,0.31,1785100770601.12
-0.061,-0.351,-0.938,1.5,0.98,0.12,1785100770601.376
-0.064,-0.35,-0.936,1.46,1.16,0.18,1785100770601.6692
-0.064,-0.347,-0.933,1.46,1.16,0.18,1785100770602.0251
-0.064,-0.346,-0.931,1.37,1.22,0.27,1785100770602.334
-0.062,-0.347,-0.928,1.62,1.28,0.43,1785100770602.664
-0.064,-0.346,-0.93,2.01,1.37,0.52,1785100770602.937
-0.062,-0.341,-0.932,2.38,1.22,0.76,1785100770603.1758
-0.06,-0.344,-0.936,2.99,1.25,1.13,1785100770603.4182
-0.062,-0.35,-0.941,3.6,1.4,1.13,1785100770603.6638
-0.062,-0.348,-0.937,3.85,1.59,0.95,1785100770603.8987
-0.063,-0.344,-0.943,4.15,2.11,0.95,1785100770604.128
-0.065,-0.344,-0.946,4.21,2.66,1.22,1785100770604.362
-0.068,-0.344,-0.943,4.12,2.99,1.65,1785100770604.5981
-0.07,-0.341,-0.939,4.09,3.11,2.23,1785100770604.845
-0.073,-0.343,-0.929,4.52,3.45,2.72,1785100770605.0771
-0.072,-0.338,-0.934,5.04,3.11,2.56,1785100770605.3079
-0.068,-0.33,-0.943,5.16,2.66,2.23,1785100770605.532
-0.064,-0.334,-0.945,5.55,2.56,1.53,1785100770605.758
-0.066,-0.341,-0.952,6.9,2.81,0.34,1785100770605.986
-0.078,-0.321,-0.967,8.36,3.17,-0.09,1785100770606.2168
-0.062,-0.311,-0.949,7.69,2.41,1.34,1785100770606.442
-0.062,-0.337,-0.94,6.2,2.41,0.34,1785100770606.673
-0.077,-0.363,-0.932,6.87,3.85,-1.53,1785100770606.899
-0.076,-0.384,-0.916,11.66,5.62,-1.62,1785100770607.111
-0.067,-0.391,-0.91,18.37,8.06,-1.34,1785100770607.33
-0.059,-0.392,-0.906,24.51,9.95,-0.85,1785100770607.5469
-0.058,-0.388,-0.91,29.24,10.59,0.34,1785100770607.768
-0.05,-0.381,-0.923,31.19,10.41,1.46,1785100770607.9841
-0.05,-0.377,-0.934,30.12,10.56,1.1,1785100770608.237
-0.05,-0.377,-0.943,26.46,10.9,0.06,1785100770608.4639
-0.05,-0.387,-0.943,20.33,10.8,-1.16,1785100770608.6987
-0.046,-0.407,-0.924,13.21,11.02,-2.53,1785100770608.9211
-0.046,-0.439,-0.913,7.93,11.26,-3.97,1785100770609.14
-0.064,-0.468,-0.903,3.39,12.51,-5.22,1785100770609.3599
-0.085,-0.48,-0.883,-4.79,15.02,-5.95,1785100770609.5737
-0.111,-0.487,-0.847,-13.15,18.46,-6.04,1785100770609.792
-0.119,-0.455,-0.816,-20.29,20.51,-5.04,1785100770610.018
-0.104,-0.405,-0.812,-25.67,21.76,-2.75,1785100770610.245
-0.099,-0.362,-0.826,-29.39,23.01,-1.13,1785100770610.463
-0.094,-0.317,-0.833,-33.94,24.38,0.03,1785100770610.746
-0.082,-0.292,-0.842,-38.54,26.46,0.92,1785100770610.978
-0.067,-0.311,-0.863,-39.92,30.43,0.95,1785100770611.198
-0.073,-0.349,-0.886,-36.19,35.46,-1.28,1785100770611.421
-0.081,-0.357,-0.884,-31.8,39.8,-2.47,1785100770611.647
-0.063,-0.365,-0.869,-26.7,44.53,-1.13,1785100770611.882
-0.045,-0.388,-0.855,-17.18,49.81,0.31,1785100770612.1018
-0.033,-0.398,-0.875,-4.03,54.6,1.92,1785100770612.323
-0.04,-0.444,-0.86,14.56,58.38,3.45,1785100770612.545
-0.043,-0.469,-0.814,31.22,56.92,3.51,1785100770612.764
-0.028,-0.43,-0.798,37.39,54.41,6.23,1785100770612.971
-0.006,-0.408,-0.795,39.34,54.02,11.75,1785100770613.1848
0.028,-0.413,-0.805,44.1,54.23,15.9,1785100770613.406
0.054,-0.41,-0.841,49.2,55.02,16.17,1785100770613.613
0.073,-0.425,-0.856,52.71,57.95,15.11,1785100770613.826
0.069,-0.445,-0.835,54.32,59.76,14.8,1785100770614.0361
0.072,-0.458,-0.826,55.39,58.08,14.4,1785100770614.24
0.079,-0.451,-0.818,54.84,54.38,12.76,1785100770614.454
0.101,-0.438,-0.842,50.05,49.96,11.23,1785100770614.6628
0.119,-0.46,-0.877,40.83,47.15,9.19,1785100770614.871
0.122,-0.47,-0.873,28.69,45.01,7.39,1785100770615.0762
0.133,-0.468,-0.858,21.91,44.01,7.05,1785100770615.285
0.146,-0.462,-0.866,21.55,44.37,7.97,1785100770615.4937
0.159,-0.461,-0.859,23.32,46.45,10.96,1785100770615.7
0.152,-0.469,-0.824,26.43,48.4,14.04,1785100770615.9238
0.151,-0.473,-0.816,30.4,48.22,16.36,1785100770616.15
0.173,-0.484,-0.837,33.08,45.69,18.65,1785100770616.3608
0.197,-0.521,-0.859,34.18,42.85,19.14,1785100770616.566
0.2,-0.555,-0.871,34.79,40.44,17.43,1785100770616.7778
0.191,-0.535,-0.869,33.88,38.42,17.24,1785100770616.9897
0.2,-0.511,-0.876,33.45,38.76,19.17,1785100770617.1938
0.21,-0.496,-0.877,35.19,40.86,19.68,1785100770617.407
0.222,-0.485,-0.881,38.73,44.43,19.62,1785100770617.6218
0.235,-0.5,-0.855,43.64,48.89,21.58,1785100770617.839
0.258,-0.524,-0.819,48.62,51.48,24.72,1785100770618.0422
0.282,-0.544,-0.778,53.44,51.94,26.98,1785100770618.2551
0.291,-0.556,-0.75,57.65,50.57,28.44,1785100770618.468
0.294,-0.56,-0.736,60.24,48.62,29.11,1785100770618.677
0.288,-0.566,-0.724,60.73,46.54,29.02,1785100770618.889
0.28,-0.577,-0.711,59.82,44.34,28.72,1785100770619.106
0.28,-0.59,-0.711,58.81,42.15,27.99,1785100770619.322
0.293,-0.606,-0.746,59.36,40.96,27.31,1785100770619.5479
0.3,-0.615,-0.773,61.13,40.62,27.13,1785100770619.7761
0.315,-0.62,-0.786,62.75,39.03,27.77,1785100770620.022
0.338,-0.634,-0.798,64.36,37.05,28.63,1785100770620.27
0.351,-0.632,-0.791,63.36,34.09,28.5,1785100770620.5142
0.36,-0.6,-0.833,60.58,31.89,29.85,1785100770620.747
0.351,-0.611,-0.824,59.66,33.23,31.89,1785100770620.99
0.32,-0.638,-0.796,61.01,31.92,28.75,1785100770621.205
0.294,-0.644,-0.762,57.83,28.75,24.2,1785100770621.412
0.298,-0.627,-0.739,51.06,24.48,23.29,1785100770621.619
0.318,-0.632,-0.778,46.21,21.73,23.65,1785100770621.818
0.314,-0.644,-0.78,39.52,20.48,22.83,1785100770622.0212
0.312,-0.686,-0.76,32.84,17.94,20.84,1785100770622.2231
0.312,-0.726,-0.733,29.08,14.56,18.95,1785100770622.453
0.309,-0.711,-0.729,30.27,11.66,19.17,1785100770622.648
0.307,-0.707,-0.762,36.65,8.73,19.41,1785100770622.844
0.299,-0.696,-0.797,40.1,5.98,17.49,1785100770623.056
0.298,-0.676,-0.809,37.87,4.46,15.78,1785100770623.247
0.301,-0.658,-0.822,33.42,3.51,14.59,1785100770623.445
0.303,-0.672,-0.834,27.89,3.6,13.46,1785100770623.6428
0.297,-0.689,-0.803,20.57,3.75,11.26,1785100770623.837
0.284,-0.68,-0.764,13.64,2.35,9.31,1785100770624.0288
0.283,-0.664,-0.738,9.4,0.73,8.67,1785100770624.222
0.286,-0.66,-0.74,6.29,-0.92,7.72,1785100770624.416
0.282,-0.644,-0.74,2.93,-2.29,7.05,1785100770624.605
0.282,-0.627,-0.738,-0.43,-4.24,7.23,1785100770624.7969
0.288,-0.629,-0.765,-4.24,-5.77,6.9,1785100770624.9949
0.292,-0.637,-0.781,-9.16,-6.07,6.47,1785100770625.213
0.294,-0.66,-0.781,-12.82,-5.65,5.89,1785100770625.4211
0.284,-0.682,-0.772,-13.64,-5.49,5.01,1785100770625.618
0.275,-0.7,-0.762,-12.39,-5.46,4.82,1785100770625.8152
0.266,-0.703,-0.745,-10.32,-5.92,5.71,1785100770626.008
0.267,-0.699,-0.742,-7.72,-6.81,6.78,1785100770626.203
0.262,-0.693,-0.732,-5.92,-7.63,7.45,1785100770626.397
0.258,-0.689,-0.743,-5.68,-8.24,7.11,1785100770626.587
0.252,-0.702,-0.745,-7.05,-7.66,6.5,1785100770626.7751
0.244,-0.717,-0.73,-8.97,-7.66,5.52,1785100770626.963
0.24,-0.728,-0.734,-9.8,-7.57,4.55,1785100770627.145
0.241,-0.734,-0.745,-10.32,-6.5,4.21,1785100770627.337
0.242,-0.725,-0.759,-10.01,-5.16,4.0,1785100770627.5461
0.246,-0.71,-0.764,-8.91,-3.57,3.91,1785100770627.737
0.245,-0.703,-0.763,-8.42,-1.83,3.3,1785100770627.923
0.244,-0.705,-0.744,-9.49,0.03,2.2,1785100770628.11
0.241,-0.696,-0.714,-10.65,1.5,1.43,1785100770628.301
0.241,-0.681,-0.681,-10.38,2.5,1.5,1785100770628.505
0.234,-0.666,-0.656,-9.22,2.56,1.83,1785100770628.695
0.234,-0.666,-0.656,-7.9,2.59,2.01,1785100770628.8882
0.235,-0.657,-0.661,-7.23,3.2,1.89,1785100770629.0847
0.238,-0.665,-0.686,-8.21,3.66,1.28,1785100770629.272
0.232,-0.669,-0.694,-10.56,3.91,0.85,1785100770629.462
0.225,-0.67,-0.71,-10.56,3.91,0.85,1785100770629.648
0.223,-0.682,-0.712,-13.67,4.79,0.7,1785100770629.839
0.219,-0.691,-0.697,-16.3,5.31,0.43,1785100770630.109
0.218,-0.694,-0.683,-16.42,5.62,0.85,1785100770630.291
0.215,-0.701,-0.676,-13.73,5.8,1.07,1785100770630.4797
0.209,-0.701,-0.673,-10.56,6.01,1.01,1785100770630.666
0.202,-0.69,-0.661,-8.06,5.8,1.56,1785100770630.846
0.199,-0.685,-0.659,-6.38,5.07,2.69,1785100770631.0242
0.198,-0.682,-0.663,-6.44,4.52,3.3,1785100770631.204
0.196,-0.679,-0.666,-7.14,4.15,4.24,1785100770631.377
0.201,-0.721,-0.683,-4.76,4.82,5.16,1785100770631.723
0.203,-0.753,-0.691,0.12,5.34,4.43,1785100770631.895
-0.15,-0.791,-0.872,7.42,-0.89,-25.64,1785100770632.281
-0.146,-0.806,-0.893,9.37,0.55,-38.45,1785100770632.457
-0.138,-0.818,-0.876,13.52,3.08,-49.87,1785100770633.076
-0.156,-0.825,-0.875,16.54,2.81,-61.8,1785100770643.7222
-0.156,-0.825,-0.875,15.11,1.56,-73.06,1785100770656.897
-0.181,-0.81,-0.848,13.21,0.82,-82.4,1785100770662.501
-0.202,-0.795,-0.81,11.23,-0.43,-91.37,1785100770673.131
-0.223,-0.761,-0.795,8.82,-1.4,-98.27,1785100770683.589
-0.224,-0.72,-0.787,8.82,-1.4,-98.27,1785100770696.853
-0.207,-0.695,-0.791,4.79,-2.35,-103.76,1785100770702.528
-0.183,-0.681,-0.803,-2.47,-3.6,-109.78,1785100770712.949
-0.174,-0.679,-0.797,-11.29,-5.31,-115.05,1785100770723.572
-0.172,-0.683,-0.793,-18.34,-7.14,-119.08,1785100770736.8389
-0.166,-0.667,-0.79,-22.74,-8.36,-121.22,1785100770742.6108
-0.154,-0.616,-0.778,-24.66,-9.19,-119.82,1785100770753.3062
-0.129,-0.566,-0.75,-24.63,-10.59,-115.7,1785100770766.5962
-0.082,-0.533,-0.735,-23.5,-12.88,-111.79,1785100770772.373
-0.014,-0.507,-0.754,-22.13,-15.41,-108.71,1785100770783.283
0.05,-0.469,-0.761,-22.92,-17.67,-104.98,1785100770796.628
0.091,-0.44,-0.743,-26.64,-20.6,-100.77,1785100770802.291
0.114,-0.45,-0.721,-30.27,-24.14,-96.87,1785100770813.244
0.116,-0.477,-0.69,-32.2,-27.34,-93.69,1785100770823.9282
0.118,-0.49,-0.678,-29.79,-30.15,-89.36,1785100770837.244
0.143,-0.492,-0.69,-23.77,-32.78,-84.11,1785100770843.8499
0.18,-0.464,-0.724,-18.16,-34.64,-78.92,1785100770853.7332
0.218,-0.417,-0.731,-16.42,-36.5,-73.15,1785100770866.97
0.258,-0.378,-0.734,-19.26,-39.43,-66.81,1785100770872.8582
0.274,-0.347,-0.732,-25.36,-41.51,-60.55,1785100770883.439
0.267,-0.339,-0.724,-32.14,-42.63,-54.93,1785100770896.863
0.256,-0.365,-0.74,-37.14,-42.51,-51.61,1785100770902.9607
0.245,-0.38,-0.736,-40.96,-41.81,-49.44,1785100770913.1938
0.257,-0.387,-0.716,-41.96,-42.12,-46.45,1785100770923.763
0.285,-0.405,-0.723,-38.82,-42.66,-42.73,1785100770937.0261
0.314,-0.397,-0.734,-34.76,-43.79,-38.58,1785100770943.0908
0.343,-0.365,-0.78,-31.1,-45.01,-33.48,1785100770953.454
0.354,-0.346,-0.808,-28.17,-44.65,-27.8,1785100770966.732
0.337,-0.346,-0.817,-27.59,-44.31,-23.53,1785100770972.685
0.318,-0.339,-0.822,-28.11,-43.4,-20.17,1785100770983.207
0.304,-0.34,-0.842,-26.58,-42.42,-16.11,1785100770993.9329
0.311,-0.336,-0.87,-23.99,-41.2,-12.45,1785100771007.072
0.317,-0.333,-0.89,-20.87,-39.28,-10.01,1785100771013.154
0.322,-0.332,-0.896,-18.62,-37.78,-7.87,1785100771023.467
0.322,-0.324,-0.88,-18.49,-38.12,-5.86,1785100771034.0159
0.323,-0.307,-0.858,-18.92,-39.8,-3.57,1785100771047.19
0.324,-0.307,-0.843,-17.52,-42.18,-0.76,1785100771053.001
0.32,-0.308,-0.847,-15.96,-44.01,2.08,1785100771063.458
0.316,-0.299,-0.876,-15.11,-44.89,5.25,1785100771073.984
0.31,-0.282,-0.914,-14.8,-44.77,8.36,1785100771087.2642
0.307,-0.276,-0.96,-15.84,-44.13,10.77,1785100771093.436
0.3,-0.28,-1.002,-19.35,-42.82,11.81,1785100771103.6
0.295,-0.278,-1.005,-25.3,-41.35,12.02,1785100771116.947
0.294,-0.289,-0.97,-28.99,-41.26,13.06,1785100771122.8108
0.294,-0.324,-0.925,-26.12,-42.57,14.34,1785100771133.375
0.303,-0.357,-0.935,-17.3,-44.31,15.59,1785100771144.053
0.298,-0.321,-0.931,-8.39,-46.24,18.92,1785100771157.213
0.302,-0.26,-0.915,0.03,-49.56,24.93,1785100771163.1548
0.305,-0.22,-0.93,6.2,-52.86,29.66,1785100771173.4941
0.291,-0.195,-0.93,6.81,-55.57,31.16,1785100771183.991
0.268,-0.192,-0.929,2.99,-58.78,31.01,1785100771197.234
0.246,-0.199,-0.935,-2.93,-61.16,30.92,1785100771203.2827
0.225,-0.218,-0.909,-7.6,-63.17,31.4,1785100771213.4048
0.211,-0.276,-0.906,-8.67,-66.1,31.77,1785100771224.567
0.196,-0.339,-0.961,-7.72,-67.51,30.46,1785100771237.217
0.17,-0.372,-1.005,-6.62,-66.65,29.11,1785100771243.308
0.146,-0.374,-1.001,-5.89,-65.77,29.36,1785100771253.3728
0.131,-0.37,-0.98,-6.41,-66.35,30.27,1785100771263.967
0.107,-0.362,-0.924,-9.4,-68.67,31.16,1785100771277.335
0.076,-0.343,-0.86,-13.82,-73.43,32.81,1785100771283.1401
0.056,-0.329,-0.842,-17.12,-78.43,34.58,1785100771293.897
0.056,-0.334,-0.895,-19.87,-81.79,34.24,1785100771306.846
0.063,-0.344,-1.002,-23.9,-82.13,30.46,1785100771312.8938
0.051,-0.349,-1.063,-28.66,-79.44,24.84,1785100771323.394
0.028,-0.381,-1.06,-32.07,-77.0,20.26,1785100771333.9597
-0.003,-0.436,-1.057,-32.47,-75.72,15.9,1785100771347.2441
-0.044,-0.473,-1.035,-30.15,-74.74,12.57,1785100771353.097
-0.072,-0.477,-1.004,-23.29,-74.71,11.11,1785100771363.678
-0.063,-0.478,-1.05,-12.91,-74.19,10.53,1785100771376.9788
-0.064,-0.429,-1.095,-5.68,-71.35,9.89,1785100771383.056
-0.07,-0.363,-1.101,-2.99,-67.51,10.47,1785100771393.168
-0.082,-0.312,-1.1,-6.26,-63.23,9.98,1785100771403.5579
-0.117,-0.287,-1.045,-15.02,-59.91,7.29,1785100771416.8188
-0.14,-0.296,-0.996,-24.05,-58.32,3.33,1785100771422.395
-0.152,-0.343,-0.944,-28.96,-56.06,-0.82,1785100771432.8562
-0.177,-0.375,-0.918,-27.59,-54.38,-4.15,1785100771443.5962
-0.177,-0.379,-0.967,-21.67,-52.52,-5.28,1785100771456.819
-0.179,-0.331,-1.022,-17.12,-49.56,-4.94,1785100771462.746
-0.184,-0.292,-1.056,-13.86,-46.72,-3.33,1785100771472.99
-0.16,-0.305,-1.09,-12.33,-43.58,-3.66,1785100771483.5498
-0.171,-0.298,-1.072,-14.95,-40.65,-5.71,1785100771496.9402
-0.194,-0.291,-1.049,-17.46,-37.84,-6.71,1785100771502.8538
-0.198,-0.297,-1.027,-18.65,-34.67,-7.48,1785100771513.042
-0.219,-0.303,-0.997,-19.26,-32.32,-8.27,1785100771523.5742
-0.237,-0.288,-0.986,-19.56,-31.34,-8.21,1785100771536.799
-0.235,-0.269,-0.972,-20.36,-30.76,-6.35,1785100771543.214
-0.239,-0.262,-0.968,-20.39,-30.37,-5.22,1785100771552.9978
-0.242,-0.255,-0.973,-20.66,-29.6,-5.52,1785100771563.5798
-0.274,-0.243,-0.947,-21.15,-28.96,-6.04,1785100771576.988
-0.293,-0.244,-0.945,-20.33,-28.93,-5.98,1785100771582.74
-0.287,-0.252,-0.94,-19.81,-28.9,-6.32,1785100771593.903
-0.279,-0.239,-0.936,-20.91,-29.85,-7.6,1785100771603.606
-0.291,-0.228,-0.946,-21.3,-31.13,-8.91,1785100771616.8289
-0.3,-0.21,-0.965,-22.49,-31.68,-9.77,1785100771622.846
-0.299,-0.202,-0.969,-24.75,-31.1,-10.71,1785100771633.119
-0.307,-0.218,-0.958,-26.61,-30.3,-12.57,1785100771643.8457
-0.306,-0.228,-0.96,-27.62,-29.76,-14.34,1785100771656.949
-0.307,-0.229,-0.944,-27.28,-28.84,-13.31,1785100771662.961
-0.333,-0.222,-0.919,-24.84,-28.32,-10.77,1785100771673.446
-0.339,-0.206,-0.901,-20.57,-28.14,-8.18,1785100771683.743
-0.348,-0.219,-0.894,-17.15,-27.89,-6.1,1785100771697.324
-0.341,-0.213,-0.882,-14.89,-28.41,-6.26,1785100771703.147
-0.339,-0.211,-0.878,-12.63,-29.05,-5.58,1785100771713.4631
-0.348,-0.202,-0.883,-11.63,-29.27,-5.07,1785100771723.988
-0.352,-0.194,-0.881,-12.27,-29.66,-4.61,1785100771737.237
-0.349,-0.185,-0.891,-14.16,-30.15,-4.64,1785100771743.631
-0.346,-0.192,-0.9,-16.3,-29.45,-6.01,1785100771753.408
-0.351,-0.191,-0.883,-18.74,-29.02,-7.6,1785100771764.0068
-0.355,-0.197,-0.872,-20.6,-29.45,-7.54,1785100771777.3672
-0.364,-0.196,-0.869,-21.15,-29.36,-6.87,1785100771783.176
-0.376,-0.19,-0.868,-20.08,-29.05,-5.86,1785100771793.5957
-0.376,-0.189,-0.878,-17.98,-28.35,-4.85,1785100771804.042
-0.376,-0.189,-0.887,-16.24,-26.89,-3.75,1785100771817.2532
-0.377,-0.198,-0.886,-14.22,-25.03,-2.96,1785100771823.219
-0.387,-0.205,-0.884,-11.63,-23.32,-2.41,1785100771833.445
-0.387,-0.204,-0.888,-9.34,-21.67,-1.86,1785100771844.3599
-0.391,-0.203,-0.887,-7.63,-20.17,-1.16,1785100771857.138
-0.393,-0.201,-0.899,-6.71,-18.68,-0.49,1785100771863.3
-0.392,-0.197,-0.898,-6.38,-17.03,0.12,1785100771873.1023
-0.404,-0.193,-0.903,-5.52,-14.31,-0.64,1785100771883.6018
-0.41,-0.199,-0.928,-5.43,-12.91,-1.4,1785100771894.135
-0.405,-0.21,-0.928,-5.98,-10.71,-1.74,1785100771907.251
-0.397,-0.224,-0.931,-3.72,-7.23,-1.77,1785100771913.154
-0.395,-0.225,-0.934,-1.01,-5.13,-2.26,1785100771923.203
-0.395,-0.225,-0.934,0.09,-3.91,-2.84,1785100771933.412
-0.4,-0.21,-0.938,0.95,-2.01,-2.41,1785100771943.912
-0.392,-0.206,-0.947,2.11,0.61,-2.2,1785100771957.031
-0.385,-0.208,-0.947,5.01,4.27,-1.8,1785100771962.744
-0.37,-0.211,-0.954,8.88,8.06,-1.07,1785100771972.7
-0.355,-0.216,-0.96,8.88,8.06,-1.07,1785100771983.22
-0.365,-0.218,-0.952,13.0,10.28,-0.49,1785100771993.83
-0.374,-0.227,-0.956,17.49,11.9,0.34,1785100772006.912
-0.386,-0.24,-0.966,21.24,14.31,0.58,1785100772012.9458
-0.392,-0.237,-0.978,22.92,16.85,0.06,1785100772023.118
-0.382,-0.237,-0.986,23.32,19.04,-0.61,1785100772033.657
-0.377,-0.245,-0.995,22.95,21.18,-1.86,1785100772046.9749
-0.381,-0.257,-1.022,21.61,22.71,-3.14,1785100772052.8
-0.376,-0.262,-1.035,19.75,25.15,-3.81,1785100772063.141
-0.37,-0.258,-1.047,17.82,28.02,-4.58,1785100772073.6902
-0.368,-0.246,-1.043,15.47,31.25,-4.49,1785100772086.8218
-0.367,-0.231,-1.036,13.12,34.7,-4.12,1785100772092.915
-0.359,-0.222,-1.043,11.63,38.54,-4.43,1785100772103.2078
-0.349,-0.217,-1.044,11.02,42.94,-4.97,1785100772113.7222
-0.344,-0.214,-1.048,11.17,47.36,-5.98,1785100772127.1128
-0.341,-0.221,-1.047,12.24,51.91,-6.9,1785100772132.8372
-0.339,-0.229,-1.039,13.95,56.31,-7.54,1785100772143.2449
-0.338,-0.232,-1.031,15.35,60.46,-8.06,1785100772153.685
-0.331,-0.234,-1.022,15.99,64.58,-8.39,1785100772166.916
-0.326,-0.24,-1.003,15.84,68.21,-8.91,1785100772172.801
-0.318,-0.24,-0.976,14.4,70.89,-9.64,1785100772183.1218
-0.309,-0.247,-0.953,12.97,72.79,-10.47,1785100772193.924
-0.297,-0.244,-0.929,12.05,73.82,-11.32,1785100772206.982
-0.279,-0.245,-0.921,11.93,74.92,-11.69,1785100772213.0881
-0.258,-0.252,-0.931,12.97,76.08,-12.33,1785100772223.467
-0.242,-0.258,-0.94,14.28,77.15,-12.67,1785100772236.703
-0.227,-0.266,-0.95,15.17,78.1,-12.85,1785100772243.0579
-0.217,-0.285,-0.951,16.36,78.92,-12.91,1785100772253.136
-0.205,-0.304,-0.951,17.82,79.44,-13.43,1785100772263.8071
-0.196,-0.315,-0.945,18.92,79.96,-14.34,1785100772277.204
-0.187,-0.309,-0.941,18.34,79.81,-14.86,1785100772283.425
-0.168,-0.295,-0.939,16.48,79.87,-14.65,1785100772293.642
-0.143,-0.3,-0.942,15.26,80.2,-14.5,1785100772306.792
-0.121,-0.312,-0.958,13.64,80.48,-14.74,1785100772312.79
-0.106,-0.313,-0.959,9.28,80.45,-15.11,1785100772323.168
-0.089,-0.313,-0.963,3.66,80.29,-14.71,1785100772333.702
-0.077,-0.316,-0.982,-2.08,80.84,-14.5,1785100772346.946
-0.079,-0.323,-0.989,-7.75,81.27,-14.65,1785100772352.8162
-0.075,-0.311,-0.971,-12.7,80.57,-14.77,1785100772363.2441
-0.049,-0.317,-0.969,-12.85,80.48,-14.65,1785100772373.888
-0.03,-0.337,-0.976,-9.25,81.09,-15.69,1785100772386.925
-0.02,-0.343,-0.976,-4.97,81.97,-17.03,1785100772392.8508
-0.005,-0.342,-0.983,-0.4,82.74,-17.76,1785100772403.147
0.011,-0.336,-0.973,4.0,83.62,-18.16,1785100772413.768
0.022,-0.329,-0.96,7.42,83.53,-18.28,1785100772427.281
0.036,-0.314,-0.96,8.76,83.47,-18.1,1785100772433.0508
0.054,-0.307,-0.96,9.0,84.17,-17.55,1785100772443.436
0.069,-0.317,-0.96,8.55,84.51,-17.55,1785100772454.026
0.084,-0.328,-0.956,6.87,84.05,-17.91,1785100772469.357
0.088,-0.325,-0.957,5.89,83.1,-18.07,1785100772473.19
0.102,-0.325,-0.963,5.68,82.77,-17.24,1785100772483.1592
0.114,-0.329,-0.947,5.77,82.19,-17.03,1785100772493.716
0.126,-0.335,-0.932,7.02,81.18,-17.64,1785100772507.0999
0.143,-0.337,-0.921,8.82,80.36,-18.19,1785100772513.105
0.157,-0.334,-0.922,9.77,79.35,-19.17,1785100772523.321
0.171,-0.319,-0.919,9.25,78.34,-20.14,1785100772533.8628
0.188,-0.317,-0.927,7.9,77.39,-20.42,1785100772547.124
0.204,-0.325,-0.938,5.58,77.12,-21.24,1785100772553.078
0.207,-0.318,-0.919,1.68,76.14,-21.91,1785100772563.3228
0.223,-0.308,-0.905,-1.22,74.56,-21.67,1785100772573.914
0.235,-0.301,-0.886,-3.23,73.12,-21.61,1785100772587.146
0.243,-0.296,-0.879,-5.86,71.47,-22.06,1785100772593.3308
0.253,-0.295,-0.873,-9.03,69.89,-22.4,1785100772603.3389
0.263,-0.292,-0.871,-12.7,68.18,-22.4,1785100772613.94
0.278,-0.286,-0.89,-17.15,67.17,-22.37,1785100772627.251
0.288,-0.262,-0.895,-22.64,66.77,-22.03,1785100772633.141
0.305,-0.253,-0.908,-26.83,67.02,-20.69,1785100772643.747
0.313,-0.251,-0.903,-30.58,67.87,-19.9,1785100772656.887
0.315,-0.25,-0.867,-34.3,66.93,-19.38,1785100772662.907
0.327,-0.253,-0.862,-36.62,65.25,-18.49,1785100772673.3901
0.333,-0.25,-0.86,-39.0,64.52,-18.1,1785100772684.0288
0.339,-0.24,-0.857,-41.41,63.63,-17.46,1785100772697.3318
0.35,-0.226,-0.852,-42.85,62.72,-16.33,1785100772703.3223
0.357,-0.21,-0.824,-43.7,61.31,-15.17,1785100772713.7769
0.363,-0.196,-0.784,-43.98,58.87,-14.01,1785100772726.943
0.373,-0.19,-0.769,-43.89,55.94,-12.79,1785100772732.749
0.383,-0.178,-0.764,-46.11,53.22,-12.33,1785100772743.5269
0.391,-0.156,-0.782,-50.02,50.69,-11.38,1785100772754.045
0.402,-0.134,-0.811,-54.05,49.1,-10.19,1785100772767.2
0.407,-0.115,-0.83,-58.75,47.27,-8.76,1785100772773.18
0.414,-0.104,-0.845,-63.23,45.08,-7.32,1785100772783.686
0.42,-0.107,-0.836,-66.44,42.91,-6.29,1785100772796.875
0.422,-0.118,-0.829,-66.1,41.63,-5.52,1785100772802.718
0.424,-0.119,-0.804,-62.35,40.5,-4.94,1785100772813.025
0.435,-0.125,-0.815,-54.84,39.34,-3.48,1785100772823.5562
0.449,-0.12,-0.817,-46.72,39.06,-2.62,1785100772836.8098
0.454,-0.106,-0.8,-38.18,37.39,-2.29,1785100772843.136
0.461,-0.088,-0.81,-32.14,34.52,-1.01,1785100772853.0427
0.473,-0.059,-0.823,-30.88,32.56,0.31,1785100772863.6711
0.474,-0.038,-0.847,-34.91,30.7,2.47,1785100772876.9731
0.469,-0.023,-0.88,-42.51,30.95,4.12,1785100772883.074
0.467,-0.036,-0.892,-48.65,32.26,5.16,1785100772893.202
0.47,-0.061,-0.878,-48.92,33.88,5.19,1785100772903.627
0.479,-0.074,-0.845,-44.4,33.85,5.01,1785100772916.855
0.493,-0.079,-0.818,-37.51,32.81,6.26,1785100772922.776
0.51,-0.072,-0.796,-31.95,31.68,8.09,1785100772933.07
0.518,-0.062,-0.795,-29.36,29.94,9.67,1785100772943.44
0.523,-0.044,-0.807,-29.15,29.08,11.02,1785100772956.8372
0.523,-0.044,-0.808,-29.76,28.14,11.75,1785100772962.812
0.523,-0.05,-0.803,-30.03,27.04,11.78,1785100772973.269
0.526,-0.057,-0.795,-29.54,25.39,11.17,1785100772983.9412
0.536,-0.066,-0.78,-27.1,23.59,10.1,1785100772997.178
0.539,-0.062,-0.781,-22.95,21.73,9.34,1785100773003.2761
0.542,-0.046,-0.773,-19.35,19.56,9.95,1785100773013.458
0.546,-0.043,-0.776,-17.0,16.97,10.32,1785100773026.7852
0.55,-0.037,-0.784,-16.27,15.44,8.48,1785100773032.861
0.542,-0.045,-0.791,-16.85,14.4,6.74,1785100773043.128
0.542,-0.044,-0.788,-16.02,13.06,5.37,1785100773053.546
0.551,-0.041,-0.785,-14.19,10.83,5.1,1785100773066.805
0.562,-0.021,-0.787,-12.18,8.76,4.64,1785100773072.753
0.566,0.003,-0.799,-12.27,6.59,4.46,1785100773082.826
0.578,0.027,-0.808,-16.75,5.37,5.43,1785100773093.366
0.575,0.016,-0.804,-23.77,3.78,7.2,1785100773103.7559
0.581,0.012,-0.794,-26.58,3.6,4.82,1785100773117.017
0.574,-0.003,-0.788,-28.6,2.72,2.93,1785100773123.282
0.575,-0.017,-0.774,-29.66,1.56,2.56,1785100773132.941
0.578,-0.031,-0.769,-26.89,-0.15,2.29,1785100773143.5498
0.575,-0.034,-0.774,-22.83,-1.01,1.59,1785100773153.8801
0.569,-0.032,-0.787,-18.62,-1.8,1.25,1785100773167.1438
0.578,-0.033,-0.772,-14.89,-3.05,1.28,1785100773173.009
0.586,-0.027,-0.778,-12.15,-5.43,1.68,1785100773183.166
0.58,-0.01,-0.794,-11.6,-6.29,3.94,1785100773193.6318
0.578,0.0,-0.822,-9.31,-5.74,2.08,1785100773203.923
0.559,-0.005,-0.838,-10.65,-4.67,1.34,1785100773217.158
0.559,-0.005,-0.838,-11.87,-3.88,2.11,1785100773223.0342
0.556,-0.017,-0.835,-11.41,-4.36,2.59,1785100773233.0999
0.564,-0.029,-0.81,-9.34,-5.65,3.11,1785100773243.4968
0.583,-0.03,-0.772,-4.58,-7.66,3.2,1785100773253.717
0.597,-0.03,-0.74,1.22,-9.4,2.78,1785100773267.092
0.599,-0.008,-0.741,1.22,-9.4,2.78,1785100773272.692
0.592,0.016,-0.756,4.97,-10.59,2.53,1785100773282.856
0.585,0.023,-0.776,5.68,-11.69,1.83,1785100773293.4412
0.57,0.016,-0.798,4.82,-11.96,0.82,1785100773303.8062
0.557,0.004,-0.814,3.81,-12.09,0.24,1785100773317.054
0.544,-0.008,-0.83,2.69,-12.02,0.43,1785100773322.894
0.536,-0.022,-0.85,2.11,-12.97,1.53,1785100773333.006
0.537,-0.002,-0.836,2.62,-13.31,1.77,1785100773343.542
0.545,-0.015,-0.842,4.73,-12.21,2.93,1785100773353.903
0.547,-0.013,-0.824,5.83,-11.44,2.93,1785100773367.1548
0.556,-0.01,-0.797,6.62,-14.56,2.69,1785100773373.0078
0.564,-0.02,-0.777,7.87,-18.1,2.78,1785100773383.1392
0.562,-0.026,-0.776,11.2,-18.31,2.66,1785100773393.802
0.551,-0.029,-0.797,16.27,-17.64,1.65,1785100773406.9062
0.538,-0.029,-0.83,20.29,-17.73,0.09,1785100773412.909
0.527,-0.02,-0.843,23.13,-17.76,-0.49,1785100773423.252
0.527,-0.016,-0.856,24.45,-18.43,0.4,1785100773433.6992
0.529,-0.016,-0.872,22.68,-18.83,1.19,1785100773447.0388
0.525,-0.02,-0.883,20.42,-17.76,1.4,1785100773452.8298
0.522,-0.028,-0.893,19.65,-15.87,1.46,1785100773463.116
0.515,-0.033,-0.904,19.93,-14.1,1.56,1785100773473.6929
0.51,-0.031,-0.911,20.45,-12.36,1.74,1785100773487.008
0.513,-0.02,-0.873,20.87,-11.44,2.47,1785100773493.106
0.526,-0.016,-0.833,21.7,-12.88,3.17,1785100773503.1538
0.542,-0.006,-0.791,21.15,-14.89,3.05,1785100773513.709
0.544,-0.009,-0.753,19.07,-17.03,2.87,1785100773527.0632
0.536,-0.025,-0.744,16.27,-19.23,2.9,1785100773532.8582
0.525,-0.044,-0.765,13.15,-21.39,2.32,1785100773543.301
0.511,-0.056,-0.814,9.98,-22.74,1.07,1785100773553.61
0.49,-0.064,-0.863,7.48,-22.71,-0.06,1785100773564.061
0.477,-0.072,-0.892,6.53,-21.94,-0.85,1785100773577.471
0.474,-0.068,-0.88,7.14,-21.58,-0.95,1785100773583.117
0.487,-0.057,-0.884,8.15,-22.25,0.09,1785100773593.392
0.492,-0.04,-0.871,7.78,-22.19,1.22,1785100773603.4507
0.494,-0.041,-0.852,6.71,-22.49,2.14,1785100773616.853
0.497,-0.057,-0.865,4.46,-21.97,2.38,1785100773622.9639
0.484,-0.07,-0.879,1.07,-20.51,1.65,1785100773632.9092
0.469,-0.096,-0.9,-0.92,-19.26,1.1,1785100773643.487
0.46,-0.121,-0.905,-0.85,-17.79,0.09,1785100773653.846
0.454,-0.132,-0.857,2.72,-17.98,-1.19,1785100773667.0981
0.464,-0.143,-0.834,10.07,-20.23,-2.01,1785100773673.055
0.473,-0.129,-0.837,17.09,-21.58,-2.99,1785100773683.184
0.464,-0.097,-0.807,22.58,-23.74,-2.84,1785100773693.951
0.464,-0.093,-0.825,27.31,-26.31,-2.26,1785100773706.98
0.457,-0.093,-0.892,28.11,-26.61,-3.42,1785100773712.959
0.434,-0.094,-0.928,25.12,-24.35,-4.97,1785100773723.252
0.413,-0.1,-0.939,21.82,-22.4,-5.55,1785100773733.7532
0.414,-0.119,-0.981,21.33,-20.42,-5.16,1785100773746.9492
0.421,-0.114,-0.947,21.15,-18.65,-5.8,1785100773752.9019
0.43,-0.107,-0.883,23.87,-20.33,-5.52,1785100773763.1921
0.444,-0.096,-0.846,28.81,-23.38,-4.82,1785100773773.747
0.442,-0.071,-0.801,31.28,-26.22,-4.49,1785100773786.9858
0.425,-0.059,-0.77,29.88,-29.63,-3.63,1785100773793.194
0.417,-0.064,-0.789,23.99,-32.53,-3.23,1785100773803.193
0.405,-0.065,-0.835,15.2,-33.91,-3.75,1785100773813.741
0.394,-0.067,-0.889,6.44,-33.78,-4.3,1785100773827.082
0.389,-0.069,-0.944,-0.67,-32.53,-4.82,1785100773832.823
0.386,-0.077,-0.962,-4.82,-31.04,-5.8,1785100773843.247
0.385,-0.088,-0.949,-5.95,-30.88,-6.47,1785100773853.3728
0.392,-0.106,-0.967,-4.49,-30.85,-6.32,1785100773863.851
0.394,-0.11,-0.958,-3.33,-29.63,-6.23,1785100773877.2878
0.381,-0.1,-0.896,-2.2,-30.73,-5.71,1785100773882.988
0.382,-0.111,-0.888,1.22,-32.53,-4.94,1785100773893.1948
0.387,-0.123,-0.897,2.78,-32.53,-6.41,1785100773903.272
0.378,-0.117,-0.892,1.07,-33.08,-8.36,1785100773913.998
0.374,-0.122,-0.938,-1.19,-33.66,-8.67,1785100773927.3423
0.378,-0.129,-0.989,-5.46,-31.83,-8.76,1785100773933.0408
0.377,-0.109,-0.996,-10.25,-29.82,-8.33,1785100773943.424
0.385,-0.1,-0.997,-9.86,-28.2,-6.68,1785100773953.706
0.388,-0.106,-0.965,-5.62,-27.53,-5.95,1785100773966.983
0.372,-0.121,-0.9,1.83,-29.24,-6.68,1785100773972.9128
0.356,-0.14,-0.84,12.39,-32.26,-7.45,1785100773983.0342
0.334,-0.152,-0.799,23.38,-36.44,-7.97,1785100773993.73
0.317,-0.165,-0.775,32.84,-40.99,-8.06,1785100774006.7861
0.295,-0.171,-0.783,38.3,-45.38,-8.27,1785100774012.9019
0.284,-0.127,-0.808,35.92,-49.2,-7.26,1785100774023.187
0.289,-0.081,-0.811,29.97,-52.1,-3.33,1785100774033.6199
0.296,-0.086,-0.808,28.78,-54.78,-1.01,1785100774046.937
0.285,-0.101,-0.779,34.09,-58.08,-1.28,1785100774052.76
0.26,-0.105,-0.776,44.71,-62.65,-1.22,1785100774063.0168
0.234,-0.099,-0.811,53.35,-67.23,0.43,1785100774073.55
0.209,-0.102,-0.848,54.48,-70.44,2.32,1785100774086.815
0.194,-0.113,-0.882,47.98,-71.44,2.26,1785100774093.077
0.193,-0.134,-0.915,36.44,-71.08,-0.06,1785100774103.0269
0.189,-0.161,-0.94,23.5,-70.04,-3.08,1785100774113.672
0.179,-0.178,-0.936,12.33,-69.12,-4.64,1785100774126.97
0.174,-0.191,-0.93,6.44,-69.19,-4.12,1785100774132.724
0.174,-0.197,-0.932,4.82,-69.37,-3.23,1785100774143.172
0.168,-0.195,-0.946,6.81,-69.46,-2.14,1785100774153.2742
0.156,-0.195,-0.98,11.23,-69.12,-0.76,1785100774163.889
0.142,-0.194,-1.018,15.29,-67.32,0.73,1785100774177.276
0.146,-0.198,-1.056,17.79,-64.49,1.37,1785100774183.0498
0.146,-0.2,-1.085,18.89,-61.65,0.79,1785100774193.408
0.145,-0.21,-1.104,18.86,-58.35,-0.34,1785100774203.889
0.131,-0.236,-1.097,18.8,-55.7,-1.07,1785100774217.1099
0.114,-0.258,-1.096,18.74,-53.8,-1.53,1785100774223.0378
0.096,-0.252,-1.076,17.21,-51.33,-0.58,1785100774233.314
0.093,-0.252,-1.049,16.39,-49.38,1.8,1785100774243.9949
0.09,-0.249,-1.034,17.09,-48.31,2.81,1785100774257.109
0.085,-0.227,-1.028,17.79,-47.06,3.36,1785100774263.256
0.087,-0.232,-1.025,19.78,-45.17,4.06,1785100774273.309
0.074,-0.239,-1.013,21.39,-43.95,4.18,1785100774283.8699
0.061,-0.232,-1.002,21.58,-43.7,4.82,1785100774297.19
0.044,-0.214,-0.974,21.79,-43.98,5.58,1785100774302.993
0.028,-0.21,-0.975,24.35,-44.62,6.68,1785100774313.313
0.027,-0.21,-0.975,26.25,-44.34,6.93,1785100774323.857
0.018,-0.204,-0.972,25.91,-44.19,7.11,1785100774337.9253
0.014,-0.206,-0.975,24.81,-44.37,7.78,1785100774344.898
0.006,-0.209,-0.979,22.98,-44.47,8.03,1785100774353.034
0.006,-0.224,-0.998,21.21,-45.11,7.45,1785100774363.8667
-0.007,-0.238,-1.008,18.77,-44.43,5.1,1785100774377.169
-0.031,-0.256,-1.003,15.66,-43.52,3.45,1785100774383.208
-0.062,-0.281,-0.998,14.01,-42.15,3.57,1785100774393.429
-0.045,-0.304,-1.006,13.34,-41.11,4.79,1785100774403.875
-0.039,-0.294,-1.001,12.09,-40.93,5.31,1785100774417.143
-0.036,-0.295,-1.023,11.47,-40.59,5.25,1785100774423.07
-0.062,-0.292,-1.034,8.18,-39.34,4.12,1785100774433.222
-0.062,-0.281,-1.042,3.54,-37.2,3.14,1785100774443.72
-0.068,-0.28,-1.038,0.37,-34.85,3.42,1785100774456.9302
-0.082,-0.288,-1.024,-0.85,-32.59,4.46,1785100774462.799
-0.072,-0.294,-1.018,0.18,-30.61,5.62,1785100774472.815
-0.08,-0.275,-1.005,1.71,-29.45,6.32,1785100774483.0552
-0.094,-0.263,-1.005,4.43,-28.38,7.45,1785100774493.789
-0.094,-0.263,-1.005,7.51,-26.43,7.75,1785100774507.0479
-0.078,-0.263,-1.012,8.58,-24.2,7.57,1785100774513.0508
-0.084,-0.249,-1.015,8.64,-21.3,9.22,1785100774523.0051
-0.089,-0.252,-1.014,8.15,-19.32,9.58,1785100774533.4822
-0.081,-0.262,-1.017,7.39,-17.67,7.84,1785100774544.071
-0.085,-0.261,-1.009,7.39,-17.67,7.84,1785100774557.158
-0.114,-0.262,-0.995,8.12,-15.87,7.32,1785100774563.201
-0.097,-0.27,-0.988,9.8,-14.37,7.39,1785100774573.1343
-0.109,-0.27,-0.994,11.9,-13.12,7.45,1785100774583.711
-0.099,-0.283,-0.994,14.25,-10.93,8.88,1785100774597.0361
-0.093,-0.284,-0.997,15.63,-9.92,9.7,1785100774602.826
-0.103,-0.279,-0.999,15.17,-9.28,9.89,1785100774612.986
-0.116,-0.287,-0.995,13.52,-7.93,9.86,1785100774623.424
-0.118,-0.297,-0.987,11.2,-6.5,9.19,1785100774633.894
-0.111,-0.304,-0.989,9.0,-5.52,8.36,1785100774647.1108
-0.11,-0.308,-0.983,6.74,-4.94,7.08,1785100774652.607
-0.116,-0.31,-0.983,4.55,-4.7,5.68,1785100774662.808
-0.125,-0.31,-0.977,2.38,-4.18,4.3,1785100774673.166
-0.116,-0.317,-0.97,0.67,-3.57,3.66,1785100774683.646
-0.137,-0.308,-0.964,-0.82,-3.48,2.93,1785100774694.088
-0.136,-0.307,-0.958,-1.77,-3.05,3.97,1785100774707.144
-0.121,-0.308,-0.935,-2.11,-2.93,5.28,1785100774712.9832
-0.117,-0.303,-0.938,-0.79,-3.97,4.79,1785100774722.8533
-0.114,-0.303,-0.961,0.27,-4.64,2.75,1785100774733.249
-0.119,-0.302,-0.966,-1.16,-4.49,1.31,1785100774743.5222
-0.123,-0.299,-0.972,-2.75,-4.49,0.61,1785100774754.002
-0.115,-0.3,-0.975,-3.81,-4.36,-0.64,1785100774767.2498
-0.121,-0.295,-0.965,-4.43,-4.46,-1.8,1785100774772.9731
-0.134,-0.294,-0.958,-3.75,-4.03,-1.37,1785100774782.95
-0.134,-0.298,-0.946,-1.83,-3.6,0.31,1785100774793.4402
-0.137,-0.296,-0.943,1.16,-3.94,1.28,1785100774803.457
-0.125,-0.3,-0.949,3.63,-3.42,1.89,1785100774814.025
-0.129,-0.307,-0.944,4.15,-2.78,2.41,1785100774827.526
-0.129,-0.303,-0.942,3.78,-2.72,2.44,1785100774833.024
-0.127,-0.301,-0.942,4.15,-3.36,2.2,1785100774843.1511
-0.133,-0.303,-0.95,4.55,-3.81,1.59,1785100774853.41
-0.134,-0.304,-0.954,3.81,-3.39,1.5,1785100774863.753
-0.123,-0.304,-0.952,2.5,-2.9,1.53,1785100774877.145
-0.121,-0.303,-0.954,1.53,-2.78,1.31,1785100774882.653
-0.129,-0.302,-0.949,0.73,-2.66,0.79,1785100774892.8298
-0.131,-0.295,-0.953,-0.58,-2.69,0.12,1785100774903.0679
-0.122,-0.292,-0.952,-1.4,-2.32,-0.61,1785100774913.508
-0.127,-0.291,-0.944,-1.83,-2.08,-1.04,1785100774923.816
-0.138,-0.292,-0.937,-1.89,-1.77,-0.92,1785100774937.072
-0.15,-0.295,-0.933,-0.92,-1.4,0.0,1785100774942.923
-0.131,-0.303,-0.942,0.98,-1.31,1.37,1785100774952.76
-0.125,-0.294,-0.952,2.14,-1.62,1.53,1785100774963.1692
-0.129,-0.292,-0.958,2.81,-1.07,1.53,1785100774973.5352
-0.134,-0.301,-0.959,2.23,-0.09,1.25,1785100774983.7761
-0.131,-0.307,-0.96,1.1,0.58,0.76,1785100774997.22
-0.13,-0.307,-0.954,0.49,0.82,0.67,1785100775002.791
-0.128,-0.3,-0.948,0.37,1.04,1.04,1785100775012.885
-0.137,-0.293,-0.94,0.58,1.28,1.4,1785100775023.308
-0.149,-0.291,-0.935,1.04,1.53,1.71,1785100775033.7139
-0.131,-0.297,-0.933,1.92,2.08,2.14,1785100775043.905
-0.126,-0.294,-0.931,2.5,1.98,2.5,1785100775057.1848
-0.126,-0.29,-0.932,2.9,1.95,3.3,1785100775062.904
-0.131,-0.287,-0.924,3.02,1.62,3.48,1785100775072.86
-0.132,-0.291,-0.929,3.45,1.07,2.56,1785100775083.3062
-0.121,-0.304,-0.944,3.69,1.04,1.07,1785100775093.793
-0.125,-0.314,-0.942,2.38,1.25,0.27,1785100775103.932
-0.126,-0.312,-0.94,0.85,1.5,0.61,1785100775117.091
-0.128,-0.308,-0.938,0.27,0.95,1.04,1785100775122.8118
-0.137,-0.308,-0.933,0.06,0.18,1.28,1785100775132.958
-0.148,-0.313,-0.928,0.03,0.37,1.74,1785100775143.476
-0.139,-0.321,-0.927,-0.31,0.34,1.89,1785100775153.738
-0.13,-0.316,-0.929,-0.46,0.21,1.22,1785100775167.0862
-0.131,-0.316,-0.934,-0.27,0.85,0.58,1785100775172.634
-0.135,-0.31,-0.934,-1.28,0.92,0.0,1785100775182.677
-0.138,-0.305,-0.929,-2.2,0.31,-0.18,1785100775193.185
-0.133,-0.31,-0.928,-1.68,0.09,-0.21,1785100775203.433
-0.13,-0.31,-0.925,-0.85,0.37,-0.12,1785100775213.829
-0.135,-0.305,-0.921,0.4,0.79,0.24,1785100775227.177
-0.137,-0.304,-0.925,1.8,0.4,0.24,1785100775232.6719
-0.131,-0.303,-0.93,2.17,0.43,-0.06,1785100775242.774
-0.13,-0.3,-0.927,1.98,0.73,0.15,1785100775253.091
-0.13,-0.296,-0.921,2.72,0.67,0.55,1785100775263.4648
-0.131,-0.297,-0.928,4.18,0.43,0.18,1785100775273.8909
-0.134,-0.298,-0.933,5.04,1.01,-0.37,1785100775287.097
-0.142,-0.298,-0.931,5.28,1.62,-0.27,1785100775292.771
-0.135,-0.301,-0.928,5.58,2.35,0.34,1785100775302.8018
-0.141,-0.299,-0.924,5.52,2.69,0.27,1785100775313.211
-0.144,-0.296,-0.923,5.37,2.72,-0.18,1785100775323.643
-0.153,-0.297,-0.923,5.22,2.99,-0.15,1785100775333.915
-0.158,-0.304,-0.924,4.94,3.51,0.37,1785100775347.172
-0.159,-0.308,-0.928,4.61,3.94,0.52,1785100775352.797
-0.162,-0.307,-0.928,4.39,4.55,0.4,1785100775362.876
-0.161,-0.305,-0.924,4.39,4.82,0.73,1785100775373.251
-0.152,-0.302,-0.924,4.82,4.97,1.01,1785100775383.6028
-0.142,-0.297,-0.918,5.28,4.88,1.13,1785100775393.982
-0.136,-0.291,-0.918,5.89,4.39,1.34,1785100775407.249
-0.126,-0.288,-0.927,6.35,3.66,1.04,1785100775412.981
-0.113,-0.287,-0.93,5.74,2.81,0.18,1785100775422.941
-0.106,-0.288,-0.93,4.76,2.14,-0.34,1785100775433.368
-0.101,-0.293,-0.929,3.48,2.2,-0.79,1785100775443.696
-0.097,-0.297,-0.92,2.5,2.26,-1.01,1785100775454.0732
-0.096,-0.306,-0.918,2.78,1.34,-0.46,1785100775467.2917
-0.093,-0.312,-0.921,3.51,0.31,0.18,1785100775472.9841
-0.09,-0.313,-0.923,3.75,-0.43,0.67,1785100775482.798
-0.085,-0.318,-0.94,4.3,-1.1,1.34,1785100775493.212
-0.081,-0.328,-0.955,3.63,-1.04,1.37,1785100775503.5369
-0.081,-0.34,-0.962,1.46,-0.67,0.73,1785100775517.05
-0.082,-0.351,-0.965,-0.98,-0.61,0.37,1785100775523.0
-0.083,-0.353,-0.959,-3.02,-0.89,0.67,1785100775532.676
-0.085,-0.354,-0.96,-3.94,-1.22,1.01,1785100775543.159
-0.085,-0.351,-0.96,-4.67,-1.43,1.19,1785100775553.456
