ax,ay,az,gx,gy,gz,timestamp_ms
-0.132,-0.438,-0.926,4.73,-8.03,3.45,1785100575511.761
-0.13,-0.436,-0.911,3.94,-8.03,2.66,1785100575512.1611
-0.131,-0.429,-0.901,2.56,-8.09,1.16,1785100575512.4988
-0.145,-0.426,-0.896,0.85,-7.9,-0.46,1785100575512.833
-0.17,-0.421,-0.892,-1.19,-8.03,-1.59,1785100575513.1687
-0.185,-0.41,-0.872,-3.11,-7.97,-0.95,1785100575513.498
-0.175,-0.407,-0.873,-3.66,-7.2,0.52,1785100575513.855
-0.177,-0.405,-0.886,-3.05,-6.16,1.34,1785100575514.199
-0.176,-0.417,-0.901,-2.23,-4.73,1.65,1785100575514.5312
-0.172,-0.425,-0.895,-1.71,-4.18,2.01,1785100575514.892
-0.169,-0.443,-0.918,-0.76,-4.43,1.86,1785100575515.2422
-0.171,-0.47,-0.935,-1.31,-2.99,0.85,1785100575515.5872
-0.175,-0.481,-0.929,-2.47,-1.25,0.31,1785100575515.906
-0.18,-0.481,-0.926,-2.44,-0.37,0.58,1785100575516.2449
-0.179,-0.472,-0.923,-2.38,0.15,1.46,1785100575516.593
-0.175,-0.455,-0.905,-2.78,0.49,2.62,1785100575516.9219
-0.17,-0.437,-0.894,-2.14,0.52,3.23,1785100575517.2578
-0.173,-0.423,-0.893,-1.19,0.61,3.3,1785100575517.611
-0.176,-0.411,-0.882,-0.49,0.49,3.05,1785100575517.941
-0.172,-0.405,-0.875,0.37,0.06,2.66,1785100575518.262
-0.173,-0.401,-0.87,1.13,-0.46,2.04,1785100575518.5918
-0.175,-0.403,-0.871,1.71,-0.85,1.56,1785100575518.925
-0.176,-0.407,-0.869,1.92,-1.28,1.37,1785100575519.255
-0.175,-0.41,-0.874,2.47,-1.68,1.25,1785100575519.588
-0.171,-0.412,-0.888,3.39,-2.17,1.04,1785100575519.928
-0.173,-0.414,-0.897,3.51,-2.26,0.52,1785100575520.221
-0.172,-0.416,-0.903,2.96,-1.98,0.4,1785100575520.501
-0.17,-0.418,-0.904,2.35,-1.37,0.64,1785100575520.8
-0.173,-0.412,-0.893,2.29,-1.31,1.31,1785100575521.091
-0.169,-0.411,-0.893,2.5,-1.5,2.2,1785100575521.3708
-0.167,-0.408,-0.888,2.26,-0.98,2.87,1785100575521.67
-0.171,-0.409,-0.883,2.23,-0.46,3.36,1785100575521.978
-0.175,-0.413,-0.882,2.23,-0.4,3.23,1785100575522.297
-0.177,-0.42,-0.893,1.62,-0.21,2.75,1785100575522.6409
-0.173,-0.425,-0.895,0.34,0.31,2.32,1785100575522.9321
-0.176,-0.432,-0.897,-0.34,1.22,2.26,1785100575523.214
-0.182,-0.434,-0.903,-0.46,2.29,2.2,1785100575523.4922
-0.184,-0.431,-0.899,0.06,3.05,2.41,1785100575523.78
-0.177,-0.427,-0.894,1.68,4.18,2.44,1785100575524.099
-0.175,-0.427,-0.885,3.66,5.34,2.59,1785100575524.38
-0.174,-0.419,-0.867,5.37,6.16,3.51,1785100575524.672
-0.171,-0.412,-0.846,7.29,7.17,4.91,1785100575524.957
-0.171,-0.403,-0.827,10.04,8.15,6.32,1785100575525.244
-0.174,-0.398,-0.813,13.03,8.36,7.48,1785100575525.532
-0.17,-0.396,-0.808,15.44,7.63,8.12,1785100575525.82
-0.162,-0.396,-0.816,17.06,6.68,8.33,1785100575526.109
-0.162,-0.399,-0.82,17.0,6.26,8.79,1785100575526.389
-0.166,-0.396,-0.816,16.33,5.68,9.61,1785100575526.677
-0.166,-0.395,-0.81,16.39,4.85,10.62,1785100575526.967
-0.17,-0.394,-0.797,16.75,3.78,11.44,1785100575527.282
-0.171,-0.39,-0.785,17.3,2.72,12.48,1785100575527.58
-0.173,-0.381,-0.774,18.65,1.83,13.82,1785100575527.883
-0.178,-0.374,-0.762,21.76,1.07,15.84,1785100575528.153
-0.186,-0.365,-0.751,26.28,-0.46,17.82,1785100575528.409
-0.185,-0.36,-0.747,30.24,-2.84,19.93,1785100575528.6829
-0.184,-0.357,-0.733,31.65,-5.16,22.86,1785100575528.9888
-0.19,-0.348,-0.727,31.74,-7.45,26.52,1785100575529.259
-0.198,-0.34,-0.723,31.34,-8.88,31.22,1785100575529.539
-0.202,-0.349,-0.709,32.2,-9.58,34.97,1785100575529.81
-0.206,-0.379,-0.699,35.28,-10.19,37.11,1785100575530.0857
-0.217,-0.401,-0.699,38.94,-11.57,38.97,1785100575530.351
-0.226,-0.4,-0.691,41.51,-13.52,41.41,1785100575530.617
-0.231,-0.396,-0.682,43.15,-16.14,44.59,1785100575530.896
-0.238,-0.388,-0.674,43.43,-19.14,48.01,1785100575531.1658
-0.236,-0.395,-0.672,41.9,-21.49,51.82,1785100575531.4272
-0.242,-0.415,-0.67,38.73,-22.89,55.02,1785100575531.7012
-0.252,-0.43,-0.669,34.64,-23.87,57.25,1785100575531.9849
-0.275,-0.436,-0.671,30.03,-24.93,59.72,1785100575532.267
-0.293,-0.457,-0.676,26.18,-27.07,63.11,1785100575532.523
-0.305,-0.502,-0.692,23.68,-29.73,64.18,1785100575532.8052
-0.326,-0.538,-0.711,20.51,-32.26,63.78,1785100575533.075
-0.349,-0.554,-0.721,15.66,-34.49,63.91,1785100575533.3408
-0.359,-0.551,-0.731,10.13,-36.59,65.0,1785100575533.5989
-0.362,-0.539,-0.758,5.37,-38.06,66.23,1785100575533.86
-0.36,-0.524,-0.769,2.38,-37.39,67.72,1785100575534.1282
-0.356,-0.536,-0.757,3.39,-35.55,67.51,1785100575534.385
-0.373,-0.563,-0.737,9.0,-34.94,64.58,1785100575534.6738
-0.401,-0.567,-0.723,16.88,-36.38,61.92,1785100575534.951
-0.416,-0.56,-0.702,26.64,-38.36,61.37,1785100575535.288
-0.423,-0.548,-0.685,38.51,-39.95,62.23,1785100575535.624
-0.42,-0.54,-0.681,52.37,-40.99,63.45,1785100575535.926
-0.417,-0.536,-0.684,66.01,-41.47,64.7,1785100575536.178
-0.416,-0.521,-0.682,76.97,-40.93,66.26,1785100575536.436
-0.406,-0.508,-0.694,87.83,-37.97,68.24,1785100575536.738
-0.42,-0.546,-0.678,101.47,-34.67,68.3,1785100575537.012
-0.438,-0.578,-0.637,111.55,-35.13,66.93,1785100575537.266
-0.458,-0.584,-0.625,115.73,-36.87,66.41,1785100575537.503
-0.473,-0.605,-0.638,116.37,-38.21,67.23,1785100575537.7869
-0.492,-0.662,-0.689,115.02,-38.85,66.59,1785100575538.069
-0.518,-0.695,-0.729,106.42,-38.97,63.54,1785100575538.3208
-0.531,-0.699,-0.746,91.83,-38.12,60.91,1785100575538.557
-0.537,-0.679,-0.756,73.95,-36.35,59.36,1785100575538.799
-0.537,-0.641,-0.742,54.78,-34.79,58.2,1785100575539.0542
-0.534,-0.605,-0.71,37.08,-33.88,56.49,1785100575539.287
-0.532,-0.574,-0.668,22.64,-33.3,54.66,1785100575539.526
-0.534,-0.55,-0.643,11.41,-33.51,53.96,1785100575539.777
-0.534,-0.55,-0.643,0.37,-34.64,55.09,1785100575540.04
-0.542,-0.524,-0.622,-7.81,-36.87,56.46,1785100575540.271
-0.555,-0.517,-0.598,-9.7,-39.86,56.37,1785100575540.5078
-0.56,-0.557,-0.607,-7.78,-41.66,54.29,1785100575540.782
-0.576,-0.607,-0.636,-5.65,-42.51,53.29,1785100575541.014
-0.604,-0.61,-0.663,-5.65,-42.51,53.29,1785100575541.2512
-0.614,-0.582,-0.694,-2.08,-42.48,55.85,1785100575541.4873
-0.615,-0.545,-0.712,2.2,-40.65,59.08,1785100575541.727
-0.625,-0.48,-0.706,4.33,-39.09,61.95,1785100575541.949
-0.623,-0.433,-0.674,4.55,-36.93,64.52,1785100575542.1707
-0.635,-0.414,-0.619,4.52,-34.06,66.26,1785100575542.393
-0.654,-0.415,-0.552,6.01,-32.47,69.06,1785100575542.609
-0.674,-0.438,-0.504,10.32,-33.48,72.88,1785100575542.835
-0.693,-0.462,-0.497,15.78,-36.74,76.94,1785100575543.0588
-0.711,-0.464,-0.511,19.84,-39.49,80.26,1785100575543.314
-0.721,-0.452,-0.516,22.71,-41.32,84.02,1785100575543.551
-0.733,-0.445,-0.534,23.96,-42.73,87.19,1785100575543.7761
-0.752,-0.422,-0.556,20.75,-43.37,89.45,1785100575544.0051
-0.767,-0.383,-0.576,13.92,-43.4,91.4,1785100575544.231
-0.789,-0.35,-0.593,5.28,-43.18,92.72,1785100575544.4648
-0.819,-0.311,-0.598,-7.02,-42.94,93.87,1785100575544.6938
-0.842,-0.285,-0.59,-22.06,-42.02,96.35,1785100575544.925
-0.854,-0.306,-0.587,-37.08,-40.44,99.03,1785100575545.145
-0.883,-0.36,-0.569,-49.38,-38.91,99.37,1785100575545.3748
-0.906,-0.424,-0.533,-55.7,-38.18,98.57,1785100575545.602
-0.935,-0.448,-0.485,-55.94,-39.06,98.24,1785100575545.8281
-0.949,-0.427,-0.45,-49.35,-40.41,100.34,1785100575546.0479
-0.939,-0.423,-0.43,-35.83,-41.35,102.27,1785100575546.2798
-0.928,-0.422,-0.431,-19.14,-42.57,100.8,1785100575546.519
-0.921,-0.416,-0.445,-1.16,-43.43,97.2,1785100575546.7363
-0.921,-0.395,-0.457,16.17,-44.1,92.87,1785100575546.968
-0.918,-0.366,-0.48,31.46,-45.05,88.66,1785100575547.2
-0.916,-0.354,-0.525,44.13,-44.16,82.92,1785100575547.4739
-0.911,-0.356,-0.551,52.92,-41.08,74.89,1785100575547.738
-0.894,-0.356,-0.565,58.44,-37.93,65.16,1785100575547.9932
-0.88,-0.347,-0.578,60.43,-35.22,55.51,1785100575548.23
-0.874,-0.328,-0.567,59.14,-32.32,46.51,1785100575548.4468
-0.871,-0.309,-0.545,56.83,-29.94,38.21,1785100575548.659
-0.868,-0.294,-0.527,53.47,-28.6,29.91,1785100575548.8809
-0.86,-0.292,-0.522,49.23,-26.86,20.36,1785100575549.122
-0.862,-0.292,-0.528,44.25,-24.63,10.53,1785100575549.33
-0.867,-0.282,-0.528,38.06,-22.86,2.08,1785100575549.553
-0.871,-0.275,-0.533,31.71,-21.33,-5.01,1785100575549.761
-0.871,-0.274,-0.545,25.3,-19.81,-10.99,1785100575549.981
-0.868,-0.282,-0.557,19.35,-18.01,-16.02,1785100575550.184
-0.867,-0.282,-0.565,14.74,-15.81,-19.84,1785100575550.402
-0.87,-0.267,-0.563,11.44,-14.01,-21.55,1785100575550.6182
-0.871,-0.246,-0.55,9.22,-12.67,-21.3,1785100575550.825
-0.873,-0.214,-0.536,6.44,-12.18,-19.9,1785100575551.038
-0.865,-0.205,-0.534,3.45,-11.69,-18.37,1785100575551.256
-0.856,-0.214,-0.537,0.15,-11.08,-17.52,1785100575551.4722
-0.852,-0.23,-0.534,-3.3,-10.04,-16.66,1785100575551.688
-0.846,-0.246,-0.529,-5.16,-9.31,-15.47,1785100575551.902
-0.836,-0.257,-0.532,-5.07,-8.61,-13.76,1785100575552.1128
-0.828,-0.265,-0.547,-3.42,-7.14,-11.44,1785100575552.317
-0.833,-0.249,-0.54,-1.43,-5.13,-8.21,1785100575552.5278
-0.838,-0.208,-0.517,-0.34,-4.61,-3.02,1785100575552.743
-0.819,-0.211,-0.519,1.16,-3.91,1.56,1785100575552.9448
-0.817,-0.231,-0.511,2.78,-2.2,3.63,1785100575553.157
-0.822,-0.236,-0.494,5.16,-1.53,6.13,1785100575553.4238
-0.82,-0.239,-0.494,8.85,-1.53,9.67,1785100575553.629
-0.821,-0.244,-0.503,12.18,-0.76,12.67,1785100575553.854
-0.831,-0.244,-0.51,13.31,-0.24,14.37,1785100575554.07
-0.837,-0.244,-0.509,12.54,-0.09,16.02,1785100575554.282
-0.839,-0.252,-0.512,11.38,0.52,17.52,1785100575554.4883
-0.843,-0.255,-0.512,10.32,1.34,18.77,1785100575554.708
-0.846,-0.261,-0.504,9.64,2.32,20.05,1785100575554.9219
-0.847,-0.27,-0.494,9.83,3.08,21.18,1785100575555.125
-0.848,-0.277,-0.481,10.16,3.69,21.73,1785100575555.337
-0.85,-0.279,-0.468,10.04,4.18,21.58,1785100575555.547
-0.855,-0.273,-0.448,9.28,4.27,21.24,1785100575555.753
-0.854,-0.263,-0.437,8.36,4.46,20.75,1785100575555.942
-0.853,-0.263,-0.432,7.69,5.04,19.75,1785100575556.137
-0.858,-0.287,-0.423,5.01,7.48,11.29,1785100575556.713
-0.854,-0.299,-0.419,3.97,8.61,8.51,1785100575556.9092
-0.055,-0.632,-0.982,-56.52,-11.69,21.79,1785100575557.186
-0.063,-0.695,-0.989,-42.7,-6.56,19.71,1785100575557.412
-0.08,-0.709,-0.954,-27.1,-2.44,15.66,1785100575557.609
-0.091,-0.666,-0.892,-11.17,-0.7,12.76,1785100575559.1372
-0.079,-0.605,-0.866,3.36,-0.31,11.87,1785100575569.639
-0.071,-0.556,-0.882,11.26,-0.46,8.67,1785100575580.0588
-0.075,-0.525,-0.946,10.32,1.16,1.07,1785100575593.302
-0.092,-0.548,-0.997,5.52,4.3,-9.19,1785100575598.824
-0.106,-0.591,-1.064,2.32,8.55,-19.32,1785100575609.222
-0.133,-0.613,-1.082,0.67,12.73,-28.63,1785100575619.7278
-0.141,-0.589,-1.087,2.9,15.78,-34.76,1785100575630.282
-0.139,-0.572,-1.089,9.31,18.8,-39.12,1785100575643.5872
-0.141,-0.563,-1.08,15.9,21.67,-44.56,1785100575649.244
-0.14,-0.57,-1.068,20.11,23.9,-51.82,1785100575659.9832
-0.139,-0.594,-1.068,21.33,25.67,-60.64,1785100575673.1729
-0.145,-0.614,-1.075,19.84,27.71,-69.67,1785100575678.95
-0.155,-0.608,-1.059,17.55,29.42,-77.06,1785100575689.6511
-0.147,-0.578,-1.046,16.39,30.0,-82.06,1785100575700.3037
-0.124,-0.544,-1.033,16.02,29.6,-84.9,1785100575713.6628
-0.106,-0.511,-1.002,13.92,28.38,-87.56,1785100575719.338
-0.088,-0.485,-0.986,9.16,26.4,-90.18,1785100575729.974
-0.066,-0.47,-0.981,1.43,25.06,-92.9,1785100575740.555
-0.054,-0.468,-0.971,-9.06,23.68,-95.25,1785100575753.924
-0.044,-0.469,-0.958,-21.27,22.58,-96.99,1785100575759.9768
-0.044,-0.482,-0.932,-33.23,22.03,-98.64,1785100575770.289
-0.042,-0.491,-0.896,-43.89,20.94,-99.7,1785100575783.54
-0.027,-0.489,-0.848,-52.1,19.07,-99.77,1785100575789.4468
0.0,-0.482,-0.792,-56.34,16.17,-98.91,1785100575799.9968
0.038,-0.452,-0.775,-57.19,12.54,-97.42,1785100575810.798
0.068,-0.412,-0.778,-56.55,9.95,-95.43,1785100575823.8982
0.079,-0.362,-0.767,-56.79,7.87,-92.84,1785100575829.818
0.097,-0.32,-0.764,-57.19,6.1,-90.21,1785100575840.11
0.119,-0.303,-0.762,-56.52,5.01,-88.11,1785100575850.539
0.136,-0.303,-0.76,-54.81,4.36,-86.03,1785100575863.9202
0.146,-0.3,-0.756,-53.01,4.3,-83.99,1785100575869.7988
0.15,-0.286,-0.75,-50.08,5.1,-80.9,1785100575880.0828
0.159,-0.266,-0.722,-45.38,5.77,-76.69,1785100575890.677
0.185,-0.247,-0.682,-39.46,4.24,-71.57,1785100575903.954
0.218,-0.224,-0.653,-32.78,0.98,-65.71,1785100575909.91
0.243,-0.213,-0.63,-26.49,-2.9,-60.21,1785100575919.822
0.245,-0.197,-0.586,-21.91,-7.42,-55.76,1785100575930.623
0.236,-0.171,-0.537,-18.4,-13.61,-51.27,1785100575943.995
0.231,-0.162,-0.516,-14.47,-20.14,-46.14,1785100575949.836
0.221,-0.157,-0.52,-11.72,-25.39,-42.42,1785100575960.433
0.218,-0.147,-0.553,-9.7,-29.08,-38.88,1785100575973.5942
0.228,-0.153,-0.607,-8.36,-30.67,-35.95,1785100575979.5388
0.24,-0.148,-0.639,-10.74,-32.69,-34.27,1785100575989.889
0.265,-0.14,-0.668,-15.35,-35.19,-32.56,1785100576000.5278
0.283,-0.149,-0.689,-19.68,-37.45,-30.46,1785100576013.793
0.284,-0.164,-0.703,-23.38,-40.38,-27.83,1785100576019.712
0.277,-0.178,-0.708,-25.54,-42.45,-24.63,1785100576030.277
0.269,-0.203,-0.709,-24.78,-43.82,-21.12,1785100576043.5999
0.264,-0.228,-0.707,-20.84,-44.74,-18.89,1785100576049.731
0.252,-0.233,-0.708,-15.75,-46.45,-17.46,1785100576060.0881
0.247,-0.217,-0.715,-11.72,-49.5,-14.53,1785100576070.558
0.25,-0.173,-0.698,-9.13,-53.59,-9.98,1785100576083.773
0.266,-0.141,-0.707,-5.89,-58.11,-5.04,1785100576089.581
0.275,-0.134,-0.739,-4.24,-62.17,-1.28,1785100576099.753
0.272,-0.131,-0.732,-4.67,-65.0,1.46,1785100576110.266
0.25,-0.157,-0.731,-3.23,-67.84,3.11,1785100576120.654
0.223,-0.191,-0.758,0.06,-70.96,3.08,1785100576133.908
0.192,-0.2,-0.765,3.14,-73.82,3.42,1785100576139.7278
0.173,-0.192,-0.779,6.16,-77.43,5.71,1785100576149.884
0.174,-0.188,-0.824,8.82,-80.66,8.21,1785100576160.377
0.184,-0.184,-0.863,10.25,-83.01,9.52,1785100576173.635
0.198,-0.182,-0.899,11.32,-85.09,9.67,1785100576179.585
0.198,-0.187,-0.936,12.39,-86.43,9.31,1785100576189.837
0.177,-0.19,-0.949,12.73,-87.07,10.19,1785100576200.499
0.145,-0.203,-0.954,13.55,-86.83,11.51,1785100576213.6628
0.115,-0.211,-0.954,14.28,-87.47,13.06,1785100576219.6172
0.103,-0.218,-0.969,15.2,-89.54,14.01,1785100576230.1719
0.083,-0.2,-1.002,15.38,-90.67,14.53,1785100576243.41
0.073,-0.17,-1.041,12.05,-90.91,17.12,1785100576249.332
0.085,-0.174,-1.074,5.83,-89.66,19.04,1785100576259.798
0.075,-0.207,-1.086,1.8,-87.16,17.58,1785100576270.282
0.052,-0.261,-1.106,2.96,-84.87,15.81,1785100576283.536
0.026,-0.284,-1.129,4.64,-82.37,15.72,1785100576289.423
0.012,-0.267,-1.141,6.1,-79.96,17.64,1785100576299.7607
0.004,-0.25,-1.137,8.0,-77.76,19.96,1785100576310.34
0.001,-0.251,-1.157,8.51,-75.69,20.23,1785100576323.543
-0.024,-0.255,-1.187,5.83,-72.97,18.59,1785100576329.508
-0.053,-0.25,-1.201,-0.18,-69.92,16.48,1785100576339.747
-0.066,-0.249,-1.202,-7.05,-66.81,14.25,1785100576350.296
-0.085,-0.255,-1.173,-12.91,-64.46,11.81,1785100576363.553
-0.098,-0.26,-1.14,-17.3,-63.26,9.98,1785100576369.695
-0.112,-0.26,-1.109,-18.46,-62.81,8.51,1785100576379.8188
-0.129,-0.253,-1.114,-15.59,-62.35,7.26,1785100576390.3657
-0.137,-0.244,-1.139,-11.69,-60.73,5.89,1785100576403.6228
-0.135,-0.246,-1.17,-7.08,-58.02,4.15,1785100576409.549
-0.153,-0.25,-1.166,-2.81,-54.45,2.5,1785100576419.6538
-0.177,-0.247,-1.153,0.34,-51.36,1.53,1785100576430.0898
-0.189,-0.255,-1.132,2.84,-48.92,0.7,1785100576440.685
-0.214,-0.26,-1.099,4.15,-47.73,-0.12,1785100576453.8828
-0.238,-0.257,-1.079,4.15,-47.06,-0.61,1785100576459.678
-0.232,-0.24,-1.093,2.81,-45.29,-0.58,1785100576469.814
-0.222,-0.224,-1.101,0.43,-41.75,-0.64,1785100576480.285
-0.231,-0.221,-1.099,-3.78,-38.67,-1.89,1785100576493.5159
-0.238,-0.224,-1.068,-8.42,-36.53,-3.14,1785100576499.599
-0.254,-0.221,-1.017,-9.83,-34.97,-2.87,1785100576509.664
-0.253,-0.21,-0.979,-8.76,-33.85,-1.98,1785100576519.868
-0.261,-0.184,-0.949,-8.91,-34.15,-1.22,1785100576530.4692
-0.255,-0.181,-0.927,-10.25,-36.87,0.49,1785100576543.78
-0.268,-0.19,-0.912,-11.63,-37.29,-0.27,1785100576549.564
-0.271,-0.209,-0.96,-13.25,-37.57,-2.26,1785100576559.9968
-0.267,-0.198,-0.999,-18.49,-38.91,-4.58,1785100576570.3528
-0.269,-0.196,-0.984,-22.64,-38.7,-6.81,1785100576583.6182
-0.269,-0.196,-0.984,-22.22,-36.99,-8.24,1785100576589.527
-0.275,-0.214,-0.966,-18.49,-35.86,-9.13,1785100576599.815
-0.292,-0.234,-0.947,-14.07,-35.43,-9.49,1785100576610.454
-0.307,-0.252,-0.924,-10.71,-35.55,-8.88,1785100576623.5981
-0.324,-0.243,-0.893,-10.71,-35.55,-8.88,1785100576629.5527
-0.342,-0.23,-0.882,-7.32,-36.5,-7.14,1785100576639.694
-0.33,-0.215,-0.898,-5.43,-36.62,-5.92,1785100576650.1829
-0.323,-0.208,-0.919,-6.38,-36.07,-5.8,1785100576660.7083
-0.339,-0.19,-0.936,-9.8,-35.34,-5.8,1785100576673.9143
-0.352,-0.188,-0.953,-13.82,-34.03,-6.23,1785100576679.948
-0.358,-0.19,-0.954,-18.71,-32.84,-7.23,1785100576690.027
-0.362,-0.182,-0.935,-23.29,-31.74,-7.14,1785100576700.6028
-0.383,-0.171,-0.915,-24.72,-30.52,-6.65,1785100576713.94
-0.388,-0.176,-0.924,-24.63,-30.3,-6.26,1785100576719.748
-0.39,-0.178,-0.914,-25.24,-28.99,-6.71,1785100576730.0369
-0.404,-0.183,-0.907,-24.93,-26.92,-7.78,1785100576740.572
-0.405,-0.202,-0.925,-23.62,-24.02,-8.3,1785100576753.688
-0.416,-0.203,-0.931,-21.85,-21.88,-8.36,1785100576759.448
-0.422,-0.192,-0.943,-19.17,-21.42,-7.84,1785100576770.0212
-0.422,-0.188,-0.946,-17.0,-21.15,-7.08,1785100576780.575
-0.424,-0.174,-0.933,-15.63,-20.66,-6.32,1785100576794.039
-0.43,-0.166,-0.927,-11.75,-18.86,-5.13,1785100576799.837
-0.424,-0.161,-0.917,-6.96,-17.06,-4.09,1785100576810.171
-0.428,-0.163,-0.913,-3.14,-16.21,-4.24,1785100576820.386
-0.438,-0.165,-0.924,-2.87,-16.27,-4.27,1785100576833.659
-0.44,-0.156,-0.928,-6.62,-16.39,-4.09,1785100576839.4612
-0.428,-0.148,-0.925,-10.65,-15.63,-3.57,1785100576849.719
-0.434,-0.16,-0.915,-12.57,-14.37,-3.75,1785100576860.3462
-0.438,-0.169,-0.91,-13.52,-13.79,-4.36,1785100576873.5208
-0.44,-0.172,-0.895,-13.58,-13.98,-4.91,1785100576879.502
-0.437,-0.171,-0.887,-13.52,-14.59,-4.67,1785100576889.6582
-0.439,-0.168,-0.881,-12.67,-15.02,-3.91,1785100576900.2559
-0.432,-0.17,-0.904,-11.35,-15.02,-3.14,1785100576913.5308
-0.441,-0.164,-0.923,-11.35,-14.71,-2.78,1785100576919.4382
-0.448,-0.159,-0.929,-11.78,-13.61,-2.47,1785100576929.709
-0.458,-0.169,-0.925,-11.38,-11.51,-2.72,1785100576940.23
-0.459,-0.175,-0.927,-10.59,-9.46,-2.9,1785100576953.521
-0.464,-0.178,-0.93,-9.67,-7.11,-2.81,1785100576959.242
-0.462,-0.172,-0.95,-7.63,-4.21,-2.56,1785100576969.208
-0.467,-0.165,-0.977,-4.06,-0.89,-2.32,1785100576979.605
-0.478,-0.166,-0.995,-1.13,2.99,-1.5,1785100576989.985
-0.483,-0.179,-1.037,1.5,8.48,-1.43,1785100577000.374
-0.496,-0.18,-1.059,3.3,15.26,-1.46,1785100577013.6562
-0.496,-0.185,-1.084,4.3,22.58,-1.01,1785100577019.464
-0.499,-0.18,-1.105,4.15,31.56,-1.01,1785100577029.612
-0.492,-0.17,-1.116,3.45,41.14,-0.76,1785100577040.051
-0.477,-0.188,-1.145,5.28,51.42,-0.98,1785100577050.507
-0.481,-0.192,-1.153,8.33,62.14,-1.68,1785100577063.7979
-0.498,-0.193,-1.131,12.73,71.5,-1.22,1785100577069.675
-0.466,-0.203,-1.135,18.65,80.23,-1.13,1785100577079.9229
-0.436,-0.191,-1.131,22.95,87.92,-1.56,1785100577090.4697
-0.406,-0.188,-1.15,26.52,95.25,-1.8,1785100577103.7021
-0.394,-0.199,-1.174,30.3,104.34,-3.63,1785100577109.803
-0.39,-0.214,-1.151,34.3,113.35,-5.34,1785100577120.1082
-0.377,-0.228,-1.104,40.56,119.39,-5.98,1785100577130.728
-0.372,-0.237,-1.06,47.58,122.81,-6.68,1785100577144.0242
-0.365,-0.243,-1.026,51.97,124.24,-7.54,1785100577149.897
-0.329,-0.245,-1.02,54.48,126.56,-8.7,1785100577160.5251
-0.296,-0.247,-0.998,56.58,128.57,-9.49,1785100577173.66
-0.263,-0.258,-1.008,57.47,129.58,-10.01,1785100577179.6338
-0.229,-0.265,-1.034,55.42,132.24,-11.38,1785100577190.301
-0.205,-0.267,-1.041,50.26,135.26,-12.82,1785100577203.5178
-0.192,-0.275,-1.002,42.21,135.78,-14.8,1785100577209.467
-0.175,-0.279,-0.947,33.17,133.37,-17.58,1785100577220.294
-0.146,-0.287,-0.907,26.37,129.76,-19.75,1785100577233.5623
-0.112,-0.292,-0.87,22.0,125.89,-21.06,1785100577239.505
-0.08,-0.284,-0.832,19.56,121.13,-21.91,1785100577250.2349
-0.038,-0.29,-0.832,19.5,116.46,-22.55,1785100577263.51
-0.001,-0.288,-0.862,18.74,112.86,-24.2,1785100577269.4343
0.037,-0.268,-0.895,15.38,110.05,-24.78,1785100577280.1753
0.078,-0.256,-0.926,10.9,107.88,-24.26,1785100577293.449
0.099,-0.251,-0.93,5.25,105.66,-23.9,1785100577299.363
0.1,-0.264,-0.934,0.37,102.63,-24.38,1785100577309.9849
0.084,-0.266,-0.903,-3.63,99.98,-24.35,1785100577320.5178
0.091,-0.294,-0.881,-6.5,95.55,-23.53,1785100577333.7632
0.113,-0.321,-0.881,-7.78,92.53,-24.48,1785100577339.678
0.139,-0.331,-0.876,-8.45,89.97,-25.18,1785100577350.006
0.173,-0.334,-0.891,-10.04,87.5,-24.78,1785100577360.6248
0.196,-0.308,-0.878,-14.16,84.66,-24.35,1785100577373.842
0.213,-0.263,-0.874,-17.91,80.69,-23.01,1785100577379.837
0.224,-0.243,-0.898,-19.38,79.2,-21.76,1785100577390.306
0.232,-0.251,-0.916,-21.36,79.26,-21.64,1785100577403.6018
0.234,-0.271,-0.919,-24.78,79.32,-22.34,1785100577409.489
0.228,-0.283,-0.888,-28.66,78.22,-23.53,1785100577420.01
0.238,-0.289,-0.866,-29.69,75.78,-23.04,1785100577430.724
0.263,-0.29,-0.849,-28.02,73.67,-21.82,1785100577443.943
0.284,-0.271,-0.838,-25.09,71.11,-20.94,1785100577449.919
0.304,-0.253,-0.866,-21.3,69.61,-20.23,1785100577460.364
0.316,-0.23,-0.892,-19.23,69.67,-20.45,1785100577473.617
0.32,-0.219,-0.891,-19.07,69.86,-20.33,1785100577479.621
0.323,-0.221,-0.847,-20.2,68.85,-20.42,1785100577490.1362
0.33,-0.221,-0.782,-21.82,65.25,-20.6,1785100577503.3281
0.347,-0.216,-0.791,-24.08,61.19,-20.84,1785100577509.295
0.367,-0.193,-0.848,-29.21,60.7,-21.55,1785100577519.774
0.372,-0.168,-0.905,-36.16,62.29,-22.06,1785100577530.5103
0.365,-0.142,-0.919,-44.47,63.57,-21.03,1785100577543.774
0.361,-0.114,-0.865,-51.79,61.65,-18.04,1785100577549.6143
0.368,-0.107,-0.816,-55.36,57.74,-14.28,1785100577560.225
0.393,-0.126,-0.825,-57.59,54.26,-10.35,1785100577573.3718
0.408,-0.13,-0.827,-58.41,52.16,-8.61,1785100577579.3547
0.415,-0.134,-0.832,-53.56,52.25,-8.27,1785100577589.6619
0.41,-0.151,-0.849,-45.75,51.85,-7.87,1785100577600.2341
0.408,-0.154,-0.856,-38.12,51.67,-8.06,1785100577613.556
0.403,-0.135,-0.873,-31.16,50.75,-7.69,1785100577619.3972
0.403,-0.118,-0.863,-25.76,49.53,-5.49,1785100577629.7168
0.401,-0.108,-0.86,-20.45,48.71,-3.75,1785100577640.258
0.392,-0.111,-0.861,-17.49,48.89,-1.86,1785100577653.585
0.389,-0.108,-0.863,-18.1,48.1,0.09,1785100577659.414
0.39,-0.1,-0.852,-22.46,46.08,1.89,1785100577669.728
0.397,-0.09,-0.846,-26.28,44.77,2.11,1785100577680.2612
0.394,-0.078,-0.843,-27.34,44.16,1.92,1785100577693.5999
0.399,-0.063,-0.831,-27.59,42.97,2.96,1785100577699.417
0.412,-0.046,-0.805,-26.12,41.14,3.69,1785100577709.829
0.415,-0.047,-0.789,-24.45,38.67,5.58,1785100577720.214
0.435,-0.032,-0.77,-22.13,37.57,6.44,1785100577733.546
0.444,-0.042,-0.772,-21.91,34.91,7.72,1785100577739.3699
0.445,-0.044,-0.765,-23.71,32.96,9.06,1785100577749.69
0.447,-0.079,-0.755,-25.09,29.73,11.87,1785100577760.4019
0.46,-0.098,-0.755,-21.33,26.64,9.43,1785100577773.555
0.458,-0.115,-0.762,-17.0,23.74,8.39,1785100577779.531
0.465,-0.109,-0.764,-11.69,21.85,8.94,1785100577789.783
0.477,-0.096,-0.773,-7.11,19.56,9.64,1785100577800.217
0.487,-0.081,-0.775,-3.81,16.97,9.98,1785100577810.7798
0.5,-0.083,-0.775,-0.64,14.07,10.56,1785100577823.903
0.508,-0.091,-0.781,1.86,10.96,11.44,1785100577829.901
0.521,-0.091,-0.771,5.65,8.21,11.35,1785100577840.013
0.526,-0.089,-0.788,10.99,5.49,9.16,1785100577850.516
0.523,-0.088,-0.804,12.63,4.15,7.93,1785100577863.873
0.523,-0.088,-0.804,12.85,3.78,5.95,1785100577869.6033
0.518,-0.09,-0.828,11.72,4.15,4.33,1785100577879.732
0.511,-0.087,-0.848,10.04,3.36,4.03,1785100577890.14
0.516,-0.09,-0.859,7.51,1.95,5.01,1785100577900.5142
0.525,-0.077,-0.861,3.94,0.64,6.74,1785100577913.6572
0.541,-0.066,-0.851,3.94,0.64,6.74,1785100577919.471
0.554,-0.066,-0.831,-0.46,-0.85,7.81,1785100577929.4897
0.562,-0.077,-0.795,-2.56,-2.26,7.9,1785100577939.8652
0.572,-0.084,-0.777,-2.17,-4.46,7.14,1785100577950.2512
0.572,-0.083,-0.771,-1.74,-6.23,6.29,1785100577960.703
0.568,-0.09,-0.803,-2.11,-7.14,5.1,1785100577973.835
0.548,-0.088,-0.84,-3.45,-6.9,3.94,1785100577979.5232
0.538,-0.097,-0.869,-4.36,-6.65,3.88,1785100577989.5261
0.529,-0.102,-0.882,-5.77,-6.13,4.58,1785100577999.891
0.532,-0.114,-0.879,-7.08,-5.34,5.77,1785100578010.3838
0.542,-0.121,-0.849,-7.93,-5.1,6.81,1785100578020.666
0.553,-0.121,-0.813,-7.26,-5.95,7.72,1785100578033.8372
0.557,-0.117,-0.792,-5.4,-7.32,8.0,1785100578039.5488
0.555,-0.117,-0.778,-2.53,-8.61,7.57,1785100578049.6067
0.551,-0.119,-0.774,1.16,-10.16,6.29,1785100578060.214
0.542,-0.118,-0.784,4.52,-11.29,5.04,1785100578070.587
0.526,-0.127,-0.798,7.97,-11.96,3.94,1785100578083.783
0.516,-0.126,-0.816,11.23,-12.82,2.96,1785100578089.67
0.511,-0.112,-0.842,13.28,-13.28,2.81,1785100578099.945
0.505,-0.105,-0.846,14.28,-13.21,3.11,1785100578110.604
0.509,-0.109,-0.838,14.4,-14.37,2.96,1785100578123.711
0.513,-0.098,-0.844,12.09,-15.2,2.84,1785100578129.703
0.509,-0.095,-0.848,9.55,-15.02,3.39,1785100578139.803
0.508,-0.1,-0.854,8.51,-14.74,3.63,1785100578150.311
0.503,-0.094,-0.839,7.9,-14.65,4.18,1785100578163.6218
0.515,-0.094,-0.803,8.42,-15.38,4.88,1785100578169.369
0.516,-0.098,-0.797,8.03,-17.0,4.46,1785100578179.484
0.521,-0.105,-0.798,5.22,-18.16,5.55,1785100578189.908
0.506,-0.127,-0.789,3.51,-19.07,5.49,1785100578200.5032
0.498,-0.156,-0.814,3.75,-20.39,4.79,1785100578213.655
0.484,-0.164,-0.871,4.0,-21.18,3.48,1785100578219.481
0.457,-0.166,-0.916,4.76,-19.47,2.08,1785100578229.582
0.452,-0.18,-0.928,8.12,-17.33,1.43,1785100578240.0542
0.464,-0.179,-0.898,13.49,-16.85,1.34,1785100578250.613
0.472,-0.164,-0.806,19.96,-19.65,2.72,1785100578263.884
0.481,-0.162,-0.75,26.64,-25.06,4.15,1785100578269.797
0.493,-0.147,-0.732,29.33,-27.56,3.78,1785100578280.056
0.485,-0.15,-0.773,26.73,-30.03,2.78,1785100578290.605
0.472,-0.151,-0.848,19.93,-30.95,1.34,1785100578303.8499
0.457,-0.136,-0.916,13.0,-29.3,0.06,1785100578309.802
0.451,-0.143,-0.985,10.99,-25.91,0.15,1785100578320.069
0.446,-0.163,-0.971,13.52,-21.85,-0.55,1785100578330.5918
0.439,-0.185,-0.863,21.52,-22.92,-1.34,1785100578343.9229
0.441,-0.206,-0.751,33.63,-28.05,-0.95,1785100578349.7632
0.436,-0.181,-0.641,43.12,-35.52,-0.64,1785100578360.04
0.443,-0.147,-0.654,46.08,-43.09,0.79,1785100578370.578
0.451,-0.104,-0.755,39.12,-45.05,1.74,1785100578383.8357
0.432,-0.077,-0.867,25.76,-42.82,1.8,1785100578389.78
0.402,-0.1,-0.966,12.85,-38.67,1.68,1785100578400.049
0.391,-0.147,-1.017,3.2,-35.0,0.85,1785100578410.535
0.381,-0.194,-1.022,-0.98,-32.93,0.64,1785100578423.7283
0.383,-0.22,-0.971,1.04,-31.25,1.16,1785100578429.6511
0.371,-0.228,-0.832,7.81,-33.3,2.35,1785100578439.728
0.371,-0.265,-0.762,18.92,-38.27,3.97,1785100578450.321
0.383,-0.262,-0.75,25.94,-40.93,2.35,1785100578463.594
0.371,-0.223,-0.704,25.03,-44.8,1.37,1785100578469.446
0.358,-0.213,-0.702,21.21,-49.9,2.81,1785100578479.859
0.359,-0.217,-0.77,14.74,-52.55,2.44,1785100578490.292
0.348,-0.205,-0.838,5.83,-53.56,1.77,1785100578503.5781
0.34,-0.208,-0.91,1.46,-52.74,2.29,1785100578509.343
0.334,-0.221,-0.974,3.14,-50.81,3.54,1785100578519.4858
0.332,-0.237,-1.014,8.51,-48.71,4.33,1785100578530.0059
0.33,-0.234,-1.042,13.89,-46.57,4.3,1785100578540.514
0.327,-0.217,-1.046,15.47,-43.89,3.91,1785100578554.441
0.321,-0.213,-0.979,13.25,-42.09,3.42,1785100578559.813
0.31,-0.232,-0.902,9.67,-43.37,2.41,1785100578569.8838
0.312,-0.236,-0.862,6.84,-45.08,0.92,1785100578580.262
0.322,-0.252,-0.868,5.68,-46.48,0.85,1785100578593.7102
0.319,-0.26,-0.871,5.62,-47.85,0.7,1785100578599.436
0.305,-0.24,-0.911,6.87,-49.44,0.7,1785100578609.6692
0.301,-0.22,-0.954,8.61,-49.2,2.44,1785100578619.968
0.3,-0.223,-0.983,9.19,-47.36,3.14,1785100578630.5288
0.292,-0.199,-1.032,5.43,-46.6,1.8,1785100578643.785
0.288,-0.18,-1.054,-0.61,-46.94,2.01,1785100578649.58
0.27,-0.205,-1.032,-2.5,-45.78,1.95,1785100578659.804
0.241,-0.228,-0.962,-0.21,-45.32,1.07,1785100578670.093
0.237,-0.258,-0.865,7.97,-49.26,0.61,1785100578680.6028
0.219,-0.277,-0.811,21.94,-55.67,0.89,1785100578693.9849
0.208,-0.281,-0.781,39.89,-61.8,3.72,1785100578699.769
0.191,-0.252,-0.79,57.34,-66.04,8.09,1785100578710.243
0.165,-0.217,-0.837,68.39,-68.24,13.25,1785100578720.637
0.139,-0.203,-0.892,70.22,-68.7,16.85,1785100578733.922
0.12,-0.216,-0.927,61.4,-68.61,16.72,1785100578739.553
0.112,-0.236,-0.936,43.92,-68.36,14.25,1785100578750.258
0.108,-0.255,-0.941,24.9,-68.79,12.39,1785100578763.742
0.085,-0.278,-0.928,9.49,-68.3,11.93,1785100578769.607
0.063,-0.296,-0.895,0.03,-68.42,12.12,1785100578779.9292
0.056,-0.311,-0.882,-2.78,-70.68,11.9,1785100578790.566
0.043,-0.299,-0.874,-2.62,-72.6,11.63,1785100578803.706
0.033,-0.282,-0.876,-1.28,-74.13,12.76,1785100578809.624
0.029,-0.278,-0.898,1.13,-75.17,13.03,1785100578819.926
0.028,-0.278,-0.922,2.23,-75.69,12.09,1785100578830.531
-0.0,-0.288,-0.936,3.11,-75.53,10.19,1785100578843.852
-0.035,-0.309,-0.934,5.1,-74.62,9.03,1785100578849.677
-0.04,-0.345,-0.979,8.36,-73.52,9.37,1785100578859.8818
-0.027,-0.349,-1.027,9.55,-70.93,10.16,1785100578870.2542
-0.021,-0.327,-1.035,9.43,-68.85,12.48,1785100578883.508
-0.014,-0.314,-1.064,9.7,-67.54,13.15,1785100578889.412
-0.059,-0.298,-1.051,9.8,-64.09,13.06,1785100578899.729
-0.051,-0.315,-1.052,13.7,-58.9,15.05,1785100578910.509
-0.038,-0.333,-1.042,18.77,-53.93,15.32,1785100578923.63
-0.077,-0.339,-1.027,21.64,-50.57,15.14,1785100578929.755
-0.078,-0.364,-1.025,22.4,-46.88,14.83,1785100578940.1091
-0.078,-0.358,-1.027,19.5,-43.52,13.37,1785100578950.756
-0.097,-0.353,-1.039,14.53,-41.41,12.05,1785100578964.0852
-0.099,-0.361,-1.044,9.83,-38.7,10.93,1785100578970.1387
-0.106,-0.35,-1.041,5.62,-35.4,9.64,1785100578980.169
-0.12,-0.339,-1.041,2.72,-30.79,9.8,1785100578990.5999
-0.091,-0.356,-1.033,2.26,-24.54,11.26,1785100579003.884
-0.108,-0.366,-1.013,2.11,-21.36,11.54,1785100579010.0522
-0.115,-0.349,-1.01,2.17,-19.04,9.16,1785100579019.9739
-0.104,-0.347,-1.002,2.87,-18.37,9.61,1785100579030.53
-0.11,-0.351,-1.029,2.47,-17.67,8.82,1785100579043.8188
-0.107,-0.349,-1.026,0.92,-14.68,6.23,1785100579049.6362
-0.111,-0.357,-1.011,-0.06,-12.94,5.01,1785100579059.818
-0.113,-0.359,-1.009,0.18,-12.02,4.03,1785100579070.1
-0.126,-0.354,-0.998,0.89,-11.41,2.93,1785100579080.666
-0.133,-0.353,-0.995,2.11,-11.26,2.01,1785100579094.082
-0.129,-0.355,-0.985,3.48,-10.38,1.5,1785100579099.6921
-0.129,-0.35,-0.978,3.6,-9.64,1.4,1785100579109.689
-0.141,-0.34,-0.974,3.27,-8.76,1.22,1785100579120.049
-0.127,-0.339,-0.981,2.62,-8.21,0.64,1785100579130.502
-0.12,-0.339,-0.981,1.59,-8.45,-0.92,1785100579143.777
-0.131,-0.34,-0.97,0.85,-8.27,-2.01,1785100579149.3171
-0.131,-0.34,-0.97,0.85,-7.93,-2.23,1785100579159.346
-0.127,-0.341,-0.973,1.37,-7.29,-1.92,1785100579169.8079
-0.122,-0.351,-0.967,1.07,-7.48,-1.5,1785100579180.1338
-0.131,-0.345,-0.963,0.15,-7.66,-1.1,1785100579190.4531
-0.135,-0.335,-0.963,-0.82,-7.39,-0.76,1785100579203.7617
-0.126,-0.334,-0.951,-0.82,-7.39,-0.76,1785100579209.617
-0.125,-0.331,-0.944,-1.65,-7.51,-0.85,1785100579219.432
-0.138,-0.325,-0.939,-2.32,-7.29,-1.4,1785100579229.7961
-0.135,-0.327,-0.94,-3.17,-6.93,-1.8,1785100579240.168
-0.133,-0.329,-0.947,-3.63,-6.16,-2.72,1785100579250.623
-0.14,-0.329,-0.949,-3.72,-5.16,-3.23,1785100579263.847
-0.155,-0.328,-0.937,-2.99,-5.01,-2.41,1785100579269.4348
-0.14,-0.327,-0.936,-0.58,-3.85,-1.16,1785100579279.5068
-0.132,-0.327,-0.945,1.74,-2.78,-0.4,1785100579289.8372
-0.126,-0.319,-0.943,2.41,-3.6,0.61,1785100579300.2087
-0.144,-0.307,-0.924,2.17,-2.62,0.46,1785100579310.7278
-0.161,-0.32,-0.926,2.75,-0.64,0.58,1785100579323.8608
-0.132,-0.347,-0.957,2.84,0.52,0.37,1785100579329.6719
-0.134,-0.344,-0.944,0.76,0.4,0.15,1785100579339.5251
-0.136,-0.348,-0.936,0.06,0.58,1.31,1785100579349.941
-0.133,-0.342,-0.938,-0.12,0.37,1.28,1785100579360.445
-0.129,-0.334,-0.943,-0.55,0.52,0.03,1785100579370.6738
-0.132,-0.335,-0.942,-1.19,0.79,-0.95,1785100579383.91
-0.146,-0.328,-0.931,-2.44,0.49,-1.8,1785100579389.5637
-0.174,-0.325,-0.908,-2.84,0.06,-1.5,1785100579399.6338
-0.147,-0.331,-0.916,-1.34,-0.18,-0.7,1785100579410.092
-0.143,-0.328,-0.92,0.09,-0.46,-1.37,1785100579420.368
-0.15,-0.33,-0.926,1.1,-0.61,-1.68,1785100579433.771
-0.144,-0.339,-0.934,1.07,0.12,-1.4,1785100579439.261
-0.148,-0.337,-0.926,-0.06,0.24,-0.55,1785100579449.375
-0.17,-0.336,-0.922,0.37,-0.4,0.15,1785100579459.9
-0.162,-0.345,-0.935,1.68,0.09,0.46,1785100579470.0688
-0.152,-0.351,-0.94,2.17,0.92,1.13,1785100579480.5398
-0.152,-0.349,-0.934,2.26,1.04,1.83,1785100579493.948
-0.153,-0.342,-0.929,2.2,0.52,2.08,1785100579499.193
-0.175,-0.332,-0.925,2.2,0.37,2.62,1785100579509.4678
-0.183,-0.34,-0.922,3.91,1.89,5.04,1785100579519.791
-0.153,-0.354,-0.922,6.84,3.02,7.26,1785100579530.175
-0.144,-0.343,-0.923,8.51,2.78,7.69,1785100579540.5527
-0.145,-0.331,-0.93,8.18,2.47,7.69,1785100579553.8052
-0.148,-0.334,-0.933,6.65,2.11,7.02,1785100579559.5159
-0.147,-0.341,-0.933,4.76,2.14,5.4,1785100579569.505
-0.143,-0.343,-0.933,2.72,2.38,3.23,1785100579579.884
-0.14,-0.341,-0.923,0.7,1.56,2.01,1785100579590.25
-0.149,-0.33,-0.91,-0.24,0.64,0.76,1785100579600.5928
-0.156,-0.325,-0.922,0.61,-0.27,-0.82,1785100579613.9478
-0.15,-0.334,-0.933,1.31,0.64,-1.37,1785100579619.494
-0.151,-0.338,-0.929,1.5,2.08,-0.92,1785100579629.5217
-0.142,-0.344,-0.925,1.95,2.38,0.21,1785100579639.873
-0.141,-0.342,-0.921,2.78,1.95,1.13,1785100579650.318
-0.151,-0.34,-0.915,3.66,1.71,1.56,1785100579660.809
-0.173,-0.34,-0.913,4.21,1.5,1.77,1785100579673.9011
-0.139,-0.346,-0.929,4.67,1.07,1.4,1785100579679.677
-0.132,-0.345,-0.935,3.36,1.4,0.12,1785100579689.561
-0.142,-0.347,-0.93,1.53,2.23,0.73,1785100579699.9768
-0.143,-0.354,-0.925,0.76,2.11,1.53,1785100579710.746
-0.139,-0.348,-0.916,0.61,1.4,1.59,1785100579720.748
-0.135,-0.339,-0.919,0.92,1.16,1.62,1785100579734.02
-0.135,-0.333,-0.913,1.22,0.98,1.53,1785100579739.6228
-0.147,-0.328,-0.911,1.43,0.52,1.22,1785100579749.651
-0.159,-0.337,-0.916,1.95,0.7,0.95,1785100579760.29
-0.142,-0.351,-0.913,2.38,0.92,1.34,1785100579770.4949
-0.135,-0.352,-0.917,2.41,0.52,1.8,1785100579783.7441
-0.14,-0.351,-0.924,2.01,-0.18,1.95,1785100579789.34
-0.139,-0.351,-0.926,1.31,-0.67,1.65,1785100579799.416
-0.138,-0.351,-0.929,0.37,-0.79,1.28,1785100579810.135
-0.138,-0.348,-0.923,-0.55,-1.1,0.95,1785100579820.0981
-0.137,-0.345,-0.921,-1.1,-1.34,0.43,1785100579830.531
-0.136,-0.346,-0.923,-1.34,-1.43,-0.06,1785100579843.836
-0.138,-0.341,-0.919,-1.8,-1.56,-0.43,1785100579849.524
-0.137,-0.336,-0.916,-1.5,-2.23,-0.73,1785100579859.5671
-0.147,-0.337,-0.921,-0.64,-2.29,-1.1,1785100579869.808
-0.15,-0.346,-0.933,-0.06,-1.37,-0.85,1785100579880.1912
-0.149,-0.352,-0.934,-0.15,-0.82,-0.34,1785100579890.561
-0.148,-0.353,-0.934,0.09,-0.73,0.09,1785100579903.811
-0.153,-0.356,-0.938,0.4,-0.82,0.18,1785100579909.518
-0.153,-0.359,-0.94,0.06,-0.52,0.18,1785100579919.54
-0.151,-0.358,-0.937,-0.73,-0.27,-0.03,1785100579929.987
-0.155,-0.352,-0.928,-1.37,0.27,-0.27,1785100579940.2727
-0.156,-0.348,-0.922,-1.22,0.27,-0.27,1785100579950.6528
-0.154,-0.345,-0.922,-0.85,0.24,-0.15,1785100579964.036
-0.149,-0.343,-0.923,-0.67,0.55,-0.31,1785100579969.574
-0.145,-0.342,-0.926,-0.67,0.46,-0.58,1785100579979.6199
-0.149,-0.336,-0.924,-0.52,-0.03,-1.16,1785100579989.956
-0.157,-0.337,-0.931,0.31,-0.4,-1.86,1785100580000.366
-0.145,-0.34,-0.939,1.16,0.4,-2.29,1785100580010.864
-0.141,-0.337,-0.94,1.31,1.01,-2.75,1785100580024.069
-0.142,-0.339,-0.936,1.28,1.19,-2.9,1785100580029.498
-0.152,-0.339,-0.924,1.22,1.22,-2.62,1785100580039.62
-0.148,-0.345,-0.924,2.11,1.43,-1.68,1785100580050.106
-0.136,-0.345,-0.925,2.66,1.89,-1.16,1785100580060.684
-0.134,-0.34,-0.922,2.75,2.17,-0.12,1785100580073.651
-0.134,-0.344,-0.92,2.56,2.2,0.4,1785100580079.4912
-0.136,-0.343,-0.92,1.53,2.14,0.03,1785100580089.307
-0.135,-0.344,-0.921,0.49,1.98,-0.43,1785100580099.8489
-0.14,-0.346,-0.917,-0.82,1.98,-0.82,1785100580110.365
-0.157,-0.343,-0.907,-1.77,1.86,-0.76,1785100580120.496
-0.154,-0.346,-0.912,-0.79,1.59,-0.52,1785100580133.7532
-0.14,-0.349,-0.922,0.46,1.8,-0.95,1785100580139.33
-0.138,-0.344,-0.926,0.46,1.86,-0.98,1785100580149.473
-0.141,-0.342,-0.923,0.34,1.86,-0.46,1785100580160.0242
-0.139,-0.344,-0.919,0.58,1.59,-0.18,1785100580170.136
-0.141,-0.344,-0.921,1.31,1.59,-0.34,1785100580180.569
-0.139,-0.35,-0.932,2.53,1.86,-0.4,1785100580193.856
-0.136,-0.353,-0.933,2.75,1.89,-0.61,1785100580199.48
-0.136,-0.354,-0.925,2.11,1.8,-0.61,1785100580209.504
-0.146,-0.35,-0.915,1.53,1.34,-0.73,1785100580219.82
-0.151,-0.348,-0.915,1.74,1.01,-0.52,1785100580230.237
-0.138,-0.353,-0.926,1.92,1.37,-0.4,1785100580240.558
-0.136,-0.348,-0.926,1.74,1.37,-0.7,1785100580253.854
-0.138,-0.346,-0.928,1.53,1.1,-0.49,1785100580259.63
-0.138,-0.348,-0.929,1.31,1.34,-0.52,1785100580269.557
-0.135,-0.349,-0.932,1.31,1.59,-0.55,1785100580279.9082
-0.133,-0.349,-0.931,1.4,1.95,-0.52,1785100580290.2761
-0.132,-0.351,-0.931,1.62,2.14,-0.49,1785100580300.6511
-0.133,-0.348,-0.924,1.56,2.14,-0.67,1785100580314.049
-0.142,-0.341,-0.92,1.95,1.71,-0.92,1785100580319.593
-0.135,-0.352,-0.932,2.78,1.8,-0.76,1785100580329.504
-0.126,-0.356,-0.935,2.72,2.17,-0.82,1785100580339.844
-0.128,-0.355,-0.934,2.2,1.98,-0.46,1785100580350.26
-0.127,-0.352,-0.935,1.98,1.8,0.34,1785100580360.8242
-0.127,-0.352,-0.93,2.04,1.74,0.52,1785100580373.943
-0.129,-0.356,-0.931,1.98,1.74,0.49,1785100580379.722
-0.128,-0.355,-0.928,1.56,1.98,0.49,1785100580389.677
-0.126,-0.355,-0.924,1.01,1.92,0.61,1785100580400.0872
-0.126,-0.356,-0.917,0.37,1.77,0.49,1785100580410.537
-0.125,-0.356,-0.918,-0.24,1.43,0.37,1785100580423.661
-0.131,-0.361,-0.918,-0.31,1.4,0.27,1785100580429.373
-0.131,-0.361,-0.918,-0.4,1.4,0.0,1785100580439.3599
-0.135,-0.366,-0.921,-0.73,1.59,-0.27,1785100580449.7988
-0.135,-0.371,-0.923,-1.04,1.71,-0.34,1785100580460.397
-0.133,-0.369,-0.925,-1.22,1.74,-0.06,1785100580470.521
-0.132,-0.369,-0.925,-1.1,1.86,0.06,1785100580483.827
-0.13,-0.37,-0.923,-1.1,1.86,0.06,1785100580489.4058
