ax,ay,az,gx,gy,gz,timestamp_ms
-0.402,-0.697,-0.526,0.7,-7.51,4.82,1785112438266.222
-0.412,-0.676,-0.534,4.0,-7.02,6.87,1785112438266.773
-0.4,-0.657,-0.558,5.01,-5.83,6.44,1785112438267.266
-0.415,-0.674,-0.542,1.68,-4.46,5.89,1785112438267.747
-0.439,-0.686,-0.579,-5.07,-5.43,7.6,1785112438268.218
-0.469,-0.662,-0.614,-12.27,-4.64,5.71,1785112438268.7202
-0.467,-0.652,-0.686,-20.6,-2.23,-0.52,1785112438269.2039
-0.477,-0.692,-0.762,-34.85,5.28,-8.15,1785112438269.679
-0.498,-0.784,-0.658,-48.71,7.87,-8.03,1785112438270.1252
-0.472,-0.876,-0.528,-43.49,5.62,-1.46,1785112438270.5237
-0.436,-0.805,-0.537,-15.75,2.44,1.83,1785112438270.9272
-0.407,-0.693,-0.523,3.51,0.85,3.48,1785112438271.33
-0.412,-0.617,-0.579,8.55,-3.2,2.59,1785112438271.7922
-0.442,-0.613,-0.669,4.94,-5.77,-1.59,1785112438272.234
-0.468,-0.681,-0.703,-1.59,-3.45,-8.06,1785112438272.629
-0.517,-0.774,-0.757,-10.96,0.4,-12.88,1785112438273.038
-0.52,-0.826,-0.73,-22.22,4.21,-11.35,1785112438273.4639
-0.475,-0.825,-0.671,-29.73,5.86,-6.59,1785112438273.8909
-0.437,-0.773,-0.632,-30.46,6.01,-4.46,1785112438274.2988
-0.429,-0.71,-0.586,-28.57,5.8,-5.43,1785112438274.71
-0.409,-0.681,-0.561,-22.34,5.04,-6.84,1785112438275.125
-0.402,-0.65,-0.57,-14.83,2.99,-8.76,1785112438275.5288
-0.411,-0.645,-0.61,-11.51,3.48,-10.35,1785112438275.9412
-0.434,-0.667,-0.644,-15.17,3.75,-10.99,1785112438276.369
-0.447,-0.69,-0.732,-23.04,3.6,-10.83,1785112438276.792
-0.442,-0.711,-0.731,-33.91,7.6,-10.9,1785112438277.19
-0.436,-0.734,-0.626,-40.13,10.32,-9.95,1785112438277.589
-0.42,-0.713,-0.508,-28.66,7.66,-6.07,1785112438277.964
-0.392,-0.678,-0.473,0.34,1.89,-4.82,1785112438278.296
-0.35,-0.618,-0.516,22.89,-1.77,-5.83,1785112438278.6328
-0.358,-0.551,-0.545,31.07,0.95,-7.39,1785112438278.979
-0.38,-0.534,-0.464,26.73,5.52,-7.63,1785112438279.338
-0.367,-0.53,-0.434,19.99,8.73,-7.11,1785112438279.678
-0.361,-0.47,-0.475,5.55,10.53,-4.39,1785112438280.0432
-0.366,-0.475,-0.662,-12.67,10.77,-4.0,1785112438280.4202
-0.399,-0.525,-0.66,-30.52,16.05,-6.23,1785112438280.7832
-0.434,-0.595,-0.651,-36.99,18.19,-3.69,1785112438281.154
-0.436,-0.654,-0.613,-27.99,17.64,1.13,1785112438281.499
-0.425,-0.665,-0.564,-11.2,17.24,4.36,1785112438281.853
-0.418,-0.683,-0.591,4.33,16.79,5.77,1785112438282.1938
-0.429,-0.693,-0.589,4.79,14.25,5.37,1785112438282.5571
-0.418,-0.709,-0.632,-1.89,14.44,5.16,1785112438282.902
-0.403,-0.723,-0.657,-8.94,16.57,2.78,1785112438283.2441
-0.415,-0.722,-0.687,-11.32,16.85,-0.49,1785112438283.599
-0.37,-0.706,-0.725,-10.1,15.47,-3.02,1785112438283.941
-0.363,-0.689,-0.793,-7.6,14.44,-8.91,1785112438284.306
-0.405,-0.703,-0.834,-5.4,16.63,-12.12,1785112438284.648
-0.438,-0.727,-0.829,-4.09,19.75,-11.63,1785112438284.993
-0.44,-0.751,-0.786,1.34,20.2,-9.95,1785112438285.352
-0.431,-0.731,-0.715,5.62,17.09,-7.81,1785112438285.722
-0.384,-0.741,-0.733,8.76,15.14,-5.4,1785112438286.028
-0.374,-0.706,-0.66,7.17,15.26,-6.5,1785112438286.335
-0.372,-0.675,-0.585,6.16,13.21,-5.1,1785112438286.6362
-0.354,-0.65,-0.59,7.05,10.44,-3.94,1785112438286.9329
-0.359,-0.617,-0.622,5.92,8.85,-4.85,1785112438287.23
-0.369,-0.614,-0.639,-0.15,8.58,-4.91,1785112438287.53
-0.375,-0.633,-0.654,-5.77,8.88,-4.33,1785112438287.828
-0.394,-0.644,-0.661,-7.2,9.16,-2.87,1785112438288.1238
-0.399,-0.635,-0.697,-4.82,9.61,-2.69,1785112438288.428
-0.384,-0.643,-0.673,-4.79,9.43,-3.3,1785112438288.728
-0.399,-0.668,-0.636,-5.95,9.22,-3.94,1785112438289.021
-0.408,-0.678,-0.644,-5.52,8.18,-4.15,1785112438289.3472
-0.406,-0.665,-0.631,-5.34,7.78,-4.49,1785112438289.674
-0.402,-0.661,-0.58,-6.47,6.07,-4.55,1785112438289.971
-0.388,-0.668,-0.575,-6.44,4.64,-3.85,1785112438290.283
-0.393,-0.657,-0.612,-4.55,4.03,-4.43,1785112438290.584
-0.409,-0.644,-0.593,-3.42,2.93,-4.24,1785112438290.9172
-0.407,-0.653,-0.624,-1.62,0.7,-3.81,1785112438291.209
-0.407,-0.638,-0.681,-0.7,0.76,-4.12,1785112438291.6028
-0.417,-0.634,-0.668,-2.96,2.14,-3.57,1785112438291.9932
-0.412,-0.649,-0.622,-5.31,2.62,-2.23,1785112438292.329
-0.407,-0.654,-0.617,-4.12,2.04,-1.71,1785112438292.625
-0.41,-0.646,-0.603,-2.08,0.89,-1.86,1785112438292.9302
-0.404,-0.634,-0.6,-1.04,0.0,-1.77,1785112438293.233
-0.407,-0.634,-0.641,-0.46,0.12,-2.32,1785112438293.534
-0.407,-0.634,-0.641,-2.87,1.62,-3.14,1785112438293.825
-0.415,-0.649,-0.697,-6.5,3.05,-5.19,1785112438294.107
-0.427,-0.686,-0.751,-9.31,4.33,-6.96,1785112438294.38
-0.428,-0.742,-0.741,-8.06,4.67,-7.81,1785112438294.655
-0.42,-0.755,-0.696,-1.65,3.17,-8.21,1785112438294.952
-0.41,-0.728,-0.648,-1.65,3.17,-8.21,1785112438295.231
-0.407,-0.72,-0.6,5.07,-0.43,-8.51,1785112438295.501
-0.405,-0.703,-0.685,8.55,-1.07,-8.7,1785112438295.7812
-0.388,-0.663,-0.757,8.36,3.23,-6.56,1785112438296.0652
-0.386,-0.632,-0.801,7.11,8.33,-5.01,1785112438296.348
-0.378,-0.628,-0.764,6.07,12.05,-3.3,1785112438296.631
-0.373,-0.648,-0.557,5.43,9.37,-2.41,1785112438296.921
-0.369,-0.64,-0.512,11.17,5.25,-1.22,1785112438297.2058
-0.358,-0.589,-0.578,22.37,0.12,2.2,1785112438297.48
-0.35,-0.574,-0.701,27.65,-4.76,2.9,1785112438297.77
-0.353,-0.584,-0.715,16.82,-1.16,2.2,1785112438298.063
-0.363,-0.599,-0.587,-0.79,2.78,3.39,1785112438298.337
-0.379,-0.624,-0.488,-6.9,0.21,5.65,1785112438298.6318
-0.391,-0.617,-0.418,-3.48,-5.89,8.09,1785112438298.912
-0.391,-0.568,-0.385,4.64,-12.82,11.14,1785112438299.196
-0.367,-0.502,-0.451,14.1,-20.84,14.22,1785112438299.474
-0.348,-0.469,-0.538,16.24,-25.33,15.66,1785112438299.76
-0.369,-0.467,-0.596,7.29,-25.61,17.21,1785112438300.034
-0.369,-0.527,-0.63,-4.33,-24.9,18.34,1785112438300.295
-0.396,-0.629,-0.619,-9.83,-23.77,17.67,1785112438300.589
-0.436,-0.714,-0.598,-6.87,-22.19,19.99,1785112438300.859
-0.442,-0.74,-0.535,7.87,-22.86,23.71,1785112438301.132
-0.447,-0.72,-0.505,32.72,-25.15,27.1,1785112438301.3918
-0.448,-0.648,-0.504,59.72,-26.28,31.95,1785112438301.659
-0.383,-0.529,-0.539,81.45,-26.06,38.61,1785112438301.945
-0.325,-0.438,-0.628,86.7,-26.0,41.99,1785112438302.219
-0.341,-0.447,-0.75,67.75,-24.35,38.97,1785112438302.488
-0.402,-0.536,-0.782,33.2,-16.57,32.93,1785112438302.757
-0.443,-0.644,-0.7,2.04,-8.0,29.33,1785112438303.0168
-0.472,-0.708,-0.687,-14.8,-4.09,28.32,1785112438303.274
-0.508,-0.716,-0.705,-24.96,-0.64,29.18,1785112438303.5361
-0.506,-0.7,-0.716,-31.89,0.73,29.73,1785112438303.8
-0.494,-0.704,-0.692,-32.75,2.35,28.11,1785112438304.066
-0.492,-0.761,-0.64,-21.0,1.92,26.25,1785112438304.343
-0.514,-0.802,-0.606,3.2,0.0,24.57,1785112438304.605
-0.513,-0.754,-0.586,27.99,-3.27,23.07,1785112438304.893
-0.488,-0.718,-0.633,44.47,-7.17,21.36,1785112438305.151
-0.487,-0.694,-0.655,44.34,-6.01,18.98,1785112438305.4258
-0.497,-0.685,-0.62,30.4,-2.41,17.09,1785112438305.6907
-0.453,-0.749,-0.579,17.52,-0.52,14.4,1785112438305.945
-0.496,-0.775,-0.628,11.2,1.16,7.26,1785112438306.21
-0.494,-0.72,-0.631,-9.61,5.92,1.65,1785112438306.505
-0.445,-0.766,-0.548,-25.45,8.79,0.76,1785112438306.7598
-0.438,-0.75,-0.579,-21.91,6.53,-3.91,1785112438307.0002
-0.447,-0.717,-0.592,-22.19,5.98,-6.07,1785112438307.256
-0.455,-0.747,-0.569,-20.87,7.81,-10.1,1785112438307.509
-0.443,-0.768,-0.542,-16.48,5.8,-11.6,1785112438307.758
-0.432,-0.739,-0.554,-7.87,3.6,-10.77,1785112438307.9988
-0.438,-0.729,-0.591,-2.2,2.9,-10.19,1785112438308.258
-0.432,-0.709,-0.573,-2.23,3.72,-9.74,1785112438308.512
-0.432,-0.709,-0.566,-1.59,4.67,-10.04,1785112438308.758
-0.43,-0.704,-0.578,-1.98,5.1,-9.92,1785112438309.0051
-0.43,-0.668,-0.577,-3.54,6.29,-9.25,1785112438309.25
-0.422,-0.64,-0.576,-4.73,7.81,-8.61,1785112438309.49
-0.418,-0.629,-0.523,-5.58,9.09,-7.78,1785112438309.734
-0.424,-0.633,-0.516,-0.49,7.72,-5.98,1785112438309.98
-0.424,-0.591,-0.552,1.53,7.32,-5.4,1785112438310.2322
-0.423,-0.592,-0.515,-3.08,9.19,-6.35,1785112438310.4692
-0.418,-0.645,-0.513,-6.38,10.86,-7.84,1785112438310.7231
-0.442,-0.659,-0.548,-5.83,11.63,-9.8,1785112438310.977
-0.454,-0.659,-0.571,-6.41,10.38,-7.51,1785112438311.2231
-0.449,-0.652,-0.578,-8.76,10.07,-4.03,1785112438311.533
-0.458,-0.636,-0.569,-11.02,10.96,-0.79,1785112438311.8132
-0.46,-0.602,-0.563,-14.62,9.86,3.48,1785112438312.0608
-0.463,-0.565,-0.561,-19.41,7.6,8.33,1785112438312.302
-0.475,-0.569,-0.552,-21.27,8.06,13.0,1785112438312.554
-0.477,-0.567,-0.477,-18.07,9.4,17.27,1785112438312.813
-0.514,-0.585,-0.353,-5.25,7.97,19.99,1785112438313.054
-0.522,-0.581,-0.359,14.71,5.07,25.12,1785112438313.304
-0.479,-0.498,-0.44,28.84,3.14,29.24,1785112438313.5513
-0.453,-0.419,-0.568,27.65,2.01,31.59,1785112438313.7898
-0.439,-0.471,-0.777,17.3,3.85,30.55,1785112438314.046
-0.483,-0.55,-0.805,-0.37,12.48,23.96,1785112438314.296
-0.528,-0.608,-0.669,-21.24,17.98,20.08,1785112438314.537
-0.504,-0.678,-0.579,-30.64,16.11,21.58,1785112438314.774
-0.463,-0.695,-0.542,-24.78,10.35,24.38,1785112438315.0188
-0.464,-0.682,-0.562,-7.57,4.67,23.26,1785112438315.257
-0.488,-0.687,-0.61,8.64,0.58,18.98,1785112438315.494
-0.492,-0.688,-0.611,15.84,-2.44,16.6,1785112438315.728
-0.49,-0.676,-0.599,15.93,-4.88,16.3,1785112438315.9712
-0.49,-0.655,-0.592,11.93,-5.83,15.32,1785112438316.215
-0.486,-0.628,-0.601,4.97,-6.16,13.52,1785112438316.446
-0.474,-0.607,-0.626,-2.23,-5.74,11.72,1785112438316.685
-0.455,-0.585,-0.662,-8.58,-4.24,10.44,1785112438316.9392
-0.44,-0.579,-0.691,-13.0,-1.71,10.04,1785112438317.181
-0.425,-0.605,-0.748,-14.86,-0.03,10.04,1785112438317.42
-0.435,-0.657,-0.819,-15.63,0.92,8.33,1785112438317.655
-0.443,-0.699,-0.803,-15.59,3.75,8.09,1785112438317.893
-0.444,-0.718,-0.762,-12.12,5.62,10.1,1785112438318.1301
-0.438,-0.703,-0.703,-5.58,5.71,12.24,1785112438318.374
-0.446,-0.693,-0.624,4.91,4.0,12.48,1785112438318.608
-0.432,-0.664,-0.633,17.98,1.13,12.45,1785112438318.8591
-0.42,-0.566,-0.634,25.61,-1.01,11.57,1785112438319.324
-0.421,-0.575,-0.676,16.3,1.01,11.69,1785112438319.5479
-0.469,-0.681,-0.487,53.38,-9.64,-8.09,1785112438319.867
-0.468,-0.616,-0.607,55.09,-15.87,-9.95,1785112438320.086
-0.467,-0.551,-0.702,45.75,-19.04,-10.96,1785112438320.306
-0.445,-0.519,-0.766,29.94,-18.83,-9.31,1785112438320.5278
-0.422,-0.508,-0.792,13.76,-15.78,-6.81,1785112438327.62
-0.405,-0.511,-0.785,-1.34,-11.78,-4.21,1785112438340.875
-0.384,-0.555,-0.762,-14.77,-7.29,-1.68,1785112438346.4329
-0.385,-0.624,-0.739,-24.63,-2.99,-0.21,1785112438356.775
-0.401,-0.673,-0.713,-30.0,0.15,0.95,1785112438367.289
-0.406,-0.709,-0.689,-30.18,1.92,1.77,1785112438380.554
-0.408,-0.742,-0.688,-26.03,2.9,0.89,1785112438386.143
-0.413,-0.772,-0.69,-19.71,4.24,-1.16,1785112438396.522
-0.42,-0.773,-0.684,-11.93,5.34,-3.51,1785112438406.953
-0.421,-0.753,-0.687,-3.27,5.71,-5.25,1785112438417.3
-0.42,-0.723,-0.701,4.67,6.35,-6.65,1785112438430.5862
-0.422,-0.685,-0.708,10.35,7.72,-7.57,1785112438436.115
-0.426,-0.657,-0.694,14.13,8.79,-7.81,1785112438446.468
-0.419,-0.644,-0.674,16.54,9.64,-7.72,1785112438456.9211
-0.415,-0.623,-0.66,17.37,11.32,-7.32,1785112438467.49
-0.436,-0.599,-0.651,15.96,13.12,-7.2,1785112438480.783
-0.448,-0.584,-0.662,11.05,13.15,-4.91,1785112438486.5469
-0.422,-0.581,-0.64,4.7,12.15,-3.6,1785112438496.8672
-0.409,-0.574,-0.648,-0.21,11.11,-4.97,1785112438507.3608
-0.403,-0.565,-0.703,-6.26,9.8,-4.88,1785112438517.9363
-0.391,-0.569,-0.765,-12.05,9.16,-3.66,1785112438531.4272
-0.395,-0.588,-0.759,-15.38,9.25,-3.33,1785112438539.4648
-0.412,-0.627,-0.71,-16.72,6.47,-2.44,1785112438547.081
-0.406,-0.677,-0.699,-14.1,3.42,0.18,1785112438557.6372
-0.381,-0.69,-0.666,-8.33,1.4,0.18,1785112438570.9263
-0.392,-0.669,-0.732,-4.91,0.06,0.34,1785112438576.206
-0.401,-0.659,-0.754,-7.2,0.67,3.11,1785112438586.543
-0.426,-0.68,-0.672,-14.56,-0.09,2.72,1785112438596.99
-0.452,-0.634,-0.466,-21.67,-3.51,3.3,1785112438607.449
-0.419,-0.584,-0.423,-10.38,-9.43,9.03,1785112438617.8801
-0.366,-0.551,-0.553,14.98,-15.87,14.77,1785112438631.245
-0.373,-0.478,-0.684,35.77,-16.42,16.66,1785112438637.3
-0.423,-0.418,-0.681,44.07,-14.34,20.81,1785112438647.626
-0.427,-0.43,-0.697,38.24,-11.38,25.82,1785112438660.912
-0.382,-0.515,-0.743,28.44,-8.39,26.31,1785112438666.957
-0.394,-0.604,-0.787,19.04,-7.14,23.59,1785112438677.1418
-0.425,-0.679,-0.78,7.9,-5.04,23.01,1785112438687.6272
-0.434,-0.702,-0.654,-1.22,-2.9,21.91,1785112438700.854
-0.438,-0.744,-0.539,3.6,-7.48,20.51,1785112438706.724
-0.456,-0.766,-0.515,21.61,-15.96,20.48,1785112438716.9668
-0.458,-0.675,-0.633,41.75,-23.01,22.58,1785112438727.626
-0.447,-0.558,-0.703,48.13,-25.48,24.08,1785112438740.8682
-0.437,-0.471,-0.711,37.84,-20.78,26.73,1785112438746.895
-0.462,-0.522,-0.636,21.12,-17.0,33.63,1785112438757.3518
-0.521,-0.573,-0.528,6.29,-14.71,38.67,1785112438767.854
-0.532,-0.532,-0.442,3.02,-14.4,42.18,1785112438781.149
-0.506,-0.541,-0.488,4.94,-18.74,40.31,1785112438787.141
-0.527,-0.582,-0.5,-0.06,-22.71,33.81,1785112438797.3079
-0.564,-0.691,-0.509,2.87,-24.9,25.76,1785112438807.852
-0.539,-0.733,-0.475,17.3,-24.72,17.91,1785112438821.1611
-0.478,-0.652,-0.569,25.09,-22.86,15.96,1785112438827.1128
-0.54,-0.626,-0.713,15.35,-19.62,10.19,1785112438837.575
-0.555,-0.703,-0.697,-6.23,-13.82,3.11,1785112438850.865
-0.537,-0.77,-0.651,-13.46,-7.6,-3.36,1785112438856.707
-0.544,-0.785,-0.618,-9.92,-5.49,-2.62,1785112438866.698
-0.548,-0.73,-0.617,-1.95,-4.73,2.01,1785112438877.091
-0.521,-0.666,-0.579,5.62,-2.41,2.44,1785112438887.44
-0.501,-0.651,-0.551,9.09,-1.4,0.98,1785112438897.839
-0.483,-0.653,-0.531,11.84,-1.22,-1.89,1785112438910.887
-0.493,-0.666,-0.541,17.06,-0.92,-5.77,1785112438917.047
-0.516,-0.681,-0.565,21.42,0.0,-9.06,1785112438926.772
-0.506,-0.676,-0.552,23.01,2.01,-9.86,1785112438937.491
-0.498,-0.662,-0.567,24.54,3.36,-9.89,1785112438950.47
-0.503,-0.636,-0.596,20.66,5.13,-10.35,1785112438956.3047
-0.5,-0.656,-0.58,12.27,7.66,-11.26,1785112438966.8281
-0.503,-0.665,-0.568,6.87,8.91,-11.08,1785112438977.367
-0.498,-0.655,-0.572,1.8,10.47,-9.92,1785112438987.969
-0.49,-0.659,-0.566,-2.84,11.69,-8.97,1785112439001.013
-0.494,-0.657,-0.542,-4.85,12.45,-8.64,1785112439006.9739
-0.491,-0.641,-0.522,-2.99,13.06,-8.27,1785112439016.9502
-0.474,-0.63,-0.487,2.75,13.82,-7.9,1785112439027.4382
-0.47,-0.615,-0.434,11.23,13.98,-7.81,1785112439040.701
-0.464,-0.598,-0.393,20.11,13.58,-7.17,1785112439046.666
-0.482,-0.597,-0.362,26.61,13.86,-7.81,1785112439056.933
-0.509,-0.576,-0.344,30.46,13.12,-9.7,1785112439067.401
-0.499,-0.504,-0.376,27.83,11.9,-11.69,1785112439080.7139
-0.478,-0.383,-0.436,15.81,13.03,-12.91,1785112439086.731
-0.478,-0.383,-0.436,-1.89,13.82,-15.23,1785112439097.0813
-0.433,-0.333,-0.515,-20.08,16.39,-20.84,1785112439107.738
-0.426,-0.434,-0.585,-42.18,20.33,-24.6,1785112439121.138
-0.496,-0.587,-0.641,-71.47,22.74,-17.7,1785112439127.0452
-0.553,-0.672,-0.637,-96.53,22.31,-6.26,1785112439137.314
-0.565,-0.66,-0.648,-96.53,22.31,-6.26,1785112439147.859
-0.52,-0.604,-0.681,-112.98,22.64,1.31,1785112439161.17
-0.477,-0.628,-0.725,-115.39,26.8,1.22,1785112439167.214
-0.533,-0.695,-0.697,-105.11,29.21,-4.43,1785112439177.6042
-0.587,-0.822,-0.496,-77.12,22.92,-8.45,1785112439190.936
-0.593,-0.895,-0.327,-28.05,6.44,-9.7,1785112439196.8232
-0.531,-0.803,-0.317,30.61,-11.99,-3.97,1785112439206.9602
-0.46,-0.618,-0.472,73.79,-26.06,2.69,1785112439217.51
-0.391,-0.439,-0.607,75.23,-29.39,4.43,1785112439230.7998
-0.36,-0.352,-0.657,42.6,-24.32,2.23,1785112439236.7417
-0.328,-0.375,-0.678,-2.04,-19.75,0.61,1785112439246.8271
-0.297,-0.439,-0.814,-45.47,-13.7,-1.95,1785112439257.416
-0.293,-0.521,-0.908,-84.08,-2.44,-8.51,1785112439267.837
-0.365,-0.673,-0.803,-98.64,7.66,-16.24,1785112439281.1638
-0.442,-0.853,-0.642,-80.84,9.22,-16.17,1785112439287.122
-0.505,-0.832,-0.575,-49.56,0.98,-17.27,1785112439297.3271
-0.502,-0.781,-0.539,-18.22,-8.73,-14.83,1785112439307.884
-0.485,-0.756,-0.547,10.68,-17.24,-15.2,1785112439321.3398
-0.448,-0.656,-0.636,26.06,-21.64,-12.12,1785112439327.153
-0.397,-0.552,-0.822,32.9,-20.51,-6.68,1785112439337.634
-0.417,-0.511,-0.884,25.24,-15.26,-6.74,1785112439350.764
-0.428,-0.569,-0.879,7.39,-7.57,-6.01,1785112439356.735
-0.424,-0.646,-0.791,-7.75,-2.08,-4.88,1785112439366.569
-0.42,-0.679,-0.702,-10.44,-1.16,-4.85,1785112439377.087
-0.409,-0.671,-0.688,-4.73,-3.63,-5.43,1785112439387.5571
-0.43,-0.651,-0.693,-3.17,-4.52,-8.33,1785112439397.818
-0.428,-0.653,-0.689,-6.84,-4.64,-10.74,1785112439411.165
-0.409,-0.67,-0.674,-6.78,-5.25,-11.32,1785112439416.9568
-0.416,-0.68,-0.718,-1.74,-5.89,-12.57,1785112439427.172
-0.431,-0.67,-0.799,-0.58,-3.78,-14.65,1785112439437.4841
-0.452,-0.673,-0.83,-5.31,0.18,-18.34,1785112439447.9229
-0.46,-0.716,-0.777,-10.07,3.14,-21.42,1785112439461.194
-0.459,-0.726,-0.714,-11.44,4.76,-23.68,1785112439467.186
-0.448,-0.695,-0.69,-10.32,4.7,-25.79,1785112439477.49
-0.427,-0.65,-0.672,-11.38,3.33,-27.59,1785112439488.137
-0.398,-0.617,-0.654,-12.39,2.69,-27.56,1785112439501.202
-0.376,-0.608,-0.669,-9.61,3.36,-26.37,1785112439507.274
-0.375,-0.575,-0.68,-6.71,3.27,-24.96,1785112439517.205
-0.37,-0.567,-0.649,-7.66,2.01,-22.22,1785112439527.694
-0.36,-0.58,-0.646,-8.15,1.22,-18.92,1785112439540.96
-0.364,-0.58,-0.665,-4.94,0.92,-16.14,1785112439546.805
-0.38,-0.578,-0.692,-2.96,0.27,-13.95,1785112439556.853
-0.388,-0.58,-0.71,-3.17,0.61,-11.51,1785112439567.294
-0.393,-0.594,-0.701,-3.3,1.25,-9.49,1785112439577.727
-0.394,-0.6,-0.704,-1.5,1.92,-7.75,1785112439590.761
-0.397,-0.59,-0.736,2.87,2.96,-5.95,1785112439596.706
-0.41,-0.585,-0.763,6.04,3.75,-4.64,1785112439606.643
-0.418,-0.604,-0.761,3.72,5.16,-4.18,1785112439616.9841
-0.415,-0.638,-0.749,1.53,6.59,-4.52,1785112439627.382
-0.412,-0.643,-0.778,1.89,7.9,-5.16,1785112439637.8271
-0.41,-0.636,-0.817,0.76,10.04,-6.56,1785112439651.102
-0.415,-0.64,-0.824,-3.2,11.84,-8.51,1785112439656.922
-0.407,-0.651,-0.778,-7.69,13.21,-9.25,1785112439666.8
-0.411,-0.672,-0.609,-7.84,10.9,-9.49,1785112439677.4468
-0.39,-0.649,-0.558,0.43,5.52,-7.78,1785112439687.777
-0.37,-0.559,-0.654,10.04,2.38,-5.07,1785112439701.111
-0.391,-0.501,-0.741,9.98,2.29,-3.97,1785112439706.849
-0.44,-0.521,-0.795,-2.62,4.43,-3.81,1785112439716.7913
-0.448,-0.63,-0.812,-15.78,8.06,-2.29,1785112439727.325
-0.454,-0.694,-0.684,-19.5,10.41,-4.09,1785112439737.898
-0.463,-0.696,-0.614,-5.28,8.21,-4.36,1785112439750.9172
-0.385,-0.714,-0.683,14.44,5.55,-5.65,1785112439757.0032
-0.369,-0.672,-0.725,23.65,7.11,-11.81,1785112439767.0168
-0.363,-0.642,-0.765,22.8,11.96,-12.45,1785112439777.7012
-0.361,-0.629,-0.747,18.83,17.73,-9.43,1785112439790.9539
-0.407,-0.616,-0.707,15.32,17.61,-7.48,1785112439796.937
-0.378,-0.667,-0.649,14.28,16.02,-6.29,1785112439807.1208
-0.358,-0.666,-0.65,19.9,16.57,-8.09,1785112439817.6638
-0.344,-0.574,-0.74,27.71,18.07,-7.42,1785112439830.9429
-0.331,-0.506,-0.795,26.22,21.27,-6.16,1785112439836.9028
-0.341,-0.518,-0.781,13.55,26.37,-4.52,1785112439847.101
-0.294,-0.618,-0.738,-0.82,29.6,-4.67,1785112439857.606
-0.293,-0.68,-0.641,-7.45,29.73,-7.6,1785112439870.8323
-0.349,-0.686,-0.542,-2.56,26.09,-6.53,1785112439876.7458
-0.353,-0.666,-0.449,10.77,17.88,-2.75,1785112439886.862
-0.348,-0.629,-0.409,31.37,7.29,-0.64,1785112439897.332
-0.339,-0.546,-0.509,50.36,-0.89,3.08,1785112439907.886
-0.323,-0.473,-0.635,53.56,-5.58,7.84,1785112439921.046
-0.333,-0.495,-0.74,37.32,-3.54,7.48,1785112439926.817
-0.319,-0.554,-0.739,8.82,4.94,2.41,1785112439936.903
-0.345,-0.626,-0.655,-14.22,11.02,-0.43,1785112439947.4448
-0.374,-0.692,-0.699,-21.06,9.89,2.08,1785112439957.994
-0.367,-0.688,-0.68,-27.5,9.7,2.26,1785112439971.43
-0.374,-0.692,-0.587,-23.96,10.59,2.08,1785112439977.217
-0.402,-0.661,-0.519,-8.67,3.63,4.85,1785112439987.1008
-0.367,-0.613,-0.54,13.43,-6.2,7.81,1785112439997.56
-0.338,-0.588,-0.602,31.83,-10.28,7.97,1785112440010.7068
-0.353,-0.586,-0.595,38.45,-10.56,9.28,1785112440016.234
-0.37,-0.605,-0.596,37.75,-9.92,10.8,1785112440027.035
-0.357,-0.607,-0.615,29.69,-8.88,11.87,1785112440037.618
-0.378,-0.656,-0.604,18.37,-5.1,11.11,1785112440050.913
-0.4,-0.663,-0.559,9.43,-1.4,8.61,1785112440056.8801
-0.383,-0.659,-0.572,8.67,-1.68,6.65,1785112440066.6829
-0.391,-0.631,-0.635,6.41,-1.56,4.88,1785112440077.077
-0.379,-0.598,-0.664,-3.66,0.85,5.13,1785112440087.442
-0.349,-0.595,-0.687,-12.63,4.09,3.36,1785112440097.923
-0.35,-0.618,-0.682,-17.46,6.81,0.18,1785112440111.187
-0.355,-0.66,-0.633,-14.77,8.0,1.5,1785112440117.105
-0.355,-0.666,-0.626,-1.77,5.74,3.6,1785112440127.0708
-0.358,-0.632,-0.613,12.21,3.17,5.01,1785112440137.545
-0.39,-0.614,-0.576,22.1,1.13,6.56,1785112440147.933
-0.412,-0.614,-0.594,27.99,0.67,7.66,1785112440161.3528
-0.398,-0.607,-0.605,24.41,0.7,7.57,1785112440166.605
-0.403,-0.619,-0.594,14.71,1.34,7.35,1785112440176.835
-0.407,-0.614,-0.601,3.94,3.85,6.5,1785112440187.2927
-0.38,-0.594,-0.595,-8.21,5.8,4.49,1785112440197.6167
-0.355,-0.571,-0.62,-17.94,8.67,0.95,1785112440210.9749
-0.354,-0.59,-0.657,-27.16,11.11,-3.11,1785112440216.692
-0.366,-0.634,-0.659,-38.97,12.09,-3.91,1785112440227.1428
-0.38,-0.698,-0.623,-43.58,12.91,-2.44,1785112440237.7268
-0.4,-0.719,-0.618,-36.9,11.6,-2.01,1785112440250.951
-0.412,-0.668,-0.64,-26.64,8.51,1.25,1785112440256.777
-0.381,-0.647,-0.669,-16.69,6.07,5.37,1785112440267.085
-0.36,-0.659,-0.682,-8.45,4.73,5.13,1785112440277.501
-0.367,-0.657,-0.66,-1.86,3.6,3.6,1785112440287.99
-0.364,-0.684,-0.639,4.18,1.8,2.93,1785112440301.0417
-0.362,-0.704,-0.652,8.03,0.55,1.22,1785112440306.901
-0.36,-0.712,-0.639,6.56,0.03,-0.76,1785112440316.796
-0.367,-0.731,-0.615,2.47,0.15,-1.28,1785112440327.6548
-0.357,-0.715,-0.615,-1.31,0.03,-0.09,1785112440337.512
-0.329,-0.674,-0.623,-4.33,-0.15,0.4,1785112440347.925
-0.314,-0.664,-0.637,-6.26,0.06,-0.27,1785112440361.228
-0.323,-0.662,-0.611,-7.84,0.09,-1.62,1785112440366.852
-0.348,-0.661,-0.578,-5.43,-1.16,-0.89,1785112440376.8057
-0.348,-0.661,-0.578,1.62,-2.66,2.08,1785112440387.22
-0.359,-0.655,-0.577,8.7,-4.33,5.31,1785112440397.618
-0.36,-0.651,-0.571,15.32,-6.62,8.48,1785112440410.938
-0.367,-0.65,-0.569,19.68,-9.13,13.18,1785112440416.874
-0.352,-0.613,-0.658,19.68,-9.13,13.18,1785112440427.0388
-0.324,-0.593,-0.744,14.04,-10.13,14.89,1785112440437.886
-0.343,-0.648,-0.791,0.67,-5.74,9.52,1785112440450.842
-0.395,-0.718,-0.75,-10.59,-1.01,4.39,1785112440456.716
-0.409,-0.757,-0.692,-11.05,-1.22,3.39,1785112440466.697
-0.379,-0.766,-0.678,-1.62,-2.72,4.46,1785112440477.092
-0.373,-0.743,-0.654,11.17,-4.64,3.69,1785112440487.681
-0.37,-0.714,-0.621,25.33,-7.6,2.75,1785112440500.865
-0.364,-0.688,-0.598,41.02,-11.41,3.14,1785112440506.858
-0.366,-0.646,-0.609,51.48,-14.4,3.42,1785112440516.958
-0.363,-0.607,-0.628,51.88,-14.68,4.18,1785112440527.502
-0.348,-0.602,-0.647,44.22,-13.61,4.27,1785112440540.7888
-0.355,-0.616,-0.632,30.61,-11.63,3.14,1785112440546.735
-0.372,-0.621,-0.623,15.32,-8.64,2.38,1785112440556.832
-0.359,-0.612,-0.642,2.69,-4.61,2.66,1785112440567.1968
-0.351,-0.615,-0.644,-3.97,-2.75,2.66,1785112440577.562
-0.359,-0.621,-0.652,-5.92,-2.47,1.77,1785112440588.1028
-0.361,-0.637,-0.667,-6.96,-1.56,1.5,1785112440601.2102
-0.365,-0.671,-0.634,-6.71,-1.74,0.85,1785112440606.957
-0.381,-0.718,-0.592,-3.91,-3.36,0.43,1785112440616.852
-0.377,-0.737,-0.599,3.27,-4.33,1.16,1785112440627.25
-0.374,-0.715,-0.636,10.35,-5.86,1.98,1785112440637.899
-0.374,-0.686,-0.676,11.02,-6.13,1.98,1785112440650.974
-0.387,-0.667,-0.676,4.21,-5.13,0.89,1785112440656.822
-0.385,-0.678,-0.636,-4.39,-5.01,1.4,1785112440666.576
-0.383,-0.709,-0.622,-9.0,-5.77,2.75,1785112440677.103
-0.371,-0.723,-0.646,-7.54,-5.31,2.66,1785112440687.5242
-0.372,-0.705,-0.664,-5.07,-5.19,1.13,1785112440697.8628
-0.362,-0.707,-0.71,-3.94,-3.23,1.01,1785112440711.134
-0.362,-0.708,-0.716,-6.47,-0.7,-0.64,1785112440716.83
-0.374,-0.722,-0.699,-8.61,2.01,-1.43,1785112440726.783
-0.381,-0.718,-0.66,-7.81,3.97,-0.95,1785112440737.247
-0.386,-0.71,-0.588,-3.2,2.11,-0.82,1785112440747.544
-0.37,-0.692,-0.626,1.65,1.37,-0.73,1785112440757.956
-0.354,-0.652,-0.658,-0.92,1.19,-0.79,1785112440771.2341
-0.366,-0.656,-0.671,-12.39,2.04,-2.59,1785112440777.031
-0.364,-0.706,-0.674,-23.44,5.52,-4.06,1785112440787.093
-0.378,-0.757,-0.647,-27.44,6.81,-6.07,1785112440797.512
-0.385,-0.792,-0.624,-23.74,6.01,-7.9,1785112440810.861
-0.387,-0.795,-0.624,-14.53,3.78,-9.55,1785112440816.6453
-0.38,-0.763,-0.671,-4.64,3.08,-9.22,1785112440826.5972
-0.366,-0.717,-0.702,2.66,4.03,-7.78,1785112440836.997
-0.364,-0.694,-0.711,7.51,5.13,-7.02,1785112440847.361
-0.362,-0.694,-0.7,9.34,6.47,-6.1,1785112440857.7668
-0.354,-0.68,-0.695,8.51,7.66,-5.71,1785112440871.0972
-0.353,-0.659,-0.671,5.68,8.58,-6.1,1785112440876.717
-0.356,-0.66,-0.634,2.08,8.36,-6.38,1785112440886.662
-0.353,-0.663,-0.627,-0.24,7.69,-6.65,1785112440897.0562
-0.356,-0.66,-0.609,-0.15,6.65,-7.08,1785112440907.4858
-0.361,-0.663,-0.61,1.43,5.13,-6.9,1785112440918.0168
-0.359,-0.658,-0.616,2.59,4.03,-6.23,1785112440931.184
-0.362,-0.646,-0.61,3.14,2.75,-6.2,1785112440936.5361
-0.357,-0.638,-0.621,2.29,1.74,-5.71,1785112440946.83
-0.359,-0.645,-0.603,-0.31,0.73,-5.83,1785112440957.158
-0.358,-0.657,-0.615,-3.14,0.31,-6.32,1785112440967.5232
-0.365,-0.654,-0.66,-4.64,1.16,-6.23,1785112440977.947
-0.376,-0.655,-0.694,-7.54,2.38,-6.65,1785112440991.247
-0.369,-0.672,-0.716,-11.9,3.75,-7.23,1785112440996.9639
-0.36,-0.696,-0.718,-15.99,5.55,-8.12,1785112441007.0332
-0.364,-0.715,-0.683,-17.03,6.62,-8.61,1785112441017.464
-0.359,-0.721,-0.643,-14.04,5.62,-8.03,1785112441027.95
-0.348,-0.715,-0.555,-8.91,2.2,-7.51,1785112441041.41
-0.325,-0.676,-0.535,-2.04,-1.74,-6.56,1785112441046.932
-0.323,-0.629,-0.609,3.85,-2.66,-5.77,1785112441056.9119
-0.35,-0.61,-0.656,3.02,-2.01,-5.52,1785112441067.242
-0.367,-0.634,-0.682,-0.52,-0.76,-5.1,1785112441077.641
-0.375,-0.649,-0.707,-2.53,1.04,-4.73,1785112441090.9219
-0.376,-0.669,-0.747,-3.11,3.23,-4.18,1785112441096.577
-0.369,-0.699,-0.808,-4.21,6.81,-4.82,1785112441106.557
-0.371,-0.74,-0.844,-4.88,9.95,-7.42,1785112441116.938
-0.378,-0.775,-0.755,-5.1,8.24,-9.7,1785112441127.3333
-0.364,-0.808,-0.686,2.38,3.17,-11.75,1785112441138.075
-0.363,-0.768,-0.586,13.34,-4.43,-13.61,1785112441151.0479
-0.366,-0.719,-0.491,25.76,-12.6,-11.17,1785112441157.155
-0.358,-0.685,-0.405,42.85,-19.62,-7.08,1785112441167.3347
-0.36,-0.638,-0.428,62.11,-23.87,-4.82,1785112441177.896
-0.375,-0.587,-0.554,76.85,-23.35,-3.42,1785112441191.217
-0.381,-0.453,-0.772,77.3,-17.79,-0.82,1785112441197.161
-0.38,-0.363,-0.945,57.99,-8.27,1.1,1785112441207.317
-0.393,-0.412,-0.894,23.01,2.72,2.53,1785112441217.718
-0.362,-0.528,-0.69,-11.26,11.32,7.14,1785112441230.972
-0.305,-0.687,-0.51,-26.06,12.09,9.16,1785112441236.9548
-0.341,-0.734,-0.383,-33.69,7.66,5.37,1785112441247.0742
