ax,ay,az,gx,gy,gz,timestamp_ms
-0.475,-0.459,-0.594,47.98,-13.49,3.85,1785112620751.2278
-0.453,-0.458,-0.568,47.58,-13.89,3.05,1785112620751.7388
-0.488,-0.5,-0.582,39.61,-13.21,0.43,1785112620752.165
-0.513,-0.523,-0.579,27.04,-12.12,-2.47,1785112620752.5818
-0.496,-0.524,-0.56,18.37,-10.96,-1.92,1785112620753.007
-0.454,-0.494,-0.608,10.53,-10.71,-0.21,1785112620753.4238
-0.434,-0.5,-0.647,-0.95,-8.36,-1.92,1785112620753.824
-0.451,-0.548,-0.636,-9.64,-5.34,-3.91,1785112620754.216
-0.451,-0.558,-0.645,-9.31,-5.07,-0.92,1785112620754.611
-0.444,-0.517,-0.667,-3.54,-5.98,3.48,1785112620755.008
-0.432,-0.486,-0.647,2.53,-6.74,6.47,1785112620755.4077
-0.427,-0.486,-0.631,9.83,-7.75,9.19,1785112620755.8037
-0.437,-0.485,-0.598,15.66,-7.26,11.2,1785112620756.235
-0.446,-0.493,-0.569,20.14,-7.05,13.4,1785112620756.667
-0.443,-0.468,-0.583,21.49,-7.05,15.38,1785112620757.085
-0.449,-0.457,-0.627,20.2,-5.01,14.04,1785112620757.466
-0.47,-0.459,-0.642,14.56,-1.5,10.38,1785112620757.839
-0.453,-0.462,-0.673,6.01,5.13,10.07,1785112620758.1929
-0.475,-0.468,-0.677,-1.4,11.9,13.43,1785112620758.5398
-0.492,-0.498,-0.641,-1.16,14.74,20.87,1785112620758.8953
-0.505,-0.466,-0.658,3.97,11.32,29.73,1785112620759.263
-0.511,-0.44,-0.662,4.03,7.97,37.84,1785112620759.642
-0.508,-0.44,-0.678,-4.36,5.86,44.47,1785112620759.988
-0.542,-0.442,-0.634,-17.49,3.57,46.6,1785112620760.338
-0.551,-0.456,-0.613,-26.61,1.22,46.88,1785112620760.695
-0.563,-0.444,-0.586,-31.07,0.09,45.99,1785112620761.044
-0.58,-0.47,-0.544,-29.73,-1.31,43.49,1785112620761.444
-0.618,-0.519,-0.534,-22.22,-4.36,39.98,1785112620761.803
-0.607,-0.533,-0.595,-10.8,-6.78,37.75,1785112620762.154
-0.591,-0.551,-0.684,0.82,-6.71,34.27,1785112620762.5
-0.616,-0.55,-0.712,-0.31,-3.94,30.95,1785112620762.847
-0.626,-0.574,-0.738,-6.23,-0.21,31.25,1785112620763.198
-0.582,-0.587,-0.754,-11.87,2.11,28.11,1785112620763.5469
-0.598,-0.559,-0.707,-15.53,3.14,22.77,1785112620763.905
-0.584,-0.587,-0.695,-11.17,1.16,22.22,1785112620764.3718
-0.553,-0.598,-0.662,-3.85,-1.16,18.8,1785112620764.776
-0.541,-0.567,-0.624,3.72,-4.36,14.53,1785112620765.1301
-0.558,-0.513,-0.624,11.63,-7.32,14.89,1785112620765.483
-0.538,-0.535,-0.633,19.2,-9.4,16.42,1785112620765.81
-0.565,-0.538,-0.591,21.03,-10.35,14.59,1785112620766.14
-0.588,-0.535,-0.565,19.9,-11.32,15.72,1785112620766.4548
-0.559,-0.5,-0.6,14.98,-11.41,16.72,1785112620766.769
-0.559,-0.469,-0.654,6.47,-9.67,13.61,1785112620767.0789
-0.579,-0.478,-0.672,-7.93,-6.13,9.25,1785112620767.3818
-0.595,-0.524,-0.649,-20.63,-3.2,5.25,1785112620767.684
-0.587,-0.583,-0.655,-21.39,-0.82,2.32,1785112620768.018
-0.586,-0.611,-0.664,-13.98,0.61,-0.76,1785112620768.321
-0.629,-0.594,-0.64,-5.55,-0.52,-3.05,1785112620768.616
-0.643,-0.582,-0.631,0.31,-3.66,-1.1,1785112620768.917
-0.632,-0.597,-0.636,4.91,-6.99,1.8,1785112620769.216
-0.588,-0.6,-0.64,6.9,-8.79,3.36,1785112620769.509
-0.567,-0.55,-0.671,7.9,-9.19,4.15,1785112620769.8071
-0.563,-0.522,-0.766,6.74,-7.35,5.07,1785112620770.118
-0.576,-0.515,-0.784,-0.64,-2.84,3.27,1785112620770.424
-0.582,-0.53,-0.683,-6.44,0.64,1.5,1785112620770.721
-0.583,-0.526,-0.575,-4.97,-0.06,0.85,1785112620771.029
-0.571,-0.491,-0.577,1.92,-2.08,0.95,1785112620771.353
-0.58,-0.441,-0.612,5.34,-3.51,0.4,1785112620771.6548
-0.592,-0.432,-0.641,1.43,-3.45,0.37,1785112620771.958
-0.602,-0.485,-0.654,-2.78,-1.77,2.53,1785112620772.265
-0.628,-0.483,-0.672,-2.47,-0.67,-0.27,1785112620772.5608
-0.616,-0.471,-0.675,-3.33,0.12,-0.58,1785112620772.883
-0.607,-0.481,-0.698,-3.63,1.65,-1.4,1785112620773.176
-0.62,-0.498,-0.681,-3.88,3.91,-2.53,1785112620773.4622
-0.616,-0.499,-0.654,-0.76,3.63,-3.33,1785112620773.7378
-0.601,-0.474,-0.597,-1.04,1.1,-3.2,1785112620774.0227
-0.587,-0.472,-0.633,1.5,-0.24,-1.68,1785112620774.302
-0.588,-0.447,-0.656,0.18,-0.67,-1.4,1785112620774.579
-0.587,-0.455,-0.653,-2.32,-0.31,-1.01,1785112620774.857
-0.587,-0.472,-0.615,-4.46,0.18,-1.1,1785112620775.135
-0.587,-0.468,-0.619,-4.7,-0.12,-0.49,1785112620775.412
-0.582,-0.457,-0.65,-3.42,-0.18,0.21,1785112620775.683
-0.588,-0.463,-0.657,-2.23,0.24,0.09,1785112620775.963
-0.594,-0.48,-0.641,-1.4,0.12,0.27,1785112620776.2507
-0.597,-0.491,-0.639,0.55,-0.21,0.92,1785112620776.533
-0.604,-0.48,-0.644,2.96,-0.46,1.83,1785112620776.827
-0.605,-0.465,-0.656,3.6,-0.34,2.75,1785112620777.1157
-0.609,-0.464,-0.672,2.26,0.21,2.99,1785112620777.3938
-0.618,-0.475,-0.669,-0.37,0.73,2.66,1785112620777.689
-0.614,-0.489,-0.669,-2.2,1.07,2.2,1785112620777.976
-0.607,-0.491,-0.675,-2.23,1.34,1.46,1785112620778.2578
-0.601,-0.486,-0.67,-1.71,1.46,0.73,1785112620778.534
-0.597,-0.486,-0.641,-0.15,1.04,0.31,1785112620778.825
-0.594,-0.471,-0.586,1.16,-0.55,0.37,1785112620779.1108
-0.576,-0.451,-0.584,2.53,-2.14,1.19,1785112620779.387
-0.57,-0.429,-0.605,3.27,-2.38,1.62,1785112620779.68
-0.58,-0.422,-0.613,1.22,-2.72,1.31,1785112620779.9622
-0.585,-0.455,-0.65,-0.43,-4.12,0.12,1785112620780.242
-0.595,-0.563,-0.803,2.01,-9.83,-4.55,1785112620780.5178
-0.608,-0.668,-0.948,7.32,-12.94,-13.82,1785112620780.8052
-0.641,-0.683,-0.892,13.37,-6.32,-20.17,1785112620781.104
-0.646,-0.682,-0.713,17.76,-2.14,-15.81,1785112620781.365
-0.581,-0.665,-0.618,23.56,-0.64,-7.72,1785112620781.631
-0.542,-0.622,-0.543,29.33,0.0,-4.43,1785112620781.898
-0.527,-0.554,-0.484,35.04,-0.52,-2.93,1785112620782.154
-0.524,-0.49,-0.412,40.5,-3.3,0.61,1785112620782.415
-0.532,-0.437,-0.489,41.63,-6.32,3.23,1785112620782.681
-0.562,-0.363,-0.532,38.24,-3.81,4.43,1785112620782.951
-0.602,-0.323,-0.53,31.95,-3.97,7.35,1785112620783.208
-0.582,-0.323,-0.547,26.34,-2.38,11.11,1785112620783.4922
-0.573,-0.357,-0.584,20.57,-0.7,11.96,1785112620783.762
-0.604,-0.411,-0.545,9.0,-0.43,10.9,1785112620784.047
-0.612,-0.458,-0.54,-2.53,-0.73,11.72,1785112620784.362
-0.606,-0.497,-0.56,-6.16,-1.37,11.23,1785112620784.68
-0.63,-0.508,-0.505,-6.07,-3.94,9.13,1785112620784.944
-0.653,-0.523,-0.477,-0.34,-7.84,8.7,1785112620785.1992
-0.635,-0.504,-0.498,9.52,-13.34,9.95,1785112620785.46
-0.622,-0.495,-0.544,19.04,-17.94,8.97,1785112620785.729
-0.638,-0.489,-0.567,23.74,-18.13,7.51,1785112620785.99
-0.635,-0.477,-0.573,21.82,-16.48,8.06,1785112620786.259
-0.628,-0.46,-0.549,14.07,-14.65,8.91,1785112620786.53
-0.615,-0.458,-0.573,5.25,-14.44,8.03,1785112620786.797
-0.617,-0.496,-0.623,-3.72,-14.89,5.55,1785112620787.049
-0.626,-0.538,-0.636,-11.87,-12.76,2.93,1785112620787.3018
-0.629,-0.545,-0.611,-15.69,-9.89,1.46,1785112620787.555
-0.613,-0.537,-0.591,-14.28,-9.86,2.5,1785112620787.7979
-0.613,-0.537,-0.591,-7.2,-10.68,3.54,1785112620788.0662
-0.607,-0.538,-0.546,3.6,-12.42,5.28,1785112620788.317
-0.607,-0.509,-0.514,16.11,-14.47,7.97,1785112620788.568
-0.606,-0.498,-0.506,26.28,-17.27,10.74,1785112620788.8179
-0.625,-0.47,-0.53,32.01,-19.23,12.79,1785112620789.073
-0.621,-0.453,-0.604,32.01,-19.23,12.79,1785112620789.331
-0.63,-0.438,-0.665,28.29,-18.37,12.3,1785112620789.581
-0.652,-0.444,-0.682,13.46,-14.44,11.66,1785112620789.835
-0.648,-0.49,-0.661,-2.69,-10.65,10.9,1785112620790.091
-0.644,-0.538,-0.628,-11.2,-8.39,8.91,1785112620790.346
-0.65,-0.555,-0.614,-13.09,-8.79,7.2,1785112620790.594
-0.648,-0.551,-0.609,-10.53,-9.34,6.99,1785112620790.841
-0.651,-0.527,-0.625,-4.73,-9.86,7.2,1785112620791.0872
-0.639,-0.48,-0.618,0.06,-9.74,8.24,1785112620791.324
-0.625,-0.453,-0.621,3.17,-9.31,8.09,1785112620791.5708
-0.616,-0.463,-0.61,5.8,-8.21,6.41,1785112620791.8232
-0.616,-0.479,-0.617,10.56,-7.42,4.64,1785112620792.063
-0.616,-0.496,-0.648,15.81,-6.1,3.63,1785112620792.311
-0.632,-0.506,-0.634,17.3,-4.0,3.14,1785112620792.56
-0.627,-0.512,-0.6,17.52,-1.77,4.24,1785112620792.823
-0.617,-0.512,-0.599,18.92,-0.64,6.04,1785112620793.058
-0.617,-0.513,-0.594,16.97,0.37,6.29,1785112620793.296
-0.61,-0.52,-0.591,13.28,2.56,4.97,1785112620793.556
-0.607,-0.532,-0.56,8.7,5.13,4.12,1785112620793.782
-0.619,-0.548,-0.523,6.81,6.41,3.6,1785112620794.0203
-0.622,-0.531,-0.479,7.05,6.99,3.91,1785112620794.262
-0.61,-0.511,-0.421,9.09,6.99,4.7,1785112620794.498
-0.633,-0.489,-0.375,15.11,5.1,4.15,1785112620794.728
-0.613,-0.456,-0.383,24.29,1.62,4.49,1785112620794.964
-0.586,-0.408,-0.402,27.56,0.67,5.04,1785112620795.202
-0.567,-0.364,-0.438,22.03,1.71,5.83,1785112620795.436
-0.565,-0.349,-0.431,8.88,3.6,5.83,1785112620795.666
-0.574,-0.358,-0.432,-3.23,4.27,5.77,1785112620795.9038
-0.567,-0.384,-0.508,-10.47,4.61,6.41,1785112620796.137
-0.59,-0.463,-0.608,-18.43,5.19,3.88,1785112620796.374
-0.638,-0.555,-0.689,-29.39,7.87,-1.16,1785112620796.6133
-0.675,-0.618,-0.706,-40.28,12.85,-2.11,1785112620796.8518
-0.694,-0.675,-0.686,-42.76,15.38,-0.03,1785112620797.088
-0.721,-0.72,-0.615,-34.33,15.08,0.95,1785112620797.3262
-0.746,-0.74,-0.511,-15.35,10.47,1.13,1785112620797.566
-0.745,-0.727,-0.48,10.44,4.21,2.59,1785112620797.7988
-0.716,-0.692,-0.482,35.49,-1.59,3.57,1785112620798.037
-0.694,-0.609,-0.5,49.62,-7.57,3.14,1785112620798.27
-0.687,-0.542,-0.541,49.96,-7.48,2.5,1785112620798.506
-0.679,-0.513,-0.601,38.39,-4.21,1.1,1785112620798.7341
-0.647,-0.477,-0.661,19.41,0.18,-2.44,1785112620798.9868
-0.602,-0.474,-0.718,2.69,6.2,-7.84,1785112620799.245
-0.605,-0.505,-0.757,-10.19,12.45,-13.98,1785112620799.4849
-0.625,-0.526,-0.737,-19.53,16.97,-17.91,1785112620799.715
-0.628,-0.541,-0.693,-21.12,19.5,-19.81,1785112620799.9658
-0.641,-0.561,-0.618,-15.08,17.91,-19.32,1785112620800.2031
-0.64,-0.554,-0.566,-9.06,11.99,-18.19,1785112620800.425
-0.625,-0.53,-0.517,-4.33,8.0,-16.02,1785112620800.652
-0.607,-0.51,-0.555,-0.79,5.46,-14.22,1785112620800.8708
-0.591,-0.483,-0.611,-3.42,5.83,-13.28,1785112620801.0881
-0.593,-0.5,-0.61,-20.33,9.16,-12.67,1785112620801.535
-0.596,-0.521,-0.623,-25.06,11.11,-13.64,1785112620801.758
-0.707,-0.411,-0.566,0.37,0.06,0.15,1785112620802.1738
-0.705,-0.412,-0.564,0.37,0.21,0.06,1785112620802.3901
-0.702,-0.4,-0.554,0.46,0.12,0.15,1785112620802.6062
-0.7,-0.394,-0.545,0.89,-0.12,0.52,1785112620802.821
-0.699,-0.398,-0.557,1.25,-0.06,0.27,1785112620809.456
-0.704,-0.407,-0.566,0.64,0.61,0.27,1785112620819.812
-0.707,-0.415,-0.573,0.06,1.31,0.15,1785112620830.2
-0.707,-0.416,-0.569,-0.55,2.04,-0.06,1785112620840.548
-0.71,-0.422,-0.567,-0.58,2.29,-0.73,1785112620853.7988
-0.711,-0.417,-0.549,-0.06,2.26,-0.89,1785112620859.2131
-0.706,-0.417,-0.543,1.56,1.86,-0.85,1785112620869.527
-0.703,-0.419,-0.552,3.08,1.8,-1.31,1785112620879.906
-0.708,-0.419,-0.556,3.69,1.89,-2.04,1785112620890.2842
-0.711,-0.419,-0.559,3.78,1.98,-2.53,1785112620900.701
-0.709,-0.415,-0.557,3.72,2.38,-3.05,1785112620914.022
-0.707,-0.412,-0.554,3.81,2.35,-3.48,1785112620919.376
-0.701,-0.411,-0.562,3.6,2.41,-3.81,1785112620929.6682
-0.7,-0.412,-0.561,2.66,2.62,-3.88,1785112620940.1028
-0.698,-0.411,-0.551,2.32,2.62,-3.66,1785112620950.379
-0.696,-0.402,-0.545,3.48,2.38,-3.66,1785112620963.7173
-0.696,-0.389,-0.542,4.73,2.04,-3.48,1785112620969.207
-0.693,-0.38,-0.544,5.22,1.83,-3.27,1785112620979.3643
-0.696,-0.378,-0.55,4.64,1.89,-3.2,1785112620989.9033
-0.698,-0.386,-0.552,3.36,2.11,-2.96,1785112621000.305
-0.7,-0.394,-0.546,2.78,2.29,-3.02,1785112621010.7
-0.699,-0.404,-0.556,3.75,2.66,-3.39,1785112621024.0151
-0.703,-0.408,-0.57,4.15,3.33,-3.97,1785112621029.6619
-0.708,-0.426,-0.574,2.78,3.72,-4.52,1785112621039.888
-0.706,-0.443,-0.573,1.04,3.97,-4.76,1785112621050.001
-0.702,-0.446,-0.575,-0.61,4.06,-5.28,1785112621060.483
-0.7,-0.441,-0.555,-2.84,3.97,-5.68,1785112621070.8909
-0.689,-0.429,-0.524,-3.97,3.36,-5.4,1785112621084.1301
-0.679,-0.412,-0.498,-3.54,1.98,-5.16,1785112621089.8782
-0.676,-0.406,-0.508,-1.01,0.76,-5.4,1785112621099.6821
-0.68,-0.42,-0.557,-0.15,1.19,-5.98,1785112621110.068
-0.691,-0.44,-0.585,-3.54,2.81,-7.08,1785112621120.5493
-0.696,-0.43,-0.6,-8.79,3.88,-6.84,1785112621130.819
-0.692,-0.477,-0.612,-13.0,6.29,-7.72,1785112621144.1702
-0.697,-0.503,-0.571,-14.65,7.11,-9.77,1785112621149.9983
-0.68,-0.491,-0.527,-9.37,5.25,-8.88,1785112621160.032
-0.663,-0.478,-0.542,-0.64,3.05,-8.42,1785112621170.542
-0.666,-0.459,-0.573,2.78,2.53,-8.76,1785112621180.707
-0.669,-0.452,-0.586,1.5,3.02,-8.33,1785112621193.9158
-0.667,-0.449,-0.588,-0.27,3.42,-7.75,1785112621199.6318
-0.663,-0.46,-0.594,-1.31,3.75,-7.72,1785112621209.608
-0.672,-0.465,-0.615,-1.07,4.49,-7.97,1785112621220.152
-0.68,-0.466,-0.617,-0.34,4.7,-7.32,1785112621230.357
-0.679,-0.481,-0.62,0.37,3.88,-6.13,1785112621240.8262
-0.675,-0.493,-0.636,1.13,3.23,-5.68,1785112621254.064
-0.682,-0.487,-0.639,0.79,2.87,-5.86,1785112621259.824
-0.673,-0.48,-0.604,-1.43,1.31,-4.06,1785112621269.74
-0.624,-0.442,-0.549,-2.41,-1.22,-1.65,1785112621280.092
-0.584,-0.417,-0.563,0.55,-2.99,-1.07,1785112621290.467
-0.59,-0.427,-0.636,0.49,-5.4,-2.23,1785112621300.838
-0.596,-0.448,-0.712,-2.75,-5.98,-3.02,1785112621314.067
-0.62,-0.449,-0.715,-4.21,-3.85,-2.96,1785112621319.791
-0.652,-0.44,-0.692,-4.79,-2.5,-1.77,1785112621329.72
-0.665,-0.446,-0.713,-6.62,-0.52,1.25,1785112621340.2861
-0.669,-0.502,-0.728,-8.58,2.81,2.81,1785112621350.585
-0.68,-0.569,-0.649,-6.16,6.07,1.43,1785112621360.8342
-0.692,-0.6,-0.578,0.18,5.92,1.25,1785112621374.349
-0.69,-0.558,-0.539,10.74,4.55,0.15,1785112621379.998
-0.694,-0.467,-0.482,19.23,1.5,1.19,1785112621390.066
-0.66,-0.361,-0.431,23.35,-0.12,4.82,1785112621400.479
-0.698,-0.289,-0.313,28.66,-7.08,8.64,1785112621410.9841
-0.732,-0.281,-0.425,36.23,-16.88,15.81,1785112621424.268
-0.698,-0.3,-0.582,44.8,-16.05,19.96,1785112621430.2148
-0.702,-0.318,-0.722,47.52,-11.9,20.97,1785112621440.737
-0.662,-0.365,-0.723,41.57,-5.07,20.87,1785112621454.0522
-0.605,-0.452,-0.59,29.91,0.21,14.04,1785112621459.927
-0.703,-0.452,-0.437,17.21,3.48,8.06,1785112621470.1782
-0.815,-0.496,-0.407,17.7,-1.43,14.13,1785112621480.588
-0.801,-0.58,-0.49,28.63,-6.56,12.48,1785112621493.8582
-0.776,-0.498,-0.429,35.46,-1.95,6.26,1785112621499.802
-0.746,-0.404,-0.361,43.79,1.86,13.43,1785112621510.018
-0.715,-0.333,-0.382,52.61,1.43,23.68,1785112621520.558
-0.724,-0.21,-0.38,50.05,-1.62,30.67,1785112621533.746
-0.748,-0.118,-0.37,36.68,-5.46,38.06,1785112621539.747
-0.748,-0.118,-0.37,17.98,-8.88,38.76,1785112621550.003
-0.694,-0.132,-0.397,-0.67,-11.29,33.2,1785112621560.556
-0.705,-0.202,-0.354,-11.08,-16.88,29.88,1785112621573.8262
-0.702,-0.339,-0.353,-8.36,-19.75,25.33,1785112621579.7761
-0.719,-0.416,-0.367,2.75,-20.81,24.45,1785112621590.044
-0.76,-0.43,-0.432,2.75,-20.81,24.45,1785112621600.5828
-0.785,-0.469,-0.496,12.85,-21.36,22.46,1785112621613.826
-0.823,-0.509,-0.52,18.89,-21.09,15.9,1785112621620.034
-0.815,-0.515,-0.508,21.97,-18.43,12.94,1785112621630.282
-0.79,-0.481,-0.495,24.9,-16.72,12.45,1785112621640.922
-0.763,-0.466,-0.484,27.34,-16.3,11.2,1785112621654.2202
-0.766,-0.471,-0.511,27.59,-15.81,7.2,1785112621660.178
-0.762,-0.461,-0.489,22.16,-13.52,4.52,1785112621670.482
-0.756,-0.46,-0.476,18.19,-12.76,2.62,1785112621683.758
-0.748,-0.433,-0.484,15.32,-11.44,-0.31,1785112621689.836
-0.735,-0.428,-0.476,10.41,-9.58,-3.23,1785112621699.8079
-0.728,-0.425,-0.469,5.07,-7.39,-5.28,1785112621710.228
-0.722,-0.439,-0.454,3.02,-4.46,-6.29,1785112621720.598
-0.731,-0.466,-0.448,6.68,-3.02,-6.13,1785112621730.9492
-0.724,-0.462,-0.461,11.72,-2.14,-4.88,1785112621744.231
-0.73,-0.441,-0.458,14.59,-0.46,-3.39,1785112621750.1152
-0.73,-0.412,-0.461,16.85,-0.21,-2.08,1785112621760.142
-0.736,-0.423,-0.533,18.37,-1.1,-2.56,1785112621770.6829
-0.752,-0.439,-0.573,15.38,-0.52,-4.85,1785112621783.874
-0.762,-0.462,-0.547,10.62,1.95,-4.85,1785112621789.799
-0.769,-0.494,-0.52,9.06,5.01,-4.18,1785112621799.652
-0.772,-0.507,-0.502,10.07,7.57,-3.33,1785112621810.1802
-0.781,-0.519,-0.486,9.74,10.59,-3.02,1785112621820.67
-0.791,-0.501,-0.492,0.52,14.44,-4.7,1785112621833.912
-0.798,-0.425,-0.514,-25.51,15.35,-8.58,1785112621839.9082
-0.802,-0.423,-0.543,-57.77,16.27,-13.58,1785112621850.1
-0.798,-0.443,-0.551,-86.67,17.27,-18.59,1785112621860.7512
-0.786,-0.463,-0.527,-102.94,18.34,-24.41,1785112621874.128
-0.785,-0.475,-0.5,-103.0,18.65,-28.63,1785112621880.0562
-0.777,-0.498,-0.446,-88.47,17.67,-26.86,1785112621890.6538
-0.762,-0.49,-0.391,-60.03,13.0,-23.1,1785112621904.209
-0.731,-0.446,-0.369,-24.29,5.74,-18.4,1785112621909.506
-0.722,-0.403,-0.357,7.78,-1.13,-14.16,1785112621919.949
-0.734,-0.36,-0.343,33.45,-5.86,-9.0,1785112621930.561
-0.704,-0.317,-0.382,52.77,-9.55,-5.07,1785112621941.048
-0.669,-0.29,-0.472,57.44,-10.93,-5.16,1785112621954.439
-0.645,-0.318,-0.547,42.24,-9.4,-9.25,1785112621960.348
-0.618,-0.375,-0.579,13.25,-6.35,-14.68,1785112621970.5579
-0.644,-0.406,-0.543,-16.08,-2.29,-17.49,1785112621981.013
-0.658,-0.473,-0.474,-36.19,-2.59,-13.0,1785112621994.1719
-0.638,-0.478,-0.402,-46.45,-6.32,-11.69,1785112622000.167
-0.578,-0.424,-0.366,-38.76,-10.22,-9.34,1785112622010.405
-0.581,-0.416,-0.387,-14.59,-15.32,-6.71,1785112622021.043
-0.641,-0.398,-0.414,7.69,-20.05,-1.86,1785112622034.168
-0.625,-0.37,-0.498,18.77,-23.13,3.66,1785112622040.265
-0.606,-0.313,-0.633,16.17,-20.91,2.44,1785112622050.2888
-0.613,-0.228,-0.746,-2.87,-11.44,2.96,1785112622060.7979
-0.683,-0.224,-0.756,-29.79,-2.14,4.91,1785112622074.101
-0.755,-0.346,-0.753,-51.0,5.43,7.17,1785112622079.894
-0.775,-0.53,-0.804,-58.72,9.77,7.97,1785112622089.942
-0.787,-0.678,-0.789,-59.39,13.37,5.71,1785112622100.487
-0.775,-0.745,-0.684,-51.55,15.11,4.12,1785112622113.718
-0.755,-0.743,-0.593,-36.84,12.57,3.27,1785112622119.7651
-0.751,-0.705,-0.484,-17.0,9.09,3.39,1785112622129.8308
-0.714,-0.617,-0.419,8.3,5.01,3.88,1785112622140.265
-0.692,-0.498,-0.443,24.57,2.87,2.75,1785112622150.6538
-0.674,-0.414,-0.578,27.47,6.78,1.74,1785112622163.991
-0.682,-0.37,-0.649,16.69,12.02,-1.62,1785112622170.1917
-0.717,-0.46,-0.582,4.33,17.06,-4.91,1785112622179.997
-0.742,-0.585,-0.516,4.85,18.89,-7.84,1785112622190.44
-0.729,-0.558,-0.511,11.93,15.9,-10.77,1785112622203.8828
-0.705,-0.503,-0.573,18.68,14.22,-10.47,1785112622209.703
-0.732,-0.486,-0.589,16.54,14.53,-11.66,1785112622220.32
-0.725,-0.535,-0.606,14.92,15.53,-11.54,1785112622230.834
-0.721,-0.515,-0.586,9.03,13.73,-13.46,1785112622244.108
-0.704,-0.528,-0.54,5.74,12.94,-12.63,1785112622250.0842
-0.695,-0.522,-0.53,6.9,11.78,-14.19,1785112622260.249
-0.698,-0.525,-0.569,9.83,12.05,-15.78,1785112622271.0662
-0.72,-0.522,-0.584,11.87,12.33,-16.94,1785112622284.1511
-0.718,-0.505,-0.558,12.73,11.05,-14.83,1785112622290.146
-0.673,-0.482,-0.515,13.7,8.82,-11.72,1785112622300.4202
-0.643,-0.459,-0.502,17.61,7.81,-10.47,1785112622311.078
-0.648,-0.444,-0.524,21.67,7.17,-10.13,1785112622324.395
-0.657,-0.433,-0.518,21.88,6.29,-9.4,1785112622330.2788
-0.65,-0.432,-0.52,21.55,5.77,-7.84,1785112622340.2131
-0.654,-0.422,-0.516,19.99,5.01,-7.35,1785112622350.6719
-0.666,-0.421,-0.528,16.82,4.7,-7.29,1785112622364.042
-0.67,-0.454,-0.569,15.84,6.01,-7.45,1785112622370.089
-0.681,-0.486,-0.613,16.88,8.55,-8.12,1785112622379.869
-0.695,-0.516,-0.679,16.88,10.16,-8.73,1785112622390.496
-0.693,-0.546,-0.732,13.03,11.51,-9.49,1785112622401.0269
-0.694,-0.588,-0.716,9.77,14.07,-11.02,1785112622414.2458
-0.695,-0.619,-0.646,11.05,14.44,-11.81,1785112622420.4778
-0.682,-0.59,-0.493,14.25,10.35,-11.17,1785112622430.6418
-0.693,-0.485,-0.284,11.41,1.56,-8.21,1785112622443.88
-0.655,-0.368,-0.32,7.35,-2.59,-2.38,1785112622449.6309
-0.596,-0.284,-0.56,-3.11,1.68,1.65,1785112622459.6328
-0.617,-0.185,-0.708,-31.46,12.3,-1.04,1785112622470.4011
-0.746,-0.216,-0.654,-67.57,22.0,-4.33,1785112622480.777
-0.774,-0.424,-0.511,-102.97,22.49,-4.94,1785112622494.0942
-0.683,-0.582,-0.557,-119.05,20.87,-5.65,1785112622499.9858
-0.639,-0.639,-0.657,-108.04,19.41,-6.84,1785112622510.461
-0.691,-0.697,-0.728,-79.65,17.85,-11.66,1785112622523.784
-0.686,-0.79,-0.642,-46.24,19.56,-15.26,1785112622529.726
-0.639,-0.771,-0.61,-11.99,17.33,-18.31,1785112622540.162
-0.661,-0.603,-0.667,15.26,15.47,-16.33,1785112622550.7788
-0.666,-0.465,-0.604,30.64,17.24,-9.28,1785112622564.0728
-0.62,-0.363,-0.357,36.1,14.74,-4.21,1785112622571.499
-0.563,-0.259,-0.326,39.46,5.74,-1.62,1785112622580.1758
-0.519,-0.208,-0.464,34.33,0.06,2.17,1785112622590.611
-0.522,-0.212,-0.56,13.55,-0.55,2.96,1785112622603.935
-0.595,-0.294,-0.557,-8.36,2.56,1.28,1785112622609.653
-0.646,-0.417,-0.559,-16.11,2.2,-2.32,1785112622619.74
-0.669,-0.52,-0.557,-10.8,-0.06,-7.17,1785112622630.156
-0.681,-0.587,-0.509,2.96,-0.73,-8.06,1785112622640.5671
-0.669,-0.582,-0.474,23.59,-4.91,-5.07,1785112622653.881
-0.654,-0.539,-0.474,46.08,-9.61,-2.11,1785112622659.7278
-0.642,-0.48,-0.555,60.76,-12.39,-0.89,1785112622669.8398
-0.604,-0.393,-0.628,60.09,-13.28,-1.07,1785112622680.35
-0.59,-0.376,-0.656,47.4,-11.05,-2.87,1785112622691.0452
-0.622,-0.424,-0.617,32.2,-7.11,-5.25,1785112622704.2
-0.643,-0.472,-0.57,25.64,-6.44,-6.47,1785112622710.0999
-0.648,-0.478,-0.514,27.41,-8.39,-5.71,1785112622720.166
-0.65,-0.455,-0.48,33.42,-10.8,-2.93,1785112622730.732
-0.653,-0.451,-0.46,44.07,-11.87,0.37,1785112622743.9922
-0.672,-0.439,-0.422,52.98,-13.76,2.72,1785112622749.949
-0.645,-0.415,-0.4,58.96,-17.58,6.68,1785112622760.1228
-0.635,-0.406,-0.413,61.19,-21.03,10.16,1785112622770.7751
-0.649,-0.392,-0.464,54.84,-22.64,9.67,1785112622784.04
-0.666,-0.428,-0.533,41.14,-21.88,9.74,1785112622790.025
-0.69,-0.486,-0.575,25.64,-18.04,9.98,1785112622800.204
-0.709,-0.523,-0.556,11.17,-13.15,9.37,1785112622810.7578
-0.706,-0.543,-0.504,-4.18,-8.61,7.48,1785112622823.9941
-0.714,-0.565,-0.441,-13.06,-7.45,2.69,1785112622829.8472
-0.714,-0.565,-0.441,-11.47,-7.26,-0.37,1785112622839.874
-0.735,-0.529,-0.468,-13.18,-5.86,-1.95,1785112622850.338
-0.713,-0.518,-0.464,-12.97,-5.19,-5.22,1785112622860.817
-0.683,-0.521,-0.438,-4.73,-6.74,-7.05,1785112622874.089
-0.695,-0.535,-0.377,12.91,-9.95,-5.55,1785112622879.915
-0.683,-0.533,-0.36,12.91,-9.95,-5.55,1785112622889.9683
-0.648,-0.496,-0.415,31.25,-12.79,-3.48,1785112622900.4531
-0.645,-0.474,-0.498,41.11,-13.34,-3.33,1785112622910.7031
-0.659,-0.467,-0.55,36.65,-11.02,-2.84,1785112622924.08
-0.644,-0.475,-0.565,22.25,-7.57,-0.46,1785112622930.346
-0.63,-0.499,-0.58,5.46,-4.18,1.4,1785112622940.265
-0.644,-0.531,-0.576,-10.47,-1.77,2.17,1785112622950.5159
-0.672,-0.561,-0.549,-21.97,-1.22,3.08,1785112622964.0332
-0.671,-0.578,-0.51,-25.36,-0.55,6.44,1785112622969.8281
-0.641,-0.581,-0.5,-17.73,-1.95,10.65,1785112622979.8772
-0.669,-0.505,-0.55,-7.66,-2.01,10.83,1785112622990.457
-0.662,-0.478,-0.583,-4.52,-0.98,12.36,1785112623000.612
-0.642,-0.523,-0.593,-5.77,-0.7,12.12,1785112623014.136
-0.671,-0.555,-0.543,-6.65,-0.09,11.44,1785112623020.373
-0.671,-0.603,-0.498,-2.01,-3.2,13.09,1785112623030.08
-0.655,-0.602,-0.478,6.84,-5.52,12.39,1785112623040.607
-0.669,-0.557,-0.503,14.77,-6.04,13.12,1785112623053.9038
-0.685,-0.537,-0.542,16.57,-6.07,16.05,1785112623059.8982
-0.664,-0.558,-0.517,12.88,-6.78,15.44,1785112623070.239
-0.691,-0.593,-0.464,11.29,-5.52,13.28,1785112623080.569
-0.707,-0.577,-0.438,14.07,-5.52,10.19,1785112623093.848
-0.69,-0.544,-0.411,13.12,-8.18,8.36,1785112623099.78
-0.684,-0.512,-0.44,10.8,-8.58,6.74,1785112623109.7878
-0.678,-0.465,-0.483,6.26,-8.09,3.81,1785112623120.476
-0.684,-0.449,-0.497,-0.4,-6.53,-0.27,1785112623130.521
-0.697,-0.494,-0.452,-7.08,-4.91,-3.78,1785112623141.0298
-0.708,-0.581,-0.421,-6.99,-5.34,-5.43,1785112623154.294
-0.687,-0.625,-0.441,1.4,-6.81,-5.92,1785112623159.952
-0.684,-0.595,-0.415,13.79,-8.42,-6.01,1785112623170.1528
-0.681,-0.576,-0.43,26.92,-10.19,-4.67,1785112623180.581
-0.658,-0.54,-0.482,34.36,-10.77,-4.27,1785112623193.742
-0.656,-0.454,-0.447,29.97,-9.89,-3.45,1785112623199.819
-0.661,-0.403,-0.428,19.59,-8.94,-0.21,1785112623209.814
-0.653,-0.367,-0.499,6.84,-6.84,2.38,1785112623220.052
-0.636,-0.361,-0.557,-7.6,-3.88,4.61,1785112623230.293
-0.651,-0.429,-0.59,-16.33,-0.06,5.86,1785112623241.009
-0.7,-0.541,-0.568,-21.12,1.71,6.41,1785112623254.435
-0.723,-0.632,-0.507,-20.02,1.4,6.9,1785112623260.243
-0.71,-0.614,-0.446,-14.92,-2.04,8.09,1785112623270.4229
-0.695,-0.562,-0.427,-3.36,-4.15,10.99,1785112623280.65
-0.697,-0.504,-0.457,6.53,-4.52,11.69,1785112623293.9302
-0.684,-0.472,-0.551,5.4,-1.53,10.22,1785112623299.7717
-0.686,-0.476,-0.569,-2.11,3.78,7.9,1785112623309.7788
-0.719,-0.529,-0.569,-5.13,7.51,6.23,1785112623320.273
-0.721,-0.582,-0.559,-2.81,9.25,4.64,1785112623330.505
-0.724,-0.562,-0.548,-0.49,9.95,0.95,1785112623340.898
-0.738,-0.566,-0.598,0.61,10.71,0.55,1785112623354.2412
-0.734,-0.583,-0.572,-3.05,12.39,1.59,1785112623360.09
-0.71,-0.608,-0.546,-6.23,13.82,1.89,1785112623370.2942
-0.7,-0.606,-0.525,-5.4,15.05,0.79,1785112623380.668
-0.694,-0.591,-0.541,-1.62,16.42,0.73,1785112623393.8242
-0.689,-0.572,-0.538,0.92,17.0,0.09,1785112623399.6968
-0.688,-0.518,-0.518,0.4,17.82,-0.82,1785112623409.7542
-0.684,-0.495,-0.531,-1.83,19.26,-0.06,1785112623420.34
-0.686,-0.511,-0.526,-5.98,20.26,-0.06,1785112623430.6692
-0.687,-0.541,-0.501,-8.55,20.54,-0.64,1785112623444.052
-0.698,-0.554,-0.453,-7.81,19.04,-0.98,1785112623449.3591
-0.692,-0.511,-0.435,-7.97,16.48,0.7,1785112623459.89
-0.676,-0.479,-0.453,-9.77,15.05,2.53,1785112623470.541
-0.667,-0.489,-0.42,-11.99,14.13,2.81,1785112623480.8828
-0.679,-0.518,-0.422,-9.28,12.36,1.98,1785112623494.148
-0.694,-0.519,-0.462,-4.24,10.96,2.17,1785112623500.0232
-0.694,-0.501,-0.486,-0.31,10.5,2.96,1785112623510.087
-0.688,-0.484,-0.494,2.66,10.19,3.54,1785112623520.645
-0.691,-0.475,-0.483,2.78,9.09,3.48,1785112623530.9583
-0.684,-0.461,-0.507,-0.21,8.09,4.24,1785112623544.2659
-0.68,-0.466,-0.546,-5.22,8.03,4.3,1785112623549.8508
-0.688,-0.508,-0.584,-11.87,9.19,2.53,1785112623560.041
-0.694,-0.548,-0.616,-17.0,10.01,0.46,1785112623571.281
-0.684,-0.572,-0.621,-18.46,10.9,-0.61,1785112623583.8699
-0.681,-0.571,-0.572,-16.69,10.65,-1.07,1785112623589.967
-0.663,-0.568,-0.498,-9.67,8.0,-0.52,1785112623599.756
-0.662,-0.502,-0.438,-2.04,5.13,0.46,1785112623610.178
-0.654,-0.448,-0.421,1.92,3.17,3.63,1785112623620.62
-0.651,-0.441,-0.45,2.44,1.83,4.64,1785112623630.995
-0.675,-0.466,-0.464,2.99,0.79,4.76,1785112623644.217
-0.683,-0.482,-0.491,7.29,-0.34,6.62,1785112623649.939
-0.686,-0.472,-0.538,11.93,-1.19,7.26,1785112623660.034
-0.685,-0.452,-0.579,9.46,-1.98,7.26,1785112623670.475
-0.665,-0.474,-0.647,4.67,-0.06,6.2,1785112623680.702
-0.684,-0.547,-0.708,0.0,4.97,3.78,1785112623694.092
-0.715,-0.622,-0.698,-6.78,9.8,1.83,1785112623699.8442
-0.733,-0.637,-0.548,-12.82,10.62,1.01,1785112623709.8481
-0.734,-0.595,-0.268,-11.99,3.75,2.99,1785112623720.305
-0.707,-0.532,-0.288,-0.18,-4.79,8.36,1785112623730.6729
