ax,ay,az,gx,gy,gz,timestamp_ms
-0.882,-0.258,-0.259,14.07,-2.11,-13.79,1785112357753.595
-0.881,-0.25,-0.266,11.17,-2.84,-13.18,1785112357754.048
-0.883,-0.251,-0.278,7.66,-3.54,-12.42,1785112357754.484
-0.88,-0.251,-0.276,4.06,-3.91,-11.72,1785112357754.944
-0.876,-0.255,-0.266,0.98,-4.39,-10.74,1785112357755.378
-0.876,-0.259,-0.264,-0.27,-4.85,-9.67,1785112357755.917
-0.874,-0.26,-0.265,-0.46,-5.58,-8.36,1785112357756.2869
-0.875,-0.26,-0.264,-0.82,-6.16,-6.78,1785112357756.662
-0.874,-0.261,-0.26,-1.28,-6.35,-5.04,1785112357757.022
-0.875,-0.264,-0.257,-1.04,-6.78,-3.11,1785112357757.4028
-0.873,-0.262,-0.263,-0.31,-7.05,-1.1,1785112357757.7668
-0.871,-0.26,-0.272,0.12,-7.29,0.95,1785112357758.1172
-0.868,-0.26,-0.287,-0.67,-7.42,2.56,1785112357758.465
-0.869,-0.26,-0.299,-3.69,-7.17,3.6,1785112357758.813
-0.866,-0.269,-0.296,-8.18,-6.23,4.58,1785112357759.162
-0.867,-0.285,-0.292,-11.44,-5.43,5.52,1785112357759.51
-0.874,-0.292,-0.291,-13.09,-5.07,6.16,1785112357759.862
-0.884,-0.297,-0.294,-13.73,-4.76,6.68,1785112357760.215
-0.887,-0.303,-0.3,-13.79,-4.27,7.26,1785112357760.555
-0.889,-0.302,-0.303,-13.7,-3.54,7.26,1785112357760.9138
-0.895,-0.302,-0.302,-13.58,-2.75,7.05,1785112357761.2852
-0.899,-0.303,-0.291,-13.06,-2.01,6.56,1785112357761.634
-0.905,-0.306,-0.282,-11.9,-1.37,5.95,1785112357761.994
-0.911,-0.303,-0.281,-10.32,-0.92,5.46,1785112357762.337
-0.913,-0.304,-0.281,-9.28,-0.58,4.82,1785112357762.65
-0.913,-0.304,-0.281,-8.27,-0.24,3.88,1785112357762.954
-0.915,-0.307,-0.278,-6.93,0.09,2.81,1785112357763.262
-0.92,-0.309,-0.274,-5.34,0.52,1.83,1785112357763.5688
-0.921,-0.308,-0.269,-3.51,0.67,1.22,1785112357763.873
-0.92,-0.309,-0.267,-1.46,0.89,0.37,1785112357764.173
-0.917,-0.31,-0.266,-1.46,0.89,0.37,1785112357764.502
-0.914,-0.311,-0.262,0.58,0.89,-0.52,1785112357764.823
-0.912,-0.311,-0.256,3.05,0.82,-1.07,1785112357765.129
-0.905,-0.312,-0.252,5.8,0.55,-1.53,1785112357765.44
-0.901,-0.31,-0.25,8.27,0.03,-1.71,1785112357765.764
-0.898,-0.308,-0.248,10.01,-0.52,-1.89,1785112357766.0989
-0.895,-0.31,-0.246,11.17,-0.92,-2.17,1785112357766.426
-0.891,-0.316,-0.247,12.09,-1.28,-2.53,1785112357766.742
-0.885,-0.326,-0.248,13.0,-1.59,-3.42,1785112357767.056
-0.88,-0.334,-0.246,14.25,-1.83,-4.36,1785112357767.3608
-0.879,-0.34,-0.244,15.69,-2.11,-5.04,1785112357767.68
-0.882,-0.342,-0.244,17.06,-2.62,-5.86,1785112357767.9958
-0.885,-0.347,-0.244,18.25,-3.08,-6.87,1785112357768.312
-0.894,-0.358,-0.247,19.23,-3.23,-8.33,1785112357768.6292
-0.905,-0.368,-0.247,20.05,-3.45,-10.01,1785112357768.954
-0.906,-0.372,-0.249,20.29,-3.23,-11.96,1785112357769.274
-0.907,-0.379,-0.26,19.26,-2.81,-13.82,1785112357769.58
-0.912,-0.374,-0.277,14.28,-1.98,-16.11,1785112357769.8948
-0.913,-0.365,-0.277,4.64,-0.52,-19.14,1785112357770.197
-0.921,-0.385,-0.264,-5.16,1.5,-23.13,1785112357770.4802
-0.925,-0.391,-0.249,-14.37,3.05,-26.8,1785112357770.762
-0.918,-0.401,-0.244,-20.97,3.6,-29.69,1785112357771.054
-0.914,-0.402,-0.241,-26.03,3.81,-32.53,1785112357771.346
-0.912,-0.411,-0.232,-30.21,3.94,-34.88,1785112357771.6292
-0.91,-0.427,-0.227,-31.13,5.22,-36.19,1785112357771.918
-0.911,-0.464,-0.194,-25.64,8.09,-37.29,1785112357772.2083
-0.916,-0.502,-0.189,-20.36,8.15,-39.43,1785112357772.5142
-0.91,-0.46,-0.222,-18.98,8.42,-38.64,1785112357772.795
-0.891,-0.373,-0.25,-16.14,9.49,-35.13,1785112357773.082
-0.877,-0.31,-0.287,-13.03,8.73,-34.09,1785112357773.397
-0.865,-0.27,-0.299,-13.82,8.0,-36.04,1785112357773.676
-0.853,-0.284,-0.276,-13.64,7.23,-37.42,1785112357773.99
-0.849,-0.326,-0.254,-10.04,5.37,-38.33,1785112357774.282
-0.848,-0.345,-0.226,-3.42,3.42,-38.27,1785112357774.588
-0.852,-0.348,-0.213,4.3,1.04,-37.81,1785112357774.91
-0.851,-0.331,-0.219,9.83,-1.16,-36.47,1785112357775.241
-0.849,-0.317,-0.226,12.76,-2.69,-34.0,1785112357775.5469
-0.85,-0.303,-0.232,11.99,-3.75,-31.5,1785112357775.834
-0.85,-0.292,-0.232,7.05,-4.06,-29.15,1785112357776.132
-0.849,-0.302,-0.229,0.18,-4.3,-26.86,1785112357776.405
-0.848,-0.321,-0.216,-8.06,-4.27,-25.79,1785112357776.683
-0.854,-0.343,-0.199,-16.05,-3.94,-25.42,1785112357776.954
-0.86,-0.339,-0.203,-21.49,-3.78,-24.32,1785112357777.2239
-0.857,-0.329,-0.238,-24.35,-3.81,-23.16,1785112357777.518
-0.857,-0.31,-0.277,-28.41,-3.81,-22.55,1785112357777.7842
-0.857,-0.304,-0.286,-34.52,-3.33,-21.49,1785112357778.059
-0.855,-0.325,-0.28,-39.7,-2.59,-20.57,1785112357778.337
-0.857,-0.362,-0.27,-42.48,-2.53,-20.05,1785112357778.6082
-0.864,-0.397,-0.254,-42.73,-3.02,-19.59,1785112357778.87
-0.873,-0.428,-0.254,-40.38,-3.88,-19.38,1785112357779.147
-0.877,-0.446,-0.256,-35.31,-5.16,-19.01,1785112357779.423
-0.876,-0.444,-0.258,-28.53,-6.81,-18.4,1785112357779.694
-0.872,-0.425,-0.262,-21.61,-8.18,-17.37,1785112357779.963
-0.861,-0.416,-0.263,-14.4,-9.16,-16.69,1785112357780.237
-0.852,-0.409,-0.273,-7.78,-9.8,-17.12,1785112357780.514
-0.842,-0.404,-0.283,-3.36,-9.37,-17.73,1785112357780.7778
-0.833,-0.397,-0.292,-2.38,-5.62,-18.89,1785112357781.065
-0.839,-0.388,-0.286,-5.01,-2.35,-19.93,1785112357781.331
-0.836,-0.396,-0.301,-10.13,-3.36,-20.48,1785112357781.594
-0.827,-0.4,-0.312,-16.72,-3.69,-20.33,1785112357781.858
-0.821,-0.417,-0.315,-22.1,-3.33,-19.78,1785112357782.119
-0.813,-0.437,-0.315,-24.11,-2.84,-19.62,1785112357782.372
-0.806,-0.474,-0.297,-20.75,-2.99,-19.35,1785112357782.615
-0.809,-0.51,-0.276,-12.63,-3.69,-19.87,1785112357782.8638
-0.823,-0.539,-0.24,-1.62,-5.31,-20.81,1785112357783.125
-0.825,-0.548,-0.229,10.47,-8.06,-20.63,1785112357783.375
-0.814,-0.535,-0.224,21.97,-10.13,-19.71,1785112357783.6458
-0.815,-0.514,-0.225,31.01,-11.69,-20.17,1785112357783.896
-0.818,-0.498,-0.24,35.86,-10.99,-20.51,1785112357784.1543
-0.812,-0.473,-0.252,36.01,-9.8,-20.6,1785112357784.3982
-0.798,-0.453,-0.26,31.98,-9.92,-20.72,1785112357784.6458
-0.786,-0.448,-0.276,26.73,-8.94,-21.45,1785112357784.895
-0.79,-0.459,-0.289,21.61,-7.14,-22.49,1785112357785.145
-0.795,-0.476,-0.281,15.96,-5.74,-22.86,1785112357785.407
-0.792,-0.5,-0.272,13.37,-5.62,-22.58,1785112357785.655
-0.791,-0.509,-0.263,14.4,-5.71,-22.06,1785112357785.904
-0.796,-0.513,-0.256,18.07,-6.41,-21.79,1785112357786.1472
-0.803,-0.523,-0.236,22.8,-8.09,-21.85,1785112357786.3901
-0.809,-0.535,-0.207,27.99,-10.13,-22.06,1785112357786.638
-0.805,-0.534,-0.205,33.08,-12.21,-21.64,1785112357786.8892
-0.799,-0.532,-0.225,36.47,-13.58,-20.14,1785112357787.136
-0.798,-0.53,-0.248,35.68,-13.64,-18.92,1785112357787.385
-0.808,-0.513,-0.258,31.04,-13.06,-19.07,1785112357787.643
-0.809,-0.514,-0.267,23.5,-12.39,-18.49,1785112357787.8918
-0.805,-0.538,-0.273,15.29,-10.9,-19.04,1785112357788.1418
-0.814,-0.56,-0.271,8.76,-9.34,-19.93,1785112357788.3892
-0.832,-0.566,-0.262,4.79,-8.97,-18.89,1785112357788.6418
-0.841,-0.547,-0.236,1.95,-9.95,-16.14,1785112357788.884
-0.822,-0.546,-0.239,0.49,-11.11,-14.04,1785112357789.1462
-0.791,-0.563,-0.253,-0.43,-11.05,-13.98,1785112357789.397
-0.773,-0.582,-0.254,-1.62,-9.8,-14.89,1785112357789.64
-0.774,-0.595,-0.258,-2.9,-8.76,-15.47,1785112357789.885
-0.77,-0.595,-0.262,-4.03,-7.57,-15.66,1785112357790.124
-0.765,-0.595,-0.263,-5.49,-6.35,-15.87,1785112357790.3582
-0.761,-0.591,-0.264,-7.45,-5.34,-16.02,1785112357790.59
-0.754,-0.594,-0.253,-10.01,-3.91,-16.17,1785112357790.8262
-0.752,-0.613,-0.242,-12.3,-2.84,-16.42,1785112357791.0718
-0.739,-0.614,-0.246,-14.8,-2.17,-15.44,1785112357791.301
-0.724,-0.596,-0.253,-19.71,-1.1,-13.43,1785112357791.5398
-0.724,-0.566,-0.28,-28.29,0.18,-11.96,1785112357791.7812
-0.73,-0.535,-0.314,-39.03,2.29,-10.59,1785112357792.022
-0.731,-0.509,-0.346,-49.93,4.52,-9.8,1785112357792.2502
-0.739,-0.491,-0.376,-60.95,7.14,-9.83,1785112357792.4868
-0.756,-0.515,-0.38,-73.12,9.86,-9.8,1785112357792.722
-0.769,-0.569,-0.344,-86.43,12.15,-10.47,1785112357792.9568
-0.783,-0.648,-0.293,-92.41,13.09,-12.57,1785112357793.202
-0.788,-0.693,-0.261,-86.89,10.93,-14.71,1785112357793.4402
-0.782,-0.69,-0.255,-72.94,6.84,-14.92,1785112357793.679
-0.78,-0.667,-0.273,-57.74,2.41,-13.46,1785112357793.929
-0.779,-0.632,-0.292,-47.33,-0.43,-11.6,1785112357794.163
-0.777,-0.599,-0.32,-40.65,-1.53,-10.01,1785112357794.404
-0.783,-0.571,-0.337,-37.05,-2.14,-8.03,1785112357794.688
-0.793,-0.566,-0.346,-34.27,-1.71,-6.56,1785112357794.9573
-0.789,-0.569,-0.351,-30.37,-1.25,-5.77,1785112357795.2012
-0.787,-0.577,-0.367,-25.54,-1.37,-5.22,1785112357795.431
-0.784,-0.575,-0.381,-20.57,-0.98,-4.97,1785112357795.68
-0.777,-0.561,-0.395,-14.86,-0.58,-4.79,1785112357795.91
-0.769,-0.541,-0.417,-9.7,0.15,-4.46,1785112357796.13
-0.76,-0.544,-0.426,-4.7,1.46,-3.66,1785112357796.344
-0.75,-0.564,-0.402,-0.61,2.5,-3.48,1785112357796.565
-0.749,-0.605,-0.349,2.93,2.93,-4.09,1785112357796.788
-0.746,-0.664,-0.303,7.02,2.81,-4.21,1785112357797.007
-0.756,-0.668,-0.303,10.77,2.96,-4.36,1785112357797.238
-0.756,-0.668,-0.303,13.52,4.27,-2.17,1785112357797.469
-0.743,-0.652,-0.312,16.11,5.65,0.06,1785112357797.696
-0.725,-0.663,-0.327,15.53,6.04,-0.37,1785112357797.919
-0.721,-0.638,-0.321,14.28,6.84,-0.15,1785112357798.1528
-0.699,-0.613,-0.324,14.4,8.88,0.52,1785112357798.3857
-0.68,-0.588,-0.33,14.4,8.88,0.52,1785112357798.6072
-0.668,-0.57,-0.32,14.65,10.53,0.82,1785112357798.839
-0.662,-0.568,-0.298,13.7,11.41,0.89,1785112357799.072
-0.657,-0.572,-0.255,12.39,11.57,1.4,1785112357799.3013
-0.649,-0.602,-0.226,13.18,11.72,2.72,1785112357799.53
-0.66,-0.641,-0.215,16.27,11.99,3.85,1785112357799.781
-0.66,-0.658,-0.214,22.16,11.51,5.77,1785112357800.0078
-0.646,-0.662,-0.297,31.16,11.2,7.93,1785112357800.228
-0.645,-0.599,-0.441,32.69,13.25,9.06,1785112357800.4539
-0.647,-0.522,-0.543,20.84,17.3,8.39,1785112357800.683
-0.638,-0.481,-0.524,-2.26,23.22,6.07,1785112357800.905
-0.647,-0.489,-0.441,-26.8,28.69,4.33,1785112357801.147
-0.668,-0.523,-0.366,-43.37,31.95,6.35,1785112357801.368
-0.68,-0.558,-0.316,-48.04,32.9,11.23,1785112357801.593
-0.693,-0.574,-0.322,-43.86,31.04,15.59,1785112357801.812
-0.506,-0.459,-0.658,1.56,-1.95,0.37,1785112357802.289
-0.504,-0.461,-0.663,2.17,-2.26,0.58,1785112357802.499
-0.508,-0.459,-0.667,2.78,-2.44,0.92,1785112357802.71
-0.508,-0.461,-0.67,3.08,-2.62,1.5,1785112357805.148
-0.505,-0.468,-0.677,2.75,-2.35,1.77,1785112357815.464
-0.509,-0.476,-0.683,2.69,-1.4,2.14,1785112357825.898
-0.514,-0.484,-0.685,2.96,-1.16,1.92,1785112357836.26
-0.512,-0.494,-0.687,3.51,-1.16,1.46,1785112357849.4949
-0.518,-0.495,-0.681,4.3,-1.1,1.01,1785112357854.883
-0.523,-0.486,-0.685,5.43,-1.37,0.15,1785112357865.14
-0.53,-0.472,-0.686,5.58,-1.65,-0.7,1785112357875.577
-0.531,-0.459,-0.686,4.82,-1.95,-1.04,1785112357885.925
-0.534,-0.446,-0.691,3.2,-2.04,-1.01,1785112357899.2378
-0.532,-0.441,-0.695,0.98,-1.89,-0.52,1785112357904.681
-0.53,-0.444,-0.692,-1.4,-1.62,0.06,1785112357914.883
-0.529,-0.463,-0.693,-3.45,-1.68,0.64,1785112357925.286
-0.526,-0.48,-0.692,-4.7,-1.8,0.92,1785112357935.722
-0.523,-0.495,-0.694,-4.46,-2.2,1.31,1785112357946.061
-0.522,-0.503,-0.699,-3.63,-2.5,1.65,1785112357959.404
-0.524,-0.512,-0.711,-3.08,-2.56,1.89,1785112357964.8662
-0.528,-0.522,-0.726,-3.05,-1.77,1.68,1785112357975.0989
-0.533,-0.521,-0.767,-4.03,0.09,0.92,1785112357985.413
-0.546,-0.509,-0.814,-7.93,3.85,-1.13,1785112357995.8643
-0.559,-0.506,-0.83,-15.87,9.37,-3.78,1785112358006.5579
-0.566,-0.519,-0.813,-21.79,15.63,-7.54,1785112358019.8828
-0.567,-0.524,-0.773,-23.1,21.55,-11.72,1785112358025.865
-0.572,-0.532,-0.745,-22.52,25.97,-16.63,1785112358036.2
-0.566,-0.552,-0.696,-23.96,28.5,-20.72,1785112358049.388
-0.544,-0.598,-0.66,-23.71,28.87,-25.15,1785112358055.807
-0.522,-0.619,-0.635,-20.57,27.83,-29.91,1785112358065.8481
-0.496,-0.63,-0.635,-15.17,26.52,-33.36,1785112358076.571
-0.478,-0.599,-0.664,-7.81,25.06,-36.01,1785112358089.781
-0.467,-0.54,-0.694,-1.62,24.35,-35.86,1785112358096.031
-0.441,-0.498,-0.714,1.46,24.84,-33.57,1785112358106.03
-0.42,-0.472,-0.707,3.54,24.93,-30.64,1785112358116.506
-0.4,-0.469,-0.685,5.58,24.63,-26.98,1785112358129.686
-0.383,-0.465,-0.679,7.63,24.99,-22.8,1785112358135.99
-0.386,-0.455,-0.672,11.69,24.45,-18.86,1785112358145.993
-0.386,-0.455,-0.672,17.76,22.52,-15.02,1785112358156.649
-0.385,-0.455,-0.672,24.08,20.51,-10.99,1785112358169.914
-0.38,-0.459,-0.673,29.36,18.04,-6.59,1785112358176.137
-0.379,-0.451,-0.685,31.86,15.93,-2.2,1785112358186.238
-0.378,-0.443,-0.705,31.86,15.93,-2.2,1785112358199.383
-0.376,-0.448,-0.712,31.46,14.01,0.95,1785112358205.673
-0.379,-0.463,-0.73,29.85,12.48,3.3,1785112358215.678
-0.395,-0.467,-0.756,27.5,11.51,4.55,1785112358226.233
-0.407,-0.476,-0.747,24.41,9.7,5.83,1785112358239.4712
-0.403,-0.477,-0.736,20.78,7.66,7.54,1785112358245.279
-0.408,-0.472,-0.748,16.57,6.41,8.15,1785112358255.786
-0.437,-0.485,-0.778,10.9,5.52,7.23,1785112358265.8071
-0.473,-0.516,-0.829,2.53,4.49,6.32,1785112358276.246
-0.497,-0.574,-0.932,-6.16,4.94,4.36,1785112358286.606
-0.512,-0.645,-1.054,-13.52,8.73,-0.15,1785112358299.826
-0.526,-0.749,-1.152,-18.07,15.9,-6.1,1785112358305.9438
-0.514,-0.851,-1.174,-18.92,24.63,-13.06,1785112358315.912
-0.482,-0.881,-1.081,-17.55,31.86,-21.61,1785112358329.3052
-0.447,-0.907,-0.966,-14.07,32.53,-28.02,1785112358335.608
-0.433,-0.911,-0.817,-9.46,28.72,-33.66,1785112358345.7861
-0.432,-0.838,-0.714,0.15,24.66,-38.33,1785112358356.3142
-0.423,-0.716,-0.654,16.88,18.37,-36.77,1785112358369.529
-0.412,-0.54,-0.665,35.22,11.75,-28.35,1785112358375.812
-0.392,-0.346,-0.653,57.22,8.91,-16.51,1785112358385.822
-0.397,-0.169,-0.466,74.04,4.52,-5.55,1785112358396.2922
-0.375,-0.043,-0.456,80.94,-1.31,3.51,1785112358409.636
-0.365,0.053,-0.542,75.96,-7.11,9.7,1785112358415.6748
-0.295,-0.04,-0.741,52.1,-9.92,11.2,1785112358425.604
-0.282,-0.197,-0.773,2.04,-3.91,4.61,1785112358436.1038
-0.311,-0.478,-0.665,-31.4,1.53,4.97,1785112358446.4067
-0.405,-0.811,-0.602,-23.47,-6.5,6.13,1785112358459.7139
-0.501,-0.982,-0.494,17.3,-13.98,3.45,1785112358465.6301
-0.58,-0.893,-0.301,69.19,-21.91,6.5,1785112358475.786
-0.443,-0.487,-0.331,105.32,-32.69,14.95,1785112358486.5432
-0.296,-0.281,-0.65,103.76,-37.11,22.4,1785112358499.812
-0.379,-0.298,-0.977,44.22,-22.71,6.23,1785112358505.993
-0.434,-0.581,-0.945,-29.48,2.69,-8.27,1785112358516.064
-0.504,-0.888,-0.827,-56.15,17.46,-12.45,1785112358529.334
-0.523,-0.829,-0.646,-42.76,15.38,-8.7,1785112358535.614
-0.449,-0.646,-0.599,-15.99,6.9,7.35,1785112358545.46
-0.449,-0.519,-0.54,12.79,-4.91,18.8,1785112358556.131
-0.399,-0.432,-0.461,43.31,-14.31,13.37,1785112358569.323
-0.357,-0.458,-0.44,75.62,-23.29,18.89,1785112358575.669
-0.349,-0.46,-0.572,84.6,-23.53,14.34,1785112358585.734
-0.433,-0.598,-0.649,74.5,-19.07,3.17,1785112358596.288
-0.526,-0.727,-0.644,49.81,-12.6,2.69,1785112358609.661
-0.498,-0.735,-0.722,30.88,-5.31,3.51,1785112358615.212
-0.518,-0.73,-0.8,9.61,-0.03,-2.08,1785112358625.4849
-0.477,-0.712,-0.788,-13.0,6.68,0.06,1785112358635.9749
-0.381,-0.644,-0.549,-28.66,13.46,-2.81,1785112358646.55
-0.354,-0.613,-0.514,-16.02,9.25,2.01,1785112358659.726
-0.328,-0.508,-0.513,-2.69,4.7,2.47,1785112358665.535
-0.378,-0.592,-0.56,18.22,-2.11,2.59,1785112358675.6292
-0.408,-0.642,-0.621,37.48,-5.71,0.58,1785112358686.025
-0.443,-0.661,-0.623,46.45,-7.05,0.49,1785112358696.4941
-0.456,-0.633,-0.662,49.13,-7.81,3.78,1785112358709.717
-0.47,-0.672,-0.676,39.8,-5.58,5.34,1785112358715.9062
-0.464,-0.672,-0.638,24.23,-1.37,3.33,1785112358725.552
-0.43,-0.657,-0.633,9.43,2.78,2.75,1785112358736.203
-0.438,-0.637,-0.632,-5.34,5.89,0.55,1785112358746.464
-0.398,-0.589,-0.583,-15.99,8.88,-0.61,1785112358760.041
-0.413,-0.62,-0.613,-21.15,9.19,1.62,1785112358765.6829
-0.444,-0.651,-0.669,-22.55,11.51,-1.59,1785112358775.787
-0.454,-0.656,-0.667,-17.37,12.63,-5.04,1785112358786.273
-0.46,-0.658,-0.649,-11.2,11.08,-5.89,1785112358799.571
-0.451,-0.653,-0.674,-6.38,10.8,-5.37,1785112358805.5479
-0.45,-0.668,-0.647,-3.14,11.35,-5.86,1785112358815.656
-0.429,-0.664,-0.615,-1.16,11.29,-4.79,1785112358826.054
-0.41,-0.658,-0.58,2.62,10.5,-3.94,1785112358836.4868
-0.412,-0.64,-0.507,6.59,9.19,-1.62,1785112358849.725
-0.432,-0.637,-0.616,8.21,7.63,-1.95,1785112358855.7063
-0.507,-0.69,-0.72,4.15,11.69,-11.2,1785112358865.5933
-0.568,-0.724,-0.666,-1.56,14.8,-16.79,1785112358876.216
-0.527,-0.629,-0.572,-3.78,16.11,-15.35,1785112358889.412
-0.429,-0.501,-0.546,-9.31,17.76,-11.9,1785112358895.751
-0.387,-0.5,-0.568,-20.72,19.81,-12.05,1785112358906.0103
-0.383,-0.547,-0.538,-31.56,20.29,-14.47,1785112358916.1013
-0.385,-0.629,-0.572,-28.11,21.82,-16.02,1785112358929.607
-0.399,-0.585,-0.573,-18.62,20.39,-14.44,1785112358935.831
-0.311,-0.523,-0.58,-14.95,17.49,-8.27,1785112358945.982
-0.313,-0.553,-0.47,-14.28,17.09,-7.29,1785112358956.5762
-0.293,-0.594,-0.297,-5.16,15.47,-5.37,1785112358969.992
-0.367,-0.587,-0.191,9.77,11.54,-0.79,1785112358975.971
-0.479,-0.564,-0.2,9.37,2.59,0.58,1785112358985.582
-0.456,-0.475,-0.605,-16.36,-13.15,-6.23,1785112358996.265
-0.315,-0.469,-1.064,-57.83,-5.65,-18.71,1785112359009.612
-0.363,-0.508,-0.837,-102.54,12.82,-21.27,1785112359015.806
-0.34,-0.579,-0.561,-104.31,17.06,-4.24,1785112359026.0378
-0.278,-0.601,-0.439,-47.79,12.18,5.8,1785112359036.52
-0.297,-0.508,-0.411,9.61,1.16,1.86,1785112359049.7659
-0.338,-0.439,-0.549,26.73,-6.2,-1.86,1785112359056.109
-0.27,-0.479,-0.688,-3.27,-1.8,-1.8,1785112359065.438
-0.308,-0.472,-0.847,-51.42,-2.87,-5.01,1785112359075.9229
-0.241,-0.644,-1.041,-77.3,3.27,-4.7,1785112359086.408
-0.357,-0.672,-0.969,-68.21,12.51,-12.73,1785112359099.631
-0.448,-0.641,-0.782,-29.39,10.53,-4.09,1785112359105.9102
-0.454,-0.635,-0.812,14.1,3.51,1.37,1785112359115.8198
-0.416,-0.56,-0.947,22.89,-0.15,0.31,1785112359126.1958
-0.362,-0.515,-0.994,-5.52,3.33,-0.79,1785112359139.599
-0.313,-0.606,-1.002,-38.42,11.05,-0.79,1785112359145.4038
-0.337,-0.743,-0.958,-58.08,14.5,-1.86,1785112359155.764
-0.388,-0.847,-0.849,-61.37,12.91,-4.91,1785112359165.975
-0.365,-0.831,-0.741,-52.1,10.13,-10.65,1785112359179.4087
-0.356,-0.809,-0.7,-37.51,6.62,-15.84,1785112359185.3672
-0.355,-0.745,-0.679,-27.68,1.95,-19.07,1785112359195.7278
-0.344,-0.67,-0.668,-15.75,-2.08,-17.24,1785112359206.334
-0.334,-0.574,-0.721,0.09,-4.18,-20.05,1785112359219.5142
-0.325,-0.493,-0.762,7.05,-4.94,-17.7,1785112359225.027
-0.313,-0.459,-0.779,7.42,-3.05,-11.66,1785112359235.6501
-0.307,-0.457,-0.797,5.13,-0.21,-6.84,1785112359245.646
-0.35,-0.492,-0.754,-0.27,1.1,-3.91,1785112359256.254
-0.323,-0.538,-0.721,-1.95,0.61,6.35,1785112359266.54
-0.326,-0.544,-0.759,3.69,1.28,6.01,1785112359279.763
-0.357,-0.585,-0.799,4.27,1.59,2.04,1785112359285.511
-0.383,-0.632,-0.76,2.69,1.8,3.02,1785112359295.603
-0.365,-0.645,-0.74,9.22,0.18,4.46,1785112359305.912
-0.346,-0.602,-0.781,14.89,-1.28,3.69,1785112359316.317
-0.35,-0.573,-0.794,15.32,-0.98,2.78,1785112359329.561
-0.338,-0.55,-0.793,13.67,-0.61,2.56,1785112359335.683
-0.325,-0.544,-0.786,10.07,0.06,2.32,1785112359345.519
-0.335,-0.534,-0.809,5.58,1.31,1.89,1785112359355.984
-0.354,-0.532,-0.809,1.25,2.47,1.8,1785112359366.229
-0.342,-0.563,-0.721,-2.08,1.37,1.37,1785112359376.618
-0.309,-0.553,-0.648,1.83,-1.92,2.9,1785112359390.0117
-0.313,-0.503,-0.709,9.34,-4.46,5.19,1785112359395.884
-0.355,-0.495,-0.761,8.94,-4.61,5.01,1785112359405.6143
-0.376,-0.535,-0.777,5.1,-3.91,5.04,1785112359415.667
-0.394,-0.552,-0.798,3.36,-3.39,6.1,1785112359426.218
-0.394,-0.552,-0.798,3.48,-3.17,6.78,1785112359439.642
-0.409,-0.558,-0.794,2.69,-3.88,7.78,1785112359445.2622
-0.401,-0.556,-0.807,0.09,-3.3,7.78,1785112359455.664
-0.392,-0.571,-0.814,-2.84,-2.93,6.35,1785112359465.6
-0.401,-0.602,-0.784,-3.94,-2.5,5.34,1785112359476.041
-0.399,-0.612,-0.81,-3.94,-2.5,5.34,1785112359486.335
-0.407,-0.606,-0.85,-4.36,-0.37,3.51,1785112359499.621
-0.414,-0.629,-0.793,-6.93,0.46,1.31,1785112359505.606
-0.385,-0.615,-0.801,-5.8,-0.67,1.71,1785112359515.472
-0.37,-0.618,-0.8,0.0,-1.5,1.28,1785112359525.485
-0.387,-0.649,-0.798,3.23,-2.5,-1.65,1785112359536.0972
-0.368,-0.628,-0.801,6.23,-2.01,-2.08,1785112359546.458
-0.365,-0.593,-0.76,8.67,-1.71,-2.29,1785112359559.799
-0.37,-0.601,-0.765,11.38,-2.41,-2.81,1785112359565.5168
-0.377,-0.637,-0.775,14.37,-2.01,-3.94,1785112359575.6372
-0.411,-0.658,-0.566,11.96,-6.47,-5.04,1785112359586.022
-0.376,-0.624,-0.53,14.89,-14.25,-2.53,1785112359596.5938
-0.328,-0.548,-0.655,24.63,-19.99,0.09,1785112359609.9683
-0.365,-0.522,-0.754,27.25,-20.57,-0.15,1785112359616.107
-0.392,-0.533,-0.891,20.26,-16.39,2.23,1785112359626.081
-0.374,-0.601,-0.98,17.03,-7.45,4.18,1785112359636.483
-0.401,-0.675,-0.986,21.49,1.62,-1.5,1785112359649.699
-0.422,-0.707,-0.703,27.65,4.36,-6.47,1785112359655.863
-0.373,-0.74,-0.37,39.83,-3.36,-4.21,1785112359665.623
-0.275,-0.608,-0.593,65.89,-13.73,3.33,1785112359676.197
-0.292,-0.417,-0.796,79.84,-18.34,3.27,1785112359689.488
-0.335,-0.323,-0.823,63.17,-12.76,2.66,1785112359695.788
-0.288,-0.366,-0.846,36.53,-4.76,5.01,1785112359705.638
-0.307,-0.558,-0.605,14.62,-0.34,-0.92,1785112359715.862
-0.387,-0.715,-0.511,3.69,-2.29,-1.74,1785112359726.304
-0.338,-0.748,-0.527,7.57,-9.95,3.02,1785112359739.715
-0.382,-0.635,-0.574,10.93,-16.14,-1.4,1785112359745.595
-0.341,-0.557,-0.807,5.65,-16.69,2.93,1785112359755.6802
-0.315,-0.52,-0.948,-10.35,-12.63,0.0,1785112359766.2139
-0.295,-0.531,-0.917,-30.15,-1.83,-4.0,1785112359779.4011
-0.301,-0.616,-0.784,-38.45,4.21,-0.61,1785112359785.3271
-0.34,-0.73,-0.593,-25.73,2.23,5.77,1785112359795.5771
-0.423,-0.766,-0.348,10.56,-8.61,9.55,1785112359805.8188
-0.441,-0.655,-0.454,63.78,-26.58,17.7,1785112359816.568
-0.362,-0.453,-0.672,102.63,-38.27,28.35,1785112359829.8472
-0.337,-0.332,-0.721,94.12,-34.06,31.04,1785112359836.0132
-0.378,-0.363,-0.716,52.25,-23.22,25.73,1785112359846.2788
-0.427,-0.501,-0.682,6.26,-12.76,21.55,1785112359859.5122
-0.424,-0.654,-0.603,-26.37,-6.68,20.84,1785112359867.2268
-0.414,-0.744,-0.615,-27.8,-5.22,19.14,1785112359875.5698
-0.465,-0.73,-0.62,-11.2,-9.83,23.53,1785112359886.2678
-0.462,-0.673,-0.493,0.98,-15.05,34.55,1785112359899.5269
-0.432,-0.657,-0.424,26.7,-22.61,40.28,1785112359905.6
-0.388,-0.555,-0.474,51.52,-29.45,41.6,1785112359915.984
-0.398,-0.535,-0.644,52.92,-29.76,33.91,1785112359926.287
-0.489,-0.656,-0.706,34.97,-24.05,20.6,1785112359939.583
-0.496,-0.786,-0.58,19.14,-18.01,16.48,1785112359945.922
-0.493,-0.785,-0.62,20.72,-15.53,16.79,1785112359956.08
-0.465,-0.681,-0.681,18.74,-12.7,15.14,1785112359969.541
-0.461,-0.659,-0.675,8.79,-8.0,10.38,1785112359975.748
-0.461,-0.672,-0.626,2.44,-4.3,5.1,1785112359985.476
-0.459,-0.681,-0.607,4.24,-3.39,2.41,1785112359995.924
-0.451,-0.676,-0.598,10.47,-1.86,0.24,1785112360006.4548
-0.445,-0.66,-0.593,15.78,-0.76,1.98,1785112360019.689
-0.467,-0.663,-0.602,22.89,-1.13,4.49,1785112360025.6692
-0.465,-0.649,-0.666,28.63,-2.35,3.05,1785112360035.6172
-0.486,-0.68,-0.665,24.26,-2.08,-1.59,1785112360045.8801
-0.495,-0.693,-0.616,19.68,0.03,-4.3,1785112360056.5022
-0.471,-0.69,-0.59,15.23,1.07,-2.04,1785112360069.6929
-0.454,-0.673,-0.585,10.62,1.19,-0.52,1785112360075.9402
-0.449,-0.669,-0.576,4.3,3.08,-1.25,1785112360085.5562
-0.436,-0.657,-0.539,0.18,5.13,-1.59,1785112360095.714
-0.43,-0.645,-0.505,0.67,5.71,-0.76,1785112360106.2432
-0.419,-0.625,-0.491,2.47,5.43,-0.89,1785112360119.628
-0.393,-0.622,-0.46,0.98,4.82,-1.25,1785112360125.4421
-0.372,-0.621,-0.384,-2.32,6.68,-1.37,1785112360135.51
-0.38,-0.595,-0.349,-1.95,7.87,-4.73,1785112360145.4092
-0.39,-0.586,-0.35,-3.39,10.04,-12.02,1785112360155.921
-0.449,-0.513,-0.344,-10.5,10.53,-23.77,1785112360169.538
-0.467,-0.398,-0.451,-22.86,9.98,-28.47,1785112360175.8918
-0.461,-0.273,-0.492,-46.51,11.47,-24.75,1785112360185.545
-0.457,-0.254,-0.735,-76.14,9.89,-14.16,1785112360196.415
-0.436,-0.5,-0.903,-101.32,23.65,-9.19,1785112360209.783
-0.475,-0.546,-0.784,-129.98,38.15,-10.25,1785112360215.91
-0.46,-0.581,-0.721,-133.92,42.12,-3.91,1785112360226.248
-0.428,-0.651,-0.72,-121.28,40.44,-1.95,1785112360239.5918
-0.431,-0.691,-0.659,-101.35,37.45,-8.91,1785112360245.461
-0.452,-0.684,-0.619,-75.81,29.94,-11.75,1785112360256.0088
-0.42,-0.681,-0.647,-44.19,19.23,-7.81,1785112360266.4268
-0.397,-0.672,-0.63,-19.78,4.55,-9.25,1785112360279.681
-0.385,-0.631,-0.665,-6.56,-10.38,-14.31,1785112360285.7002
-0.37,-0.505,-0.807,-1.43,-9.7,-14.77,1785112360295.7817
-0.401,-0.364,-0.938,-9.83,1.37,-8.51,1785112360305.888
-0.375,-0.352,-1.006,-30.43,9.03,2.2,1785112360316.617
-0.326,-0.466,-1.022,-45.14,13.7,7.97,1785112360329.797
-0.321,-0.541,-0.932,-51.58,15.02,7.29,1785112360336.156
-0.349,-0.619,-0.817,-52.16,12.91,8.82,1785112360345.8682
-0.367,-0.711,-0.776,-43.46,10.32,11.05,1785112360356.769
-0.393,-0.711,-0.79,-28.93,8.27,10.25,1785112360369.91
-0.427,-0.672,-0.825,-14.74,5.19,9.0,1785112360376.082
-0.447,-0.672,-0.821,-7.78,3.02,6.68,1785112360385.7988
-0.445,-0.672,-0.734,-6.93,1.95,3.6,1785112360396.212
-0.423,-0.65,-0.662,-5.25,0.03,2.35,1785112360406.6272
-0.397,-0.584,-0.712,1.65,-0.79,1.65,1785112360419.847
-0.404,-0.528,-0.783,6.81,-0.49,0.79,1785112360425.7358
-0.414,-0.514,-0.831,2.69,2.41,-1.53,1785112360435.561
-0.422,-0.539,-0.819,-3.66,6.5,-2.11,1785112360445.7852
-0.417,-0.545,-0.765,-7.05,8.79,-0.52,1785112360456.32
-0.404,-0.587,-0.724,-8.45,8.94,-0.27,1785112360469.4897
-0.4,-0.613,-0.69,-7.45,9.8,-3.33,1785112360475.508
-0.396,-0.612,-0.659,-3.72,9.19,-4.97,1785112360485.204
-0.398,-0.588,-0.668,2.72,8.3,-3.02,1785112360495.5981
-0.395,-0.531,-0.656,12.27,6.71,-1.95,1785112360506.123
-0.378,-0.461,-0.709,19.96,4.7,-1.25,1785112360516.5452
-0.375,-0.45,-0.753,13.55,5.37,2.2,1785112360529.893
-0.401,-0.503,-0.719,4.06,8.48,3.08,1785112360535.8347
-0.412,-0.517,-0.713,2.26,8.27,-0.43,1785112360545.518
-0.404,-0.542,-0.742,1.62,7.66,1.53,1785112360556.0022
-0.426,-0.597,-0.701,-2.35,7.69,4.49,1785112360566.2761
-0.423,-0.607,-0.689,3.85,7.05,-0.34,1785112360579.5671
-0.393,-0.595,-0.668,11.35,5.49,-1.4,1785112360585.349
-0.363,-0.557,-0.626,19.9,2.44,0.46,1785112360595.5222
-0.343,-0.513,-0.673,28.69,-0.55,4.21,1785112360605.9429
-0.374,-0.49,-0.763,30.52,1.37,2.35,1785112360616.3389
-0.396,-0.495,-0.749,21.91,4.67,-4.27,1785112360629.602
-0.409,-0.59,-0.711,18.77,6.1,5.83,1785112360635.742
-0.435,-0.57,-0.778,25.97,6.29,0.85,1785112360645.493
-0.438,-0.576,-0.785,21.45,7.48,-1.95,1785112360656.0168
-0.45,-0.625,-0.729,14.83,7.69,8.03,1785112360666.404
-0.441,-0.6,-0.712,19.53,7.02,-0.52,1785112360679.6858
-0.42,-0.594,-0.697,19.14,4.85,-2.47,1785112360685.596
-0.408,-0.588,-0.67,17.24,3.27,-0.09,1785112360695.6602
-0.394,-0.563,-0.668,18.8,1.16,0.27,1785112360706.264
-0.382,-0.524,-0.679,19.5,-1.1,1.22,1785112360716.5671
-0.382,-0.524,-0.679,18.98,-3.3,2.47,1785112360729.8298
