ax,ay,az,gx,gy,gz,timestamp_ms
-0.467,-0.51,-0.537,-54.51,15.38,13.95,1785112502631.134
-0.401,-0.502,-0.548,-58.32,13.43,17.3,1785112502631.656
-0.379,-0.486,-0.562,-60.73,10.99,17.33,1785112502632.099
-0.388,-0.503,-0.514,-59.11,8.21,17.33,1785112502632.5278
-0.404,-0.529,-0.471,-52.74,-0.24,18.19,1785112502632.942
-0.349,-0.536,-0.537,-43.0,-10.68,22.06,1785112502633.3662
-0.336,-0.517,-0.628,-36.71,-18.43,22.1,1785112502633.792
-0.416,-0.508,-0.735,-38.12,-23.53,21.64,1785112502634.206
-0.458,-0.553,-0.828,-45.14,-23.83,25.24,1785112502634.6282
-0.505,-0.65,-0.784,-49.65,-20.97,28.9,1785112502635.06
-0.555,-0.714,-0.666,-39.98,-19.65,32.41,1785112502635.4639
-0.564,-0.724,-0.585,-12.57,-25.12,35.13,1785112502635.816
-0.512,-0.636,-0.688,18.01,-31.13,34.76,1785112502636.169
-0.482,-0.463,-0.718,25.21,-31.46,31.34,1785112502636.523
-0.491,-0.479,-0.761,19.41,-24.26,29.63,1785112502636.878
-0.493,-0.545,-0.744,8.55,-17.24,22.83,1785112502637.2249
-0.499,-0.606,-0.715,2.17,-11.23,16.21,1785112502637.575
-0.521,-0.625,-0.781,4.09,-5.49,12.7,1785112502637.922
-0.533,-0.631,-0.814,6.47,-0.58,9.22,1785112502638.2668
-0.561,-0.642,-0.804,6.2,1.98,5.92,1785112502638.5999
-0.537,-0.65,-0.811,1.92,4.12,6.41,1785112502638.968
-0.51,-0.688,-0.806,-4.27,6.32,4.24,1785112502639.325
-0.501,-0.741,-0.748,-10.77,9.13,-0.55,1785112502639.699
-0.503,-0.747,-0.681,-10.47,9.31,-5.37,1785112502640.0562
-0.497,-0.737,-0.7,-2.47,7.84,-10.38,1785112502640.4102
-0.499,-0.698,-0.722,-1.31,5.58,-15.81,1785112502640.778
-0.495,-0.699,-0.733,-2.29,5.43,-17.58,1785112502641.1208
-0.497,-0.731,-0.699,1.13,6.78,-19.56,1785112502641.4841
-0.51,-0.731,-0.698,9.46,7.08,-21.36,1785112502641.833
-0.513,-0.687,-0.702,14.98,7.02,-21.36,1785112502642.1812
-0.492,-0.702,-0.705,19.59,8.64,-18.77,1785112502642.5413
-0.478,-0.676,-0.659,22.89,10.25,-19.41,1785112502642.899
-0.46,-0.639,-0.642,29.15,11.08,-17.7,1785112502643.306
-0.455,-0.589,-0.643,33.75,10.53,-15.02,1785112502643.6338
-0.431,-0.567,-0.625,35.28,9.64,-12.05,1785112502643.958
-0.43,-0.564,-0.624,35.49,9.28,-9.55,1785112502644.284
-0.433,-0.546,-0.634,34.55,8.67,-8.0,1785112502644.598
-0.431,-0.557,-0.621,32.32,8.0,-6.35,1785112502644.9124
-0.435,-0.537,-0.633,29.82,7.66,-3.94,1785112502645.25
-0.437,-0.514,-0.648,24.32,7.87,-0.76,1785112502645.5637
-0.43,-0.528,-0.621,17.49,7.2,0.55,1785112502645.93
-0.433,-0.553,-0.585,12.48,5.77,1.16,1785112502646.249
-0.444,-0.556,-0.577,10.22,3.6,2.08,1785112502646.585
-0.452,-0.558,-0.611,7.84,1.25,2.78,1785112502646.8967
-0.464,-0.575,-0.636,2.5,0.52,2.78,1785112502647.226
-0.476,-0.589,-0.631,-1.13,0.09,2.84,1785112502647.5361
-0.472,-0.579,-0.628,-2.53,-0.85,3.27,1785112502647.846
-0.476,-0.567,-0.643,-4.39,-1.46,3.57,1785112502648.149
-0.49,-0.583,-0.675,-10.01,-0.85,3.6,1785112502648.4648
-0.508,-0.634,-0.684,-15.63,0.34,2.69,1785112502648.7888
-0.511,-0.662,-0.68,-17.98,0.0,2.11,1785112502649.1467
-0.512,-0.673,-0.725,-17.21,0.06,1.56,1785112502649.494
-0.509,-0.695,-0.742,-15.84,2.08,0.82,1785112502649.803
-0.491,-0.691,-0.701,-15.02,2.99,-0.49,1785112502650.114
-0.451,-0.669,-0.697,-11.26,3.3,-0.55,1785112502650.4153
-0.442,-0.652,-0.722,-4.33,4.12,-1.56,1785112502650.732
-0.449,-0.652,-0.741,1.68,4.49,-3.78,1785112502651.0388
-0.442,-0.665,-0.706,8.64,3.75,-4.88,1785112502651.326
-0.438,-0.656,-0.664,20.45,0.7,-5.62,1785112502651.614
-0.415,-0.631,-0.689,34.79,-2.38,-6.01,1785112502651.9111
-0.433,-0.589,-0.69,36.87,-3.45,-6.62,1785112502652.1921
-0.443,-0.551,-0.657,18.68,-2.29,-4.09,1785112502652.4648
-0.418,-0.607,-0.707,1.98,0.64,-3.05,1785112502652.739
-0.444,-0.727,-0.707,-3.14,1.89,-7.72,1785112502653.018
-0.476,-0.756,-0.526,-4.3,-1.01,-11.54,1785112502653.291
-0.435,-0.698,-0.496,5.8,-5.68,-9.06,1785112502653.566
-0.392,-0.637,-0.644,25.06,-10.44,-4.73,1785112502653.8481
-0.392,-0.587,-0.824,34.61,-7.93,-4.03,1785112502654.129
-0.41,-0.53,-0.817,28.14,1.25,-4.06,1785112502654.405
-0.408,-0.553,-0.758,16.3,8.21,0.79,1785112502654.6921
-0.374,-0.603,-0.702,3.91,12.18,4.58,1785112502654.9758
-0.355,-0.677,-0.588,-1.16,13.12,3.08,1785112502655.2498
-0.401,-0.712,-0.422,-0.09,10.13,-0.52,1785112502655.5322
-0.436,-0.689,-0.441,11.81,1.59,-0.06,1785112502655.815
-0.449,-0.631,-0.537,26.76,-9.09,2.5,1785112502656.096
-0.449,-0.631,-0.537,24.78,-14.19,7.54,1785112502656.3708
-0.472,-0.496,-0.561,9.06,-14.4,14.53,1785112502656.655
-0.444,-0.386,-0.528,-4.33,-14.1,17.61,1785112502656.941
-0.407,-0.412,-0.516,-9.25,-13.21,16.08,1785112502657.2148
-0.423,-0.501,-0.529,-10.1,-15.87,12.82,1785112502657.487
-0.509,-0.558,-0.514,-10.1,-15.87,12.82,1785112502657.805
-0.557,-0.655,-0.583,-6.04,-17.27,11.23,1785112502658.076
-0.567,-0.635,-0.519,-4.64,-13.86,12.73,1785112502658.3538
-0.548,-0.606,-0.533,-2.17,-15.56,18.71,1785112502658.6252
-0.543,-0.603,-0.544,-0.49,-15.5,21.97,1785112502658.893
-0.544,-0.592,-0.534,-6.16,-14.74,21.67,1785112502659.1611
-0.527,-0.567,-0.583,-12.73,-13.55,18.62,1785112502659.426
-0.537,-0.56,-0.602,-16.24,-11.11,14.19,1785112502659.7021
-0.548,-0.566,-0.591,-20.57,-9.06,12.24,1785112502659.965
-0.561,-0.589,-0.609,-20.91,-7.51,10.96,1785112502660.2239
-0.59,-0.637,-0.635,-16.36,-7.35,8.18,1785112502660.485
-0.599,-0.659,-0.625,-7.97,-6.07,7.35,1785112502660.7502
-0.599,-0.639,-0.621,2.78,-5.31,7.63,1785112502661.001
-0.596,-0.613,-0.614,10.1,-5.98,8.39,1785112502661.262
-0.6,-0.599,-0.593,15.9,-4.76,8.39,1785112502661.522
-0.595,-0.605,-0.585,22.22,-4.18,7.32,1785112502661.781
-0.577,-0.581,-0.539,25.03,-4.12,7.93,1785112502662.0532
-0.562,-0.565,-0.522,28.11,-4.18,8.73,1785112502662.3179
-0.56,-0.556,-0.534,28.84,-4.85,7.2,1785112502662.588
-0.553,-0.534,-0.553,19.9,-4.06,4.24,1785112502662.8489
-0.551,-0.536,-0.525,4.21,-0.85,2.41,1785112502663.1082
-0.54,-0.561,-0.501,-7.42,1.37,0.43,1785112502663.363
-0.533,-0.594,-0.499,-12.24,1.77,-1.1,1785112502663.62
-0.521,-0.584,-0.485,-13.15,1.68,0.15,1785112502663.863
-0.497,-0.557,-0.462,-13.31,1.8,2.17,1785112502664.112
-0.49,-0.546,-0.445,-12.02,2.23,3.02,1785112502664.3682
-0.493,-0.532,-0.472,-8.67,2.26,0.92,1785112502664.611
-0.49,-0.531,-0.478,-8.24,2.38,0.0,1785112502664.861
-0.495,-0.543,-0.444,-7.75,2.81,1.13,1785112502665.102
-0.504,-0.52,-0.383,-6.59,1.77,3.75,1785112502665.3599
-0.514,-0.453,-0.463,-5.98,-4.7,4.36,1785112502665.6199
-0.508,-0.427,-0.706,-10.86,-6.9,-0.89,1785112502665.871
-0.537,-0.457,-0.703,-23.38,-0.03,-8.45,1785112502666.124
-0.553,-0.552,-0.597,-33.42,4.21,-4.94,1785112502666.367
-0.552,-0.605,-0.475,-30.43,3.33,5.19,1785112502666.614
-0.543,-0.6,-0.382,-12.45,-0.64,13.49,1785112502666.871
-0.528,-0.6,-0.324,14.53,-5.89,17.0,1785112502667.1118
-0.514,-0.571,-0.38,37.6,-11.54,16.72,1785112502667.3657
-0.521,-0.495,-0.454,38.18,-12.3,14.68,1785112502667.62
-0.519,-0.471,-0.545,22.13,-7.57,13.12,1785112502667.871
-0.533,-0.453,-0.632,-5.25,-0.61,14.4,1785112502668.128
-0.567,-0.47,-0.618,-32.56,5.22,19.47,1785112502668.3828
-0.588,-0.493,-0.461,-47.09,5.98,24.72,1785112502668.643
-0.571,-0.511,-0.295,-34.09,-0.61,30.3,1785112502668.947
-0.534,-0.506,-0.184,-5.49,-13.46,32.93,1785112502669.223
-0.476,-0.496,-0.135,18.4,-34.52,31.13,1785112502669.475
-0.464,-0.42,-0.359,31.28,-53.04,26.06,1785112502669.728
-0.58,-0.26,-0.652,29.42,-50.87,27.1,1785112502670.0083
-0.696,-0.344,-0.918,14.31,-34.88,37.14,1785112502670.2622
-0.756,-0.538,-0.937,-12.45,-26.34,41.87,1785112502670.52
-0.741,-0.693,-0.823,-26.28,-26.25,44.07,1785112502670.77
-0.699,-0.828,-0.633,-14.86,-33.23,45.2,1785112502671.0159
-0.659,-0.888,-0.526,11.84,-44.37,44.04,1785112502671.262
-0.632,-0.869,-0.549,44.71,-53.74,40.59,1785112502671.5068
-0.651,-0.776,-0.606,65.95,-59.42,36.01,1785112502671.743
-0.635,-0.621,-0.628,64.76,-56.25,35.55,1785112502671.99
-0.595,-0.509,-0.68,58.99,-47.33,35.19,1785112502672.231
-0.613,-0.466,-0.736,48.62,-39.98,31.92,1785112502672.472
-0.634,-0.499,-0.739,28.02,-31.19,28.08,1785112502672.7048
-0.618,-0.576,-0.684,5.68,-21.76,24.38,1785112502672.944
-0.633,-0.641,-0.653,-5.86,-15.93,21.55,1785112502673.185
-0.662,-0.635,-0.635,-12.21,-12.88,16.82,1785112502673.4238
-0.655,-0.682,-0.579,-16.21,-11.69,12.54,1785112502673.67
-0.648,-0.735,-0.561,-10.99,-11.63,9.89,1785112502673.9111
-0.662,-0.742,-0.575,-1.43,-12.24,6.07,1785112502674.149
-0.66,-0.704,-0.591,6.68,-11.32,3.11,1785112502674.3748
-0.647,-0.642,-0.607,10.74,-9.4,1.1,1785112502674.6099
-0.637,-0.6,-0.595,9.8,-8.73,0.61,1785112502674.847
-0.627,-0.58,-0.584,7.69,-6.87,1.8,1785112502675.0742
-0.618,-0.549,-0.581,5.19,-5.83,1.83,1785112502675.308
-0.628,-0.567,-0.557,3.97,-4.88,3.6,1785112502675.545
-0.636,-0.533,-0.568,6.23,-4.88,5.65,1785112502675.774
-0.625,-0.548,-0.566,1.43,-4.15,7.87,1785112502676.047
-0.647,-0.619,-0.563,-4.61,-1.83,7.97,1785112502676.281
-0.67,-0.641,-0.561,-6.56,-0.27,7.26,1785112502676.5188
-0.684,-0.69,-0.566,-4.18,1.83,8.73,1785112502676.748
-0.674,-0.67,-0.535,-1.1,1.86,9.16,1785112502676.9788
-0.66,-0.665,-0.518,4.94,1.31,9.43,1785112502677.2102
-0.657,-0.627,-0.532,11.11,0.61,8.06,1785112502677.4578
-0.659,-0.594,-0.539,14.16,0.82,6.32,1785112502677.702
-0.657,-0.572,-0.567,15.32,1.13,4.73,1785112502677.9329
-0.663,-0.562,-0.602,10.68,3.69,2.93,1785112502678.155
-0.686,-0.578,-0.622,3.48,7.45,1.77,1785112502678.3792
-0.695,-0.595,-0.626,-2.99,9.64,0.46,1785112502678.606
-0.686,-0.606,-0.605,-9.52,10.68,-0.55,1785112502678.8289
-0.675,-0.616,-0.61,-14.22,11.05,-1.83,1785112502679.05
-0.66,-0.617,-0.61,-17.76,11.66,-4.94,1785112502679.279
-0.645,-0.591,-0.555,-19.84,12.21,-7.75,1785112502679.511
-0.642,-0.558,-0.54,-18.04,10.99,-8.85,1785112502679.736
-0.642,-0.536,-0.564,-15.75,9.25,-10.38,1785112502679.955
-0.651,-0.508,-0.58,-18.25,9.31,-12.45,1785112502680.175
-0.648,-0.505,-0.546,-28.05,10.56,-11.96,1785112502680.622
-0.646,-0.51,-0.482,-29.24,10.1,-11.47,1785112502680.846
-0.462,-0.578,-0.647,1.4,-6.1,10.41,1785112502681.1409
-0.462,-0.586,-0.644,-1.65,-5.28,10.41,1785112502681.3838
-0.461,-0.585,-0.641,-3.88,-4.46,10.86,1785112502681.6057
-0.464,-0.59,-0.641,-5.46,-3.72,11.47,1785112502681.8308
-0.47,-0.591,-0.644,-7.51,-2.84,12.27,1785112502687.149
-0.481,-0.604,-0.65,-9.98,-2.14,13.0,1785112502697.513
-0.49,-0.621,-0.655,-12.51,-1.68,13.64,1785112502708.113
-0.494,-0.635,-0.668,-15.72,-0.79,14.44,1785112502718.6611
-0.501,-0.655,-0.679,-19.14,0.52,15.29,1785112502731.8987
-0.495,-0.665,-0.67,-21.33,1.46,15.81,1785112502737.574
-0.483,-0.676,-0.635,-20.57,2.29,16.33,1785112502748.107
-0.463,-0.679,-0.577,-16.17,1.5,17.33,1785112502758.558
-0.429,-0.674,-0.548,-6.5,-0.58,17.91,1785112502771.935
-0.412,-0.658,-0.562,4.97,-2.08,16.94,1785112502777.535
-0.417,-0.636,-0.585,13.76,-3.08,15.41,1785112502787.966
-0.414,-0.613,-0.624,18.89,-2.9,14.65,1785112502798.5288
-0.422,-0.578,-0.657,20.33,-2.14,13.98,1785112502811.793
-0.429,-0.564,-0.685,18.13,-0.95,13.58,1785112502817.547
-0.424,-0.562,-0.712,12.76,0.31,13.52,1785112502828.007
-0.415,-0.56,-0.731,7.78,1.4,13.49,1785112502838.511
-0.401,-0.559,-0.737,5.71,3.11,12.94,1785112502851.7593
-0.394,-0.558,-0.747,5.71,5.04,11.78,1785112502857.445
-0.402,-0.562,-0.755,5.37,7.72,10.65,1785112502867.734
-0.413,-0.576,-0.736,3.97,10.59,9.46,1785112502878.3218
-0.422,-0.597,-0.738,2.56,13.31,7.57,1785112502888.8162
-0.437,-0.626,-0.729,0.27,15.99,4.73,1785112502902.0422
-0.45,-0.664,-0.711,-0.89,18.22,1.19,1785112502907.621
-0.452,-0.677,-0.686,0.58,19.29,-1.86,1785112502918.043
-0.451,-0.66,-0.692,3.36,19.75,-4.39,1785112502928.725
-0.455,-0.638,-0.713,3.54,20.78,-7.39,1785112502938.925
-0.464,-0.628,-0.716,0.92,22.19,-9.95,1785112502952.2349
-0.464,-0.635,-0.694,-1.16,22.71,-11.11,1785112502958.452
-0.455,-0.631,-0.687,-0.67,22.55,-11.32,1785112502968.3389
-0.449,-0.619,-0.688,-0.76,22.58,-10.83,1785112502978.882
-0.444,-0.62,-0.684,-2.72,22.34,-10.65,1785112502992.18
-0.432,-0.619,-0.675,-4.79,21.58,-10.16,1785112502998.106
-0.411,-0.615,-0.659,-5.28,20.78,-9.43,1785112503008.249
-0.401,-0.616,-0.68,-5.8,19.53,-7.84,1785112503018.76
-0.401,-0.641,-0.724,-7.51,19.99,-6.84,1785112503031.9539
-0.414,-0.702,-0.775,-10.62,22.52,-7.69,1785112503038.2258
-0.434,-0.791,-0.827,-14.07,26.06,-9.28,1785112503050.023
-0.439,-0.88,-0.877,-11.87,30.98,-11.51,1785112503058.5588
-0.435,-0.922,-0.895,-3.2,33.91,-13.79,1785112503071.9219
-0.422,-0.906,-0.85,6.01,33.05,-14.8,1785112503078.021
-0.383,-0.861,-0.8,12.48,30.46,-13.73,1785112503088.386
-0.342,-0.817,-0.758,15.2,28.5,-11.93,1785112503098.8413
-0.318,-0.781,-0.722,15.29,26.49,-11.05,1785112503112.116
-0.312,-0.746,-0.696,16.94,23.74,-11.57,1785112503118.113
-0.326,-0.674,-0.63,19.99,20.33,-11.75,1785112503128.327
-0.334,-0.549,-0.524,26.34,15.78,-8.79,1785112503141.855
-0.329,-0.422,-0.515,34.94,9.37,-0.43,1785112503147.805
-0.327,-0.347,-0.532,38.24,4.52,7.97,1785112503157.8901
-0.35,-0.31,-0.525,30.92,0.85,10.1,1785112503168.515
-0.393,-0.327,-0.527,17.46,0.03,8.27,1785112503178.895
-0.451,-0.389,-0.575,2.66,-2.14,4.97,1785112503192.101
-0.464,-0.474,-0.595,-14.31,-2.84,3.45,1785112503197.948
-0.454,-0.541,-0.538,-28.44,-3.75,4.52,1785112503207.9658
-0.447,-0.578,-0.516,-34.12,-9.31,7.69,1785112503218.425
-0.442,-0.587,-0.545,-30.18,-17.67,10.44,1785112503231.701
-0.436,-0.578,-0.628,-19.59,-22.46,10.71,1785112503237.907
-0.43,-0.573,-0.709,-11.84,-23.71,9.49,1785112503248.039
-0.436,-0.604,-0.807,-5.49,-22.86,6.23,1785112503258.5752
-0.475,-0.655,-0.851,-3.36,-17.91,2.66,1785112503269.0352
-0.523,-0.698,-0.777,-2.17,-9.89,1.53,1785112503282.01
-0.51,-0.705,-0.718,3.66,-5.77,6.99,1785112503287.599
-0.458,-0.668,-0.599,11.57,-3.36,15.38,1785112503297.7878
-0.414,-0.64,-0.6,29.85,-4.46,17.21,1785112503308.379
-0.4,-0.558,-0.641,43.49,-4.79,13.67,1785112503321.708
-0.383,-0.474,-0.668,41.51,-3.2,5.49,1785112503327.363
-0.383,-0.474,-0.668,27.86,-0.24,-0.31,1785112503337.7449
-0.385,-0.543,-0.608,21.67,1.22,-6.23,1785112503348.1409
-0.416,-0.669,-0.593,17.94,5.25,-11.2,1785112503358.7341
-0.449,-0.705,-0.618,9.89,9.95,-11.32,1785112503372.0588
-0.441,-0.708,-0.592,4.88,12.79,-10.13,1785112503377.7449
-0.427,-0.653,-0.594,4.88,12.79,-10.13,1785112503388.253
-0.414,-0.59,-0.527,-1.25,16.69,-11.08,1785112503398.643
-0.384,-0.572,-0.526,-1.5,16.27,-14.1,1785112503412.103
-0.394,-0.545,-0.522,-4.39,18.13,-17.4,1785112503418.119
-0.385,-0.566,-0.484,-0.95,20.36,-18.4,1785112503428.334
-0.392,-0.512,-0.521,4.94,20.57,-18.01,1785112503438.907
-0.412,-0.456,-0.501,0.37,23.44,-14.13,1785112503452.142
-0.43,-0.462,-0.432,-5.86,22.4,-9.7,1785112503458.1382
-0.415,-0.493,-0.399,-5.77,18.46,-5.4,1785112503468.1448
-0.408,-0.501,-0.429,-1.43,13.89,-2.99,1785112503478.593
-0.424,-0.482,-0.424,1.13,9.25,1.37,1785112503489.0151
-0.412,-0.49,-0.352,6.62,4.76,6.81,1785112503502.25
-0.387,-0.486,-0.363,15.81,0.31,9.77,1785112503508.105
-0.293,-0.45,-0.403,17.18,-6.04,12.24,1785112503518.2139
-0.169,-0.437,-0.415,4.12,-17.03,7.63,1785112503528.657
-0.256,-0.432,-0.553,-13.4,-25.12,-3.2,1785112503541.95
-0.423,-0.536,-0.833,-28.17,-19.23,-0.64,1785112503547.895
-0.525,-0.67,-1.039,-47.67,-8.61,1.77,1785112503558.014
-0.531,-0.776,-1.064,-57.89,0.4,0.06,1785112503568.5088
-0.479,-0.934,-1.087,-39.25,3.78,-0.15,1785112503578.9438
-0.45,-0.962,-0.98,-21.24,4.0,-5.8,1785112503592.291
-0.41,-0.963,-0.865,-6.74,0.95,-7.54,1785112503598.003
-0.341,-0.943,-0.804,4.91,-2.53,-9.09,1785112503608.002
-0.296,-0.86,-0.745,10.19,-4.82,-14.01,1785112503618.623
-0.272,-0.825,-0.742,13.61,-4.27,-16.82,1785112503631.82
-0.299,-0.758,-0.694,12.54,-3.97,-19.59,1785112503637.836
-0.305,-0.714,-0.658,14.68,-5.4,-19.47,1785112503647.9868
-0.306,-0.697,-0.695,21.73,-6.04,-18.01,1785112503658.634
-0.329,-0.619,-0.734,28.05,-4.27,-15.84,1785112503671.599
-0.34,-0.56,-0.757,29.63,-2.04,-12.54,1785112503677.661
-0.345,-0.569,-0.729,26.06,0.79,-9.95,1785112503687.952
-0.34,-0.585,-0.723,21.45,3.85,-8.42,1785112503698.3218
-0.35,-0.592,-0.704,15.29,7.84,-6.01,1785112503708.915
-0.37,-0.618,-0.685,10.07,10.1,-4.52,1785112503722.152
-0.372,-0.637,-0.664,7.39,10.83,-3.48,1785112503728.124
-0.38,-0.639,-0.665,7.29,11.32,-2.44,1785112503738.088
-0.395,-0.657,-0.648,7.2,11.44,-2.2,1785112503748.5098
-0.393,-0.677,-0.629,6.68,10.28,-1.8,1785112503758.958
-0.378,-0.676,-0.615,5.65,9.09,-0.09,1785112503772.225
-0.366,-0.658,-0.614,4.0,7.2,0.98,1785112503777.932
-0.34,-0.628,-0.627,2.81,5.8,1.34,1785112503787.9
-0.339,-0.617,-0.653,1.83,4.97,0.85,1785112503798.248
-0.353,-0.601,-0.649,0.31,4.91,1.28,1785112503808.7192
-0.354,-0.587,-0.637,-0.73,3.27,3.14,1785112503821.922
-0.346,-0.57,-0.66,-2.93,1.83,5.86,1785112503827.6438
-0.358,-0.564,-0.677,-7.69,1.92,7.51,1785112503837.587
-0.365,-0.584,-0.682,-13.4,2.2,9.16,1785112503848.0972
-0.375,-0.621,-0.663,-16.63,1.86,10.8,1785112503858.628
-0.379,-0.64,-0.647,-17.67,1.04,12.7,1785112503871.9402
-0.375,-0.642,-0.666,-16.24,-0.12,14.31,1785112503877.92
-0.389,-0.637,-0.659,-13.95,-1.25,14.8,1785112503888.101
-0.38,-0.649,-0.678,-9.7,-2.11,15.63,1785112503898.499
-0.355,-0.66,-0.722,-7.39,-2.84,14.47,1785112503908.739
-0.355,-0.665,-0.776,-4.73,-1.28,13.31,1785112503922.132
-0.363,-0.648,-0.812,-3.75,0.82,12.54,1785112503928.309
-0.354,-0.661,-0.846,-3.81,3.3,11.72,1785112503938.2852
-0.348,-0.685,-0.815,-6.9,6.01,10.01,1785112503948.687
-0.345,-0.695,-0.725,-10.59,5.98,8.88,1785112503961.9358
-0.348,-0.711,-0.626,-11.11,2.5,9.55,1785112503967.836
-0.363,-0.71,-0.53,-12.7,-2.32,9.89,1785112503977.8938
-0.357,-0.721,-0.496,-12.63,-5.92,9.7,1785112503988.4548
-0.355,-0.683,-0.485,-10.65,-8.64,9.49,1785112503998.8323
-0.355,-0.603,-0.539,-2.84,-11.6,12.73,1785112504012.043
-0.336,-0.536,-0.666,7.97,-12.88,15.66,1785112504018.047
-0.341,-0.508,-0.785,11.26,-10.22,15.66,1785112504028.3892
-0.37,-0.539,-0.839,6.93,-4.06,15.56,1785112504038.879
-0.388,-0.587,-0.775,2.08,0.67,16.36,1785112504052.1082
-0.39,-0.604,-0.63,3.57,0.67,18.01,1785112504058.013
-0.393,-0.571,-0.486,8.0,-3.81,20.78,1785112504067.981
-0.381,-0.564,-0.458,13.06,-8.64,24.75,1785112504078.5378
-0.375,-0.601,-0.534,18.71,-10.99,25.33,1785112504091.837
-0.4,-0.615,-0.664,23.01,-11.44,22.58,1785112504097.8242
-0.446,-0.611,-0.798,19.93,-9.25,19.07,1785112504108.234
-0.485,-0.633,-0.888,8.45,-6.04,15.44,1785112504118.609
-0.489,-0.694,-0.921,-4.82,-1.16,12.42,1785112504131.8982
-0.471,-0.765,-0.859,-14.31,4.09,10.41,1785112504138.0378
-0.445,-0.84,-0.773,-14.71,6.04,9.64,1785112504147.8557
-0.403,-0.857,-0.665,-7.48,4.88,8.15,1785112504158.272
-0.378,-0.797,-0.598,5.92,1.22,7.17,1785112504168.689
-0.368,-0.748,-0.636,22.55,-6.59,6.44,1785112504181.8838
-0.37,-0.696,-0.671,32.84,-10.5,2.87,1785112504188.103
-0.409,-0.602,-0.664,30.52,-10.71,1.28,1785112504197.986
-0.419,-0.55,-0.68,19.1,-11.6,5.58,1785112504208.6233
-0.399,-0.524,-0.595,4.49,-10.83,8.21,1785112504219.018
-0.412,-0.543,-0.546,-3.11,-10.56,8.39,1785112504232.29
-0.453,-0.561,-0.508,-3.85,-10.25,8.79,1785112504238.273
-0.482,-0.53,-0.485,0.37,-14.13,11.17,1785112504248.333
-0.441,-0.48,-0.567,6.32,-19.26,12.91,1785112504258.851
-0.406,-0.462,-0.653,3.02,-19.75,8.76,1785112504272.22
-0.441,-0.516,-0.689,-10.07,-15.26,2.14,1785112504278.1382
-0.472,-0.613,-0.721,-20.36,-12.3,-1.89,1785112504288.3909
-0.489,-0.719,-0.775,-21.39,-9.74,-4.82,1785112504298.6602
-0.503,-0.764,-0.753,-17.43,-4.06,-2.9,1785112504311.9512
-0.484,-0.753,-0.723,-5.77,-1.04,2.32,1785112504317.7139
-0.472,-0.699,-0.727,10.16,-0.73,3.94,1785112504327.776
-0.47,-0.642,-0.685,18.31,0.37,4.0,1785112504338.3857
-0.458,-0.619,-0.651,22.28,1.13,4.67,1785112504348.7449
-0.442,-0.596,-0.632,24.48,1.01,4.46,1785112504361.7122
-0.438,-0.564,-0.579,22.46,1.53,2.56,1785112504367.864
-0.453,-0.562,-0.516,18.1,2.44,-0.06,1785112504377.978
-0.438,-0.553,-0.512,12.54,3.78,-1.43,1785112504388.48
-0.424,-0.518,-0.522,4.0,4.85,-2.72,1785112504398.7131
-0.431,-0.508,-0.522,-6.68,7.08,-3.97,1785112504411.962
-0.449,-0.533,-0.524,-14.86,10.04,-4.27,1785112504417.939
-0.428,-0.524,-0.565,-19.04,11.57,-1.86,1785112504428.0342
-0.394,-0.494,-0.597,-21.82,11.99,0.64,1785112504438.648
-0.399,-0.492,-0.637,-24.93,12.79,2.32,1785112504451.821
-0.394,-0.509,-0.691,-27.95,14.16,4.7,1785112504457.962
-0.389,-0.584,-0.715,-26.46,15.02,5.49,1785112504468.118
-0.422,-0.668,-0.712,-20.87,16.33,4.73,1785112504478.612
-0.432,-0.72,-0.697,-12.54,15.87,5.95,1785112504491.8987
-0.432,-0.746,-0.68,-2.99,13.61,6.71,1785112504497.8508
-0.428,-0.722,-0.673,4.09,10.68,7.6,1785112504507.864
-0.402,-0.681,-0.642,7.63,7.23,8.36,1785112504518.2341
-0.386,-0.636,-0.596,7.26,3.97,7.45,1785112504528.595
-0.375,-0.576,-0.598,5.01,2.9,8.27,1785112504539.031
-0.366,-0.52,-0.603,0.43,0.67,10.38,1785112504552.256
-0.359,-0.508,-0.616,-8.12,0.31,11.11,1785112504558.2578
-0.368,-0.52,-0.644,-20.87,2.78,11.35,1785112504568.3289
-0.38,-0.528,-0.655,-36.87,3.17,12.09,1785112504578.827
-0.384,-0.558,-0.683,-47.64,3.33,12.15,1785112504592.155
-0.393,-0.568,-0.668,-48.49,3.02,11.96,1785112504598.056
-0.404,-0.558,-0.628,-38.12,0.12,14.1,1785112504608.372
-0.396,-0.531,-0.556,-20.6,-5.13,17.58,1785112504618.884
-0.396,-0.531,-0.556,-1.13,-12.33,20.63,1785112504632.082
-0.4,-0.498,-0.502,15.41,-18.01,25.21,1785112504638.091
-0.382,-0.455,-0.577,18.04,-19.01,28.38,1785112504648.588
-0.375,-0.405,-0.71,6.53,-13.55,28.47,1785112504659.07
-0.403,-0.415,-0.766,6.53,-13.55,28.47,1785112504672.2979
-0.445,-0.473,-0.732,-7.48,-7.54,29.36,1785112504678.3008
-0.46,-0.567,-0.748,-12.02,-4.24,29.94,1785112504688.4102
-0.493,-0.656,-0.712,-7.63,-2.56,26.8,1785112504698.84
-0.532,-0.678,-0.651,4.18,-2.96,22.55,1785112504712.045
-0.527,-0.682,-0.668,18.52,-5.1,19.1,1785112504718.055
-0.531,-0.684,-0.674,28.75,-5.86,13.25,1785112504728.172
-0.554,-0.664,-0.654,33.66,-5.58,6.96,1785112504738.657
-0.537,-0.635,-0.71,32.78,-3.42,3.72,1785112504751.887
-0.531,-0.623,-0.783,25.76,0.03,-0.52,1785112504757.8088
-0.54,-0.672,-0.81,13.06,5.46,-5.8,1785112504767.811
-0.539,-0.741,-0.77,-1.8,9.92,-10.96,1785112504778.296
-0.534,-0.764,-0.696,-9.52,10.93,-14.56,1785112504788.9001
-0.505,-0.773,-0.667,-7.84,10.47,-17.61,1785112504802.103
-0.508,-0.786,-0.641,-0.55,7.97,-23.1,1785112504808.105
-0.519,-0.786,-0.67,13.0,5.25,-27.89,1785112504818.259
-0.512,-0.754,-0.687,22.37,1.74,-31.1,1785112504828.769
-0.49,-0.729,-0.721,21.33,2.29,-31.28,1785112504842.0842
-0.469,-0.726,-0.689,15.23,3.45,-30.79,1785112504848.047
-0.471,-0.725,-0.657,18.07,2.75,-31.25,1785112504858.119
-0.454,-0.687,-0.648,25.09,0.67,-31.31,1785112504868.778
-0.43,-0.627,-0.662,28.78,-0.46,-31.07,1785112504882.009
-0.411,-0.584,-0.646,24.72,0.31,-29.21,1785112504888.3782
-0.386,-0.558,-0.612,15.96,1.65,-26.8,1785112504898.241
-0.356,-0.555,-0.56,5.52,2.32,-24.6,1785112504908.463
-0.346,-0.571,-0.493,-1.01,0.46,-23.1,1785112504921.7742
-0.338,-0.552,-0.485,1.19,-4.0,-20.6,1785112504927.911
-0.349,-0.512,-0.549,5.62,-7.45,-18.22,1785112504937.771
-0.38,-0.495,-0.609,2.75,-8.73,-16.54,1785112504948.342
-0.393,-0.516,-0.637,-3.08,-8.64,-13.86,1785112504958.837
-0.396,-0.536,-0.649,-6.26,-8.51,-9.09,1785112504972.183
-0.408,-0.54,-0.666,-8.94,-8.39,-3.02,1785112504977.803
-0.401,-0.546,-0.687,-13.64,-7.69,1.56,1785112504987.8972
-0.413,-0.58,-0.744,-18.04,-6.38,5.04,1785112504998.2888
-0.433,-0.618,-0.778,-22.95,-3.91,7.08,1785112505008.7622
-0.42,-0.679,-0.715,-26.25,-2.56,8.42,1785112505022.0881
-0.385,-0.705,-0.608,-23.29,-3.75,9.64,1785112505027.939
-0.352,-0.683,-0.525,-10.56,-7.75,9.86,1785112505038.061
-0.36,-0.624,-0.52,7.08,-11.87,8.58,1785112505048.4211
-0.375,-0.547,-0.583,18.43,-13.18,8.58,1785112505059.009
-0.401,-0.501,-0.702,17.76,-10.5,8.51,1785112505072.2969
-0.44,-0.526,-0.821,8.64,-4.24,7.93,1785112505078.136
-0.468,-0.598,-0.894,-3.91,3.14,5.74,1785112505088.117
-0.464,-0.681,-0.935,-14.77,11.17,2.41,1785112505098.649
-0.447,-0.751,-0.833,-23.16,16.51,-1.98,1785112505111.8928
-0.444,-0.804,-0.583,-25.61,13.46,-5.65,1785112505117.8691
-0.392,-0.793,-0.426,-14.19,6.23,-6.2,1785112505128.001
-0.335,-0.668,-0.366,6.93,-3.02,-5.55,1785112505138.4622
-0.323,-0.507,-0.449,27.38,-11.17,-3.51,1785112505148.9229
-0.355,-0.415,-0.573,36.59,-15.14,-0.55,1785112505162.1829
-0.411,-0.379,-0.749,29.51,-14.65,0.52,1785112505168.173
-0.489,-0.372,-0.877,9.16,-8.91,2.5,1785112505178.216
-0.493,-0.481,-0.938,-17.98,-0.95,7.14,1785112505188.698
-0.525,-0.601,-0.812,-37.14,6.07,7.48,1785112505201.938
-0.545,-0.713,-0.743,-35.28,4.88,18.68,1785112505208.114
-0.399,-0.826,-0.463,-23.96,1.31,19.35,1785112505217.9092
-0.435,-0.758,-0.229,2.17,-11.81,7.35,1785112505228.549
-0.514,-0.591,-0.287,27.8,-23.13,12.33,1785112505241.875
-0.506,-0.501,-0.568,39.67,-34.12,17.82,1785112505247.752
-0.511,-0.485,-0.851,24.54,-35.8,13.49,1785112505258.2222
-0.53,-0.569,-0.959,-12.54,-23.07,5.55,1785112505268.8909
-0.518,-0.695,-0.856,-46.57,-7.87,-0.34,1785112505282.008
-0.493,-0.811,-0.715,-52.16,-2.84,-0.89,1785112505288.133
-0.554,-0.796,-0.577,-39.37,-4.64,-3.72,1785112505297.908
-0.556,-0.751,-0.506,-19.9,-10.68,-4.91,1785112505308.569
-0.543,-0.661,-0.506,3.36,-20.33,-4.82,1785112505318.994
-0.554,-0.599,-0.625,18.92,-30.98,-3.81,1785112505332.253
-0.489,-0.6,-0.768,17.37,-33.6,-6.07,1785112505338.3198
-0.482,-0.61,-0.75,2.23,-24.99,-9.86,1785112505348.32
-0.538,-0.655,-0.668,-10.16,-18.13,-7.39,1785112505358.924
-0.512,-0.704,-0.67,-9.37,-20.08,-5.95,1785112505372.205
-0.503,-0.673,-0.699,-3.05,-20.94,-9.64,1785112505378.031
-0.475,-0.63,-0.705,-1.25,-18.89,-10.59,1785112505388.263
-0.463,-0.591,-0.69,-1.22,-16.21,-12.21,1785112505398.6868
-0.46,-0.588,-0.642,-0.89,-14.31,-11.32,1785112505411.942
-0.459,-0.618,-0.635,2.72,-14.74,-9.8,1785112505417.989
-0.476,-0.637,-0.642,7.69,-14.71,-10.83,1785112505428.122
-0.478,-0.636,-0.626,12.79,-14.19,-10.9,1785112505438.8052
-0.463,-0.631,-0.637,18.04,-13.58,-10.99,1785112505452.0562
-0.456,-0.609,-0.648,19.26,-12.21,-12.48,1785112505458.109
-0.455,-0.606,-0.673,15.35,-9.74,-14.34,1785112505468.3242
-0.458,-0.62,-0.661,10.28,-5.89,-16.05,1785112505478.9077
-0.45,-0.644,-0.651,7.66,-2.9,-16.88,1785112505492.1548
-0.471,-0.645,-0.646,5.19,-0.34,-16.82,1785112505498.014
-0.495,-0.635,-0.586,2.01,1.16,-15.63,1785112505508.11
-0.481,-0.665,-0.652,7.51,-0.52,-16.14,1785112505518.566
-0.505,-0.617,-0.692,10.1,2.08,-20.33,1785112505531.779
-0.494,-0.627,-0.625,3.57,5.71,-18.52,1785112505537.992
-0.494,-0.656,-0.572,7.84,5.83,-15.72,1785112505547.7852
-0.505,-0.605,-0.542,14.71,3.97,-16.27,1785112505558.43
-0.496,-0.575,-0.509,16.85,3.97,-16.75,1785112505568.9778
-0.502,-0.581,-0.502,18.8,5.22,-17.18,1785112505582.1582
-0.478,-0.548,-0.527,19.1,6.38,-18.77,1785112505588.337
-0.472,-0.548,-0.536,13.86,8.12,-18.71,1785112505598.412
-0.483,-0.581,-0.534,8.03,10.68,-17.24,1785112505609.001
