ax,ay,az,gx,gy,gz,timestamp_ms
-0.875,-0.299,-0.276,11.87,2.11,1.83,1785093194888.744
-0.867,-0.304,-0.263,13.73,2.23,0.76,1785093194932.548
-0.865,-0.313,-0.257,15.41,2.23,0.67,1785093194932.9211
-0.874,-0.313,-0.263,16.91,2.29,-0.4,1785093194933.1711
-0.877,-0.315,-0.268,17.73,2.41,-0.95,1785093194933.418
-0.877,-0.321,-0.268,18.46,2.5,-0.37,1785093194933.6619
-0.879,-0.318,-0.269,19.71,2.62,-0.18,1785093194933.898
-0.881,-0.312,-0.272,20.75,2.75,0.31,1785093194934.1372
-0.882,-0.306,-0.269,21.36,2.96,0.79,1785093194934.372
-0.885,-0.303,-0.27,21.24,2.9,1.04,1785093194934.6052
-0.89,-0.305,-0.27,20.33,2.84,1.04,1785093194934.842
-0.894,-0.303,-0.267,19.59,3.27,1.95,1785093194935.0789
-0.901,-0.305,-0.267,18.59,3.45,2.69,1785093194935.313
-0.906,-0.3,-0.267,16.33,3.66,3.45,1785093194935.5469
-0.907,-0.306,-0.261,14.04,3.78,4.64,1785093194935.789
-0.91,-0.315,-0.257,12.91,3.69,5.77,1785093194936.0269
-0.914,-0.324,-0.256,12.42,2.75,6.68,1785093194936.269
-0.916,-0.318,-0.258,11.29,2.08,7.42,1785093194936.5098
-0.913,-0.311,-0.257,9.31,2.14,7.32,1785093194936.748
-0.91,-0.314,-0.259,6.71,1.89,8.39,1785093194936.985
-0.916,-0.325,-0.253,3.54,1.28,9.16,1785093194937.216
-0.899,-0.339,-0.256,3.33,0.37,8.94,1785093194937.4778
-0.911,-0.319,-0.264,3.63,0.03,8.51,1785093194937.719
-0.907,-0.333,-0.281,3.08,0.15,8.94,1785093194937.9539
-0.905,-0.331,-0.278,1.46,-0.18,8.45,1785093194938.182
-0.905,-0.324,-0.267,0.31,-1.07,9.52,1785093194938.409
-0.902,-0.316,-0.262,-1.31,-1.5,9.86,1785093194938.627
-0.902,-0.314,-0.252,-3.23,-1.89,9.03,1785093194938.852
-0.885,-0.32,-0.251,-4.43,-2.9,8.18,1785093194939.0789
-0.879,-0.345,-0.257,-5.1,-3.72,7.11,1785093194939.296
-0.878,-0.352,-0.265,-4.97,-4.21,5.34,1785093194939.519
-0.869,-0.351,-0.261,-4.36,-4.46,4.67,1785093194939.75
-0.868,-0.358,-0.263,-1.37,-4.27,5.77,1785093194939.971
-0.879,-0.323,-0.267,1.77,-4.18,6.74,1785093194940.184
-0.882,-0.281,-0.267,1.71,-4.52,7.81,1785093194940.4211
-0.875,-0.275,-0.274,-1.56,-4.76,6.99,1785093194940.675
-0.872,-0.29,-0.273,-6.23,-4.73,5.16,1785093194940.902
-0.876,-0.319,-0.268,-10.22,-4.58,3.81,1785093194941.139
-0.884,-0.328,-0.262,-12.05,-4.3,3.11,1785093194941.374
-0.887,-0.335,-0.26,-11.84,-3.97,3.48,1785093194941.5889
-0.895,-0.334,-0.254,-10.99,-3.75,3.75,1785093194941.8271
-0.895,-0.33,-0.254,-10.13,-3.69,4.09,1785093194942.085
-0.894,-0.336,-0.257,-8.91,-3.51,4.18,1785093194942.348
-0.9,-0.331,-0.26,-7.26,-3.08,3.69,1785093194942.606
-0.903,-0.332,-0.263,-5.49,-2.56,3.51,1785093194942.854
-0.901,-0.341,-0.261,-3.88,-2.26,2.9,1785093194943.0762
-0.898,-0.351,-0.265,-1.77,-1.74,2.01,1785093194943.289
-0.904,-0.333,-0.266,-0.37,-1.56,1.53,1785093194943.505
-0.902,-0.303,-0.271,-1.01,-1.53,1.34,1785093194943.721
-0.901,-0.305,-0.266,-3.54,-1.19,0.67,1785093194943.932
-0.901,-0.314,-0.259,-5.86,-1.16,-0.24,1785093194944.136
-0.9,-0.312,-0.259,-6.81,-1.19,-1.19,1785093194944.34
-0.9,-0.301,-0.254,-8.03,-1.22,-1.83,1785093194944.541
-0.895,-0.303,-0.255,-8.24,-1.13,-2.41,1785093194944.748
-0.896,-0.302,-0.261,-8.0,-0.95,-3.27,1785093194944.9558
-0.901,-0.294,-0.259,-8.67,-0.92,-4.24,1785093194945.154
-0.906,-0.294,-0.26,-10.25,-0.89,-4.7,1785093194945.3782
-0.909,-0.302,-0.262,-11.75,-0.98,-4.94,1785093194945.59
-0.911,-0.3,-0.259,-12.33,-0.7,-4.91,1785093194945.796
-0.911,-0.296,-0.262,-11.6,-0.4,-4.7,1785093194945.997
-0.91,-0.287,-0.265,-11.51,-0.27,-4.55,1785093194946.2039
-0.909,-0.287,-0.268,-11.87,-0.4,-3.88,1785093194946.41
-0.908,-0.285,-0.27,-11.66,-0.12,-3.69,1785093194946.6099
-0.907,-0.271,-0.269,-11.6,0.37,-3.33,1785093194946.816
-0.906,-0.279,-0.266,-11.87,0.7,-2.47,1785093194947.021
-0.905,-0.276,-0.267,-11.32,0.7,-2.14,1785093194947.223
-0.904,-0.287,-0.265,-10.65,0.95,-1.95,1785093194947.43
-0.901,-0.294,-0.265,-8.85,0.98,-1.98,1785093194947.636
-0.901,-0.285,-0.262,-7.26,0.85,-1.62,1785093194947.839
-0.901,-0.28,-0.26,-6.78,0.64,-1.13,1785093194948.044
-0.901,-0.279,-0.26,-6.74,0.4,-1.34,1785093194948.254
-0.907,-0.284,-0.255,-6.5,0.37,-1.1,1785093194948.462
-0.906,-0.277,-0.259,-5.52,0.18,-0.79,1785093194948.662
-0.898,-0.266,-0.263,-4.76,0.4,-0.55,1785093194948.868
-0.904,-0.271,-0.261,-5.19,0.85,-0.4,1785093194949.077
-0.903,-0.28,-0.26,-4.36,0.67,-0.31,1785093194949.2778
-0.906,-0.274,-0.258,-3.11,0.89,-0.15,1785093194949.483
-0.904,-0.273,-0.261,-2.44,1.16,0.06,1785093194949.688
-0.904,-0.282,-0.259,-2.41,1.34,-0.4,1785093194949.889
-0.904,-0.297,-0.255,-1.28,1.28,-0.61,1785093194950.092
-0.906,-0.288,-0.259,0.58,1.25,-0.82,1785093194950.3
-0.903,-0.277,-0.262,1.13,1.16,-0.58,1785093194950.502
-0.901,-0.287,-0.261,1.5,0.92,-0.31,1785093194950.706
-0.9,-0.274,-0.263,1.71,0.76,-0.21,1785093194950.909
-0.901,-0.274,-0.262,1.16,0.79,0.15,1785093194951.113
-0.898,-0.277,-0.261,1.13,0.46,0.34,1785093194951.3118
-0.894,-0.274,-0.259,0.64,0.58,-0.03,1785093194951.518
-0.893,-0.295,-0.254,1.07,0.43,-0.24,1785093194951.722
-0.895,-0.287,-0.258,2.08,0.03,-0.31,1785093194951.915
-0.896,-0.276,-0.26,2.17,0.37,-0.31,1785093194952.107
-0.894,-0.279,-0.261,1.77,0.58,-0.46,1785093194952.301
-0.894,-0.285,-0.259,1.4,0.7,-0.85,1785093194952.4941
-0.897,-0.291,-0.258,1.46,0.64,-0.89,1785093194952.689
-0.901,-0.291,-0.255,1.71,0.61,-0.89,1785093194952.905
-0.902,-0.29,-0.255,2.01,0.67,-0.67,1785093194953.101
-0.901,-0.291,-0.255,2.75,0.61,-0.34,1785093194953.2878
-0.903,-0.289,-0.258,3.72,0.82,-0.09,1785093194953.4832
-0.905,-0.287,-0.261,4.39,1.01,0.06,1785093194953.6782
-0.904,-0.287,-0.26,4.82,0.92,0.12,1785093194953.865
-0.904,-0.289,-0.261,5.19,0.92,0.03,1785093194954.061
-0.904,-0.29,-0.262,5.25,0.82,0.15,1785093194954.257
-0.901,-0.289,-0.261,5.16,0.82,0.4,1785093194954.4429
-0.899,-0.287,-0.262,5.65,0.85,0.31,1785093194954.6628
-0.9,-0.288,-0.264,6.26,0.76,0.27,1785093194954.861
-0.902,-0.285,-0.261,6.84,0.79,0.21,1785093194955.053
-0.902,-0.289,-0.259,7.45,0.73,0.31,1785093194955.253
-0.898,-0.291,-0.261,8.21,0.64,0.27,1785093194955.453
-0.895,-0.292,-0.262,9.09,0.64,0.31,1785093194955.6392
-0.894,-0.293,-0.263,10.01,0.7,0.46,1785093194955.8333
-0.895,-0.292,-0.264,10.96,0.76,0.49,1785093194956.033
-0.899,-0.293,-0.266,11.54,0.79,0.46,1785093194956.223
-0.903,-0.294,-0.264,11.78,0.7,0.76,1785093194956.4229
-0.904,-0.295,-0.262,12.09,0.58,1.01,1785093194956.625
-0.902,-0.293,-0.263,12.15,0.4,1.25,1785093194956.824
-0.9,-0.293,-0.262,11.75,0.27,1.59,1785093194957.013
-0.898,-0.294,-0.263,11.05,0.27,1.62,1785093194957.2322
-0.896,-0.296,-0.263,10.35,0.15,1.59,1785093194957.434
-0.896,-0.299,-0.259,9.7,0.06,1.59,1785093194957.6252
-0.895,-0.303,-0.257,9.61,-0.21,1.34,1785093194957.8372
-0.895,-0.302,-0.261,9.43,-0.24,1.28,1785093194958.0732
-0.892,-0.302,-0.261,8.85,-0.27,1.22,1785093194958.2751
-0.891,-0.304,-0.258,8.36,-0.37,1.01,1785093194958.4683
-0.891,-0.304,-0.258,8.12,-0.49,0.82,1785093194958.6821
-0.891,-0.305,-0.257,7.87,-0.67,0.64,1785093194958.88
-0.89,-0.303,-0.26,7.72,-0.82,0.43,1785093194959.1099
-0.894,-0.311,-0.258,7.54,-0.95,0.0,1785093194959.3179
-0.895,-0.307,-0.256,7.08,-1.07,0.21,1785093194959.507
-0.894,-0.305,-0.258,7.08,-1.07,0.21,1785093194959.694
-0.896,-0.306,-0.26,6.44,-1.04,0.31,1785093194959.885
-0.894,-0.303,-0.259,6.38,-0.95,0.03,1785093194960.0771
-0.894,-0.307,-0.257,6.1,-0.95,0.06,1785093194960.2617
-0.895,-0.309,-0.254,5.89,-0.95,-0.03,1785093194960.4531
-0.897,-0.313,-0.254,5.83,-0.85,-0.37,1785093194960.644
-0.899,-0.309,-0.253,5.8,-0.73,-0.4,1785093194960.824
-0.902,-0.318,-0.253,5.8,-0.92,-0.43,1785093194961.017
-0.9,-0.311,-0.253,6.07,-0.85,-0.79,1785093194961.207
-0.901,-0.314,-0.254,6.56,-0.76,-0.52,1785093194961.387
-0.902,-0.31,-0.255,7.05,-0.79,-0.76,1785093194961.586
-0.902,-0.308,-0.257,7.51,-0.64,-0.52,1785093194961.7742
-0.9,-0.309,-0.254,7.63,-0.58,-0.12,1785093194961.954
-0.902,-0.317,-0.252,7.9,-0.55,0.15,1785093194962.15
-0.9,-0.313,-0.25,8.88,-0.61,-0.46,1785093194962.3362
-0.897,-0.305,-0.249,9.67,-0.64,-0.4,1785093194962.517
-0.895,-0.309,-0.252,9.83,-0.64,-0.27,1785093194962.703
-0.896,-0.31,-0.252,9.98,-0.73,-0.43,1785093194962.891
-0.897,-0.308,-0.252,10.35,-0.58,-0.55,1785093194963.0762
-0.895,-0.307,-0.253,10.86,-0.61,-0.27,1785093194963.259
-0.896,-0.305,-0.253,10.77,-0.61,0.12,1785093194963.445
-0.898,-0.31,-0.251,10.38,-0.46,0.52,1785093194963.635
-0.903,-0.316,-0.255,10.32,-0.49,0.43,1785093194963.812
-0.902,-0.313,-0.254,10.38,-0.67,0.24,1785093194963.9941
-0.898,-0.307,-0.257,9.86,-0.7,0.7,1785093194964.175
-0.905,-0.316,-0.256,8.76,-0.58,1.43,1785093194964.3508
-0.908,-0.32,-0.255,8.36,-0.61,1.19,1785093194964.531
-0.904,-0.317,-0.254,8.39,-0.7,1.31,1785093194964.739
-0.9,-0.313,-0.255,7.81,-0.67,1.62,1785093194964.916
-0.903,-0.317,-0.252,6.68,-0.61,1.65,1785093194965.114
-0.903,-0.321,-0.251,5.83,-0.76,1.5,1785093194965.2942
-0.898,-0.314,-0.256,5.1,-0.85,1.56,1785093194965.475
-0.898,-0.314,-0.256,3.57,-0.61,1.77,1785093194965.652
-0.901,-0.323,-0.251,2.53,-0.52,1.59,1785093194965.858
-0.899,-0.319,-0.249,2.26,-0.46,1.07,1785093194966.041
-0.899,-0.32,-0.25,1.89,-0.43,1.04,1785093194966.2139
-0.9,-0.322,-0.249,1.4,-0.49,1.16,1785093194966.399
-0.899,-0.325,-0.25,1.1,-0.52,0.89,1785093194966.582
-0.895,-0.322,-0.25,0.98,-0.58,0.61,1785093194966.759
-0.897,-0.318,-0.25,0.76,-0.55,0.55,1785093194966.941
-0.903,-0.317,-0.249,0.24,-0.52,0.31,1785093194967.124
-0.906,-0.316,-0.249,-0.4,-0.61,0.12,1785093194967.301
-0.904,-0.316,-0.249,-1.25,-0.7,0.18,1785093194967.488
-0.901,-0.318,-0.249,-2.04,-0.7,0.24,1785093194967.668
-0.901,-0.316,-0.249,-2.9,-0.82,0.24,1785093194967.843
-0.899,-0.315,-0.248,-3.94,-0.95,0.24,1785093194968.021
-0.896,-0.315,-0.247,-4.7,-1.01,0.24,1785093194968.194
-0.894,-0.312,-0.245,-5.37,-1.19,0.12,1785093194968.3672
-0.893,-0.312,-0.246,-6.62,-1.22,-0.15,1785093194968.732
-0.893,-0.311,-0.245,-7.23,-1.34,-0.31,1785093194968.9111
-0.934,-0.793,-0.335,-40.19,13.52,-9.7,1785093194969.265
-0.99,-0.782,-0.299,-29.85,15.63,-14.56,1785093194969.446
-0.983,-0.789,-0.259,-14.1,16.05,-17.79,1785093194972.706
-0.936,-0.795,-0.264,8.67,14.92,-22.0,1785093194985.921
-0.921,-0.775,-0.306,29.69,14.22,-27.56,1785093194991.528
-0.914,-0.736,-0.314,39.4,12.76,-30.95,1785093195002.006
-0.891,-0.709,-0.315,42.51,9.7,-32.72,1785093195012.5508
-0.879,-0.679,-0.329,41.6,6.41,-34.73,1785093195025.7559
-0.87,-0.631,-0.358,34.0,4.18,-35.62,1785093195031.3643
-0.857,-0.596,-0.396,22.22,2.81,-34.46,1785093195041.7222
-0.841,-0.59,-0.421,10.62,2.38,-33.66,1785093195052.145
-0.844,-0.612,-0.425,1.28,1.65,-34.39,1785093195062.542
-0.855,-0.644,-0.428,-6.47,0.03,-35.16,1785093195075.821
-0.858,-0.679,-0.419,-11.35,-1.31,-34.91,1785093195081.387
-0.855,-0.694,-0.409,-11.35,-2.5,-33.42,1785093195091.701
-0.857,-0.699,-0.401,-5.8,-2.44,-30.73,1785093195102.061
-0.841,-0.73,-0.347,4.21,-2.44,-28.29,1785093195112.474
-0.792,-0.732,-0.321,13.46,-6.53,-27.22,1785093195125.7478
-0.724,-0.713,-0.345,21.15,-10.77,-22.25,1785093195131.501
-0.675,-0.707,-0.369,26.95,-14.19,-15.9,1785093195141.849
-0.66,-0.692,-0.38,28.08,-18.8,-12.12,1785093195152.4329
-0.648,-0.695,-0.385,25.09,-22.68,-8.82,1785093195162.883
-0.642,-0.718,-0.383,20.75,-24.99,-6.71,1785093195176.198
-0.638,-0.718,-0.389,17.82,-26.06,-4.79,1785093195182.451
-0.608,-0.711,-0.387,17.3,-25.85,-1.83,1785093195192.0042
-0.532,-0.696,-0.412,17.21,-26.86,1.01,1785093195202.677
-0.465,-0.671,-0.493,12.76,-28.6,3.81,1785093195216.062
-0.444,-0.654,-0.548,2.59,-29.18,6.93,1785093195221.662
-0.447,-0.667,-0.565,-9.98,-29.21,9.61,1785093195232.273
-0.45,-0.684,-0.542,-22.77,-29.05,12.15,1785093195242.4253
-0.451,-0.716,-0.504,-31.25,-29.11,15.5,1785093195252.841
-0.454,-0.741,-0.484,-33.05,-28.75,18.8,1785093195266.1418
-0.442,-0.746,-0.464,-27.99,-27.5,22.74,1785093195271.998
-0.39,-0.733,-0.46,-19.14,-27.07,26.58,1785093195282.397
-0.336,-0.702,-0.49,-11.81,-28.47,29.97,1785093195292.8362
-0.317,-0.678,-0.526,-7.66,-29.88,32.17,1785093195306.007
-0.319,-0.688,-0.536,-4.79,-31.25,32.87,1785093195311.871
-0.322,-0.699,-0.511,-2.66,-33.39,32.14,1785093195322.0261
-0.321,-0.694,-0.484,0.12,-35.95,31.13,1785093195332.591
-0.335,-0.688,-0.511,5.55,-38.21,30.15,1785093195342.773
-0.363,-0.646,-0.588,9.7,-38.09,28.53,1785093195356.196
-0.389,-0.578,-0.619,10.19,-35.25,28.93,1785093195362.102
-0.387,-0.556,-0.607,6.99,-32.84,30.27,1785093195372.4392
-0.377,-0.566,-0.577,0.24,-31.59,30.37,1785093195382.7131
-0.381,-0.584,-0.525,-5.95,-31.28,31.89,1785093195395.864
-0.398,-0.616,-0.476,-7.39,-31.92,34.49,1785093195401.673
-0.41,-0.658,-0.44,-3.75,-32.9,35.92,1785093195411.946
-0.408,-0.69,-0.449,3.51,-33.91,35.95,1785093195422.245
-0.398,-0.677,-0.5,13.18,-34.24,35.86,1785093195433.1008
-0.395,-0.634,-0.527,23.87,-33.63,36.23,1785093195446.16
-0.395,-0.634,-0.527,34.21,-32.9,34.91,1785093195452.1248
-0.402,-0.612,-0.526,42.42,-32.5,31.98,1785093195462.409
-0.419,-0.608,-0.498,48.13,-33.05,29.36,1785093195472.93
-0.436,-0.609,-0.455,51.61,-34.42,27.71,1785093195486.1472
-0.447,-0.605,-0.44,51.61,-34.42,27.71,1785093195492.363
-0.444,-0.59,-0.453,52.06,-35.62,27.13,1785093195502.4011
-0.441,-0.581,-0.478,50.84,-36.77,27.13,1785093195512.7603
-0.44,-0.565,-0.498,47.06,-38.3,27.65,1785093195526.175
-0.449,-0.558,-0.497,41.2,-39.61,28.11,1785093195532.5288
-0.469,-0.567,-0.479,34.46,-40.22,27.77,1785093195542.332
-0.49,-0.583,-0.447,27.77,-40.44,26.22,1785093195553.113
-0.505,-0.588,-0.408,21.94,-41.57,23.96,1785093195566.2651
-0.513,-0.571,-0.394,16.91,-42.94,22.49,1785093195572.0771
-0.516,-0.557,-0.402,12.67,-44.37,21.67,1785093195582.403
-0.519,-0.552,-0.451,8.76,-45.96,20.63,1785093195592.78
-0.526,-0.551,-0.493,3.36,-45.9,19.87,1785093195606.0312
-0.558,-0.575,-0.5,-3.02,-45.38,19.04,1785093195611.841
-0.611,-0.611,-0.476,-10.16,-45.05,18.31,1785093195622.0852
-0.662,-0.647,-0.442,-15.14,-44.77,18.8,1785093195632.7769
-0.696,-0.673,-0.401,-17.18,-44.83,20.36,1785093195646.36
-0.714,-0.686,-0.359,-16.05,-45.29,21.64,1785093195651.915
-0.72,-0.676,-0.347,-13.58,-46.05,22.4,1785093195662.115
-0.703,-0.65,-0.374,-11.29,-46.3,23.38,1785093195672.7869
-0.674,-0.628,-0.416,-8.3,-44.77,23.07,1785093195685.914
-0.659,-0.602,-0.453,-4.39,-42.3,20.87,1785093195691.766
-0.648,-0.593,-0.468,-2.04,-40.44,19.87,1785093195701.77
-0.65,-0.603,-0.447,-0.43,-37.51,17.21,1785093195712.286
-0.675,-0.601,-0.413,0.49,-33.69,13.12,1785093195722.7368
-0.701,-0.588,-0.38,-1.19,-31.4,11.57,1785093195735.97
-0.709,-0.574,-0.351,-5.52,-30.92,12.18,1785093195741.814
-0.72,-0.567,-0.325,-9.13,-30.64,12.88,1785093195751.799
-0.732,-0.58,-0.303,-10.53,-31.37,13.73,1785093195762.41
-0.753,-0.598,-0.281,-9.67,-33.63,13.98,1785093195772.9658
-0.769,-0.612,-0.287,-7.45,-36.44,14.74,1785093195786.192
-0.795,-0.61,-0.311,-5.13,-38.12,16.17,1785093195792.169
-0.821,-0.61,-0.331,-4.46,-38.51,18.22,1785093195802.161
-0.842,-0.616,-0.333,-8.06,-39.28,19.41,1785093195812.3882
-0.858,-0.628,-0.304,-14.71,-40.41,19.93,1785093195825.9202
-0.878,-0.638,-0.253,-20.72,-41.05,20.14,1785093195831.736
-0.903,-0.656,-0.207,-23.59,-42.57,20.2,1785093195842.022
-0.915,-0.661,-0.176,-23.38,-44.28,18.04,1785093195852.746
-0.902,-0.652,-0.158,-19.87,-45.81,15.23,1785093195865.9468
-0.872,-0.631,-0.173,-12.51,-46.82,12.82,1785093195871.7708
-0.829,-0.589,-0.231,-5.68,-45.44,9.43,1785093195881.896
-0.792,-0.544,-0.278,-3.2,-42.54,6.35,1785093195892.2861
-0.755,-0.508,-0.298,-6.04,-39.19,4.67,1785093195902.6282
-0.723,-0.479,-0.297,-12.57,-34.52,2.75,1785093195915.937
-0.712,-0.455,-0.264,-19.35,-29.33,0.7,1785093195921.697
-0.698,-0.463,-0.216,-22.61,-25.48,0.12,1785093195932.073
-0.687,-0.487,-0.182,-20.84,-21.61,0.85,1785093195942.339
-0.691,-0.504,-0.16,-15.47,-17.85,3.57,1785093195952.6821
-0.705,-0.506,-0.157,-8.33,-14.77,8.06,1785093195966.2148
-0.712,-0.502,-0.159,0.21,-12.33,13.61,1785093195971.8188
-0.718,-0.496,-0.174,10.96,-10.04,19.47,1785093195982.063
-0.727,-0.48,-0.191,22.55,-7.54,25.39,1785093195992.429
-0.742,-0.461,-0.199,33.08,-5.13,30.82,1785093196002.9011
-0.756,-0.448,-0.205,41.93,-2.62,34.82,1785093196016.512
-0.771,-0.44,-0.211,50.14,-0.09,38.45,1785093196021.988
-0.782,-0.437,-0.22,58.6,2.5,41.6,1785093196032.398
-0.792,-0.431,-0.234,66.59,6.38,44.95,1785093196042.5361
-0.81,-0.433,-0.231,73.7,10.5,47.88,1785093196055.816
-0.839,-0.466,-0.23,81.33,13.76,50.48,1785093196061.738
-0.86,-0.519,-0.24,92.87,17.06,52.43,1785093196071.99
-0.884,-0.56,-0.252,111.51,23.16,52.28,1785093196082.717
-0.919,-0.583,-0.295,134.56,29.45,52.67,1785093196095.958
-0.937,-0.565,-0.363,156.32,35.34,54.23,1785093196101.9211
-0.947,-0.498,-0.425,173.25,41.6,55.18,1785093196123.7021
-0.93,-0.415,-0.476,182.65,48.65,54.87,1785093196124.012
-0.929,-0.365,-0.52,184.39,56.7,50.05,1785093196135.8762
-0.935,-0.346,-0.568,179.48,65.16,43.37,1785093196141.643
-0.943,-0.338,-0.616,168.52,73.18,35.83,1785093196152.395
-0.945,-0.328,-0.652,152.26,79.59,29.88,1785093196165.7751
-0.946,-0.326,-0.666,133.3,84.66,26.12,1785093196171.394
-0.95,-0.368,-0.653,115.6,89.63,24.87,1785093196182.324
-0.974,-0.441,-0.632,102.6,93.69,24.45,1785093196192.8452
-1.01,-0.497,-0.619,95.98,97.99,23.8,1785093196206.285
-1.025,-0.555,-0.63,95.68,102.39,23.53,1785093196212.7502
-1.03,-0.587,-0.672,98.57,107.3,21.91,1785093196222.704
-1.053,-0.604,-0.735,102.66,112.43,20.81,1785093196236.007
-1.07,-0.602,-0.791,105.23,118.26,20.51,1785093196241.864
-1.074,-0.592,-0.774,105.5,125.8,19.26,1785093196252.6929
-1.061,-0.605,-0.751,106.02,132.85,16.94,1785093196265.981
-1.053,-0.634,-0.716,107.21,139.71,13.28,1785093196272.111
-1.063,-0.675,-0.693,110.02,145.15,8.18,1785093196282.6072
-1.09,-0.712,-0.675,112.06,149.82,2.96,1785093196295.7903
-1.131,-0.756,-0.648,113.07,153.2,-1.98,1785093196301.739
-1.163,-0.782,-0.641,113.56,157.23,-6.78,1785093196312.282
-1.179,-0.797,-0.616,115.45,161.9,-10.19,1785093196322.983
-1.178,-0.792,-0.584,120.4,166.69,-15.2,1785093196336.235
-1.199,-0.752,-0.522,126.56,171.48,-22.83,1785093196342.189
-1.18,-0.767,-0.498,132.21,171.03,-25.61,1785093196352.795
-1.147,-0.72,-0.474,132.45,169.9,-32.78,1785093196366.2378
-1.151,-0.688,-0.489,130.62,169.9,-39.98,1785093196372.154
-1.147,-0.735,-0.506,125.37,170.96,-43.86,1785093196382.9917
-1.13,-0.76,-0.477,114.41,168.28,-48.4,1785093196396.153
-1.116,-0.742,-0.403,108.83,169.29,-56.55,1785093196402.108
-1.123,-0.735,-0.383,108.43,169.9,-64.73,1785093196412.91
-1.106,-0.756,-0.374,105.53,166.97,-70.04,1785093196426.099
-1.097,-0.781,-0.361,101.41,163.98,-75.84,1785093196432.153
-1.088,-0.811,-0.379,97.32,162.66,-81.39,1785093196442.7148
-1.043,-0.872,-0.415,91.8,161.63,-86.0,1785093196456.0618
-0.997,-0.902,-0.456,83.01,161.53,-93.36,1785093196461.967
-0.983,-0.924,-0.513,69.61,159.43,-96.07,1785093196472.289
-0.964,-0.976,-0.524,51.03,155.61,-93.6,1785093196483.1062
-0.961,-1.024,-0.455,35.65,153.81,-95.68,1785093196496.469
-0.968,-1.061,-0.402,27.92,150.98,-98.57,1785093196502.3518
-0.96,-1.081,-0.334,26.43,148.53,-98.88,1785093196512.8792
-0.928,-1.095,-0.306,32.72,146.18,-100.8,1785093196526.097
-0.889,-1.072,-0.298,40.5,142.16,-104.68,1785093196531.7039
-0.828,-1.007,-0.298,42.54,136.36,-108.49,1785093196542.645
-0.773,-0.988,-0.344,36.29,129.73,-111.0,1785093196556.176
-0.776,-1.023,-0.381,18.62,121.8,-114.57,1785093196562.047
-0.78,-1.076,-0.403,-8.27,113.71,-118.05,1785093196572.8682
-0.787,-1.171,-0.454,-34.97,109.07,-121.28,1785093196585.944
-0.83,-1.249,-0.472,-56.98,109.74,-124.15,1785093196591.479
-0.855,-1.274,-0.373,-65.28,115.48,-127.11,1785093196602.601
-0.815,-1.232,-0.183,-52.64,123.63,-128.88,1785093196616.1348
-0.781,-1.188,0.081,-17.21,128.88,-128.73,1785093196621.809
-0.689,-1.136,0.17,31.95,125.95,-128.3,1785093196632.8179
-0.508,-1.092,0.019,81.21,117.19,-130.01,1785093196645.8108
-0.408,-1.017,-0.216,112.92,106.75,-134.89,1785093196651.799
-0.434,-0.974,-0.433,119.69,98.12,-141.15,1785093196662.594
-0.493,-0.966,-0.553,102.63,91.68,-149.11,1785093196676.091
-0.496,-0.962,-0.583,71.81,84.2,-155.61,1785093196681.8098
-0.444,-0.961,-0.584,40.16,77.7,-157.78,1785093196692.586
-0.416,-0.962,-0.566,11.38,74.62,-158.79,1785093196703.0388
-0.381,-0.977,-0.536,-15.05,74.53,-160.04,1785093196716.1082
-0.336,-1.019,-0.481,-38.0,74.47,-161.96,1785093196722.006
-0.336,-1.019,-0.481,-51.03,74.31,-162.76,1785093196732.812
-0.279,-1.084,-0.418,-48.13,74.65,-162.63,1785093196745.9563
-0.251,-1.162,-0.362,-30.3,73.92,-162.51,1785093196752.085
-0.26,-1.198,-0.285,-1.83,72.79,-161.75,1785093196762.378
-0.234,-1.18,-0.264,25.97,71.44,-161.14,1785093196773.0151
-0.203,-1.128,-0.312,25.97,71.44,-161.14,1785093196786.2358
-0.182,-1.095,-0.354,43.24,69.73,-161.75,1785093196792.191
-0.169,-1.083,-0.367,51.64,67.81,-165.38,1785093196802.78
-0.146,-1.057,-0.366,54.05,65.43,-168.28,1785093196816.0288
-0.103,-1.017,-0.336,54.51,64.49,-169.77,1785093196821.9158
-0.078,-0.972,-0.295,53.25,62.47,-170.93,1785093196832.371
-0.057,-0.958,-0.297,50.02,57.8,-170.96,1785093196843.162
-0.047,-0.953,-0.258,45.08,53.9,-172.52,1785093196856.295
-0.04,-0.979,-0.207,41.84,50.02,-174.38,1785093196862.2751
-0.019,-1.011,-0.144,41.75,46.63,-175.51,1785093196872.869
-0.016,-1.024,-0.079,45.47,43.06,-175.3,1785093196885.986
-0.022,-1.011,-0.039,51.42,38.97,-174.6,1785093196891.9922
-0.035,-0.976,-0.015,56.12,33.48,-175.12,1785093196902.4639
-0.019,-0.957,-0.012,60.06,27.53,-178.62,1785093196913.117
0.001,-0.929,0.012,62.23,21.42,-185.83,1785093196926.3967
0.016,-0.856,0.043,62.93,15.69,-193.55,1785093196932.178
0.036,-0.79,0.08,63.94,9.13,-197.09,1785093196942.4949
0.056,-0.721,0.085,65.03,-0.06,-199.38,1785093196955.805
0.079,-0.655,0.091,64.21,-9.67,-200.99,1785093196961.569
0.089,-0.613,0.134,62.44,-17.61,-203.77,1785093196972.0408
0.089,-0.604,0.172,63.48,-25.94,-209.66,1785093196982.811
0.093,-0.604,0.171,69.31,-34.03,-215.49,1785093196996.182
0.107,-0.6,0.158,78.52,-40.99,-217.6,1785093197002.123
0.11,-0.578,0.142,89.21,-46.97,-218.09,1785093197012.4731
0.102,-0.543,0.13,97.96,-52.77,-218.18,1785093197025.8718
0.102,-0.465,0.133,101.9,-59.11,-217.54,1785093197031.874
0.121,-0.391,0.138,105.5,-66.04,-216.32,1785093197042.489
0.132,-0.323,0.136,111.61,-72.97,-215.49,1785093197055.724
0.146,-0.245,0.135,119.05,-80.29,-214.64,1785093197061.6692
0.157,-0.176,0.127,128.27,-87.53,-213.14,1785093197072.311
0.163,-0.133,0.11,138.95,-94.55,-211.52,1785093197085.7139
0.175,-0.094,0.088,150.03,-102.05,-209.33,1785093197091.651
0.198,-0.056,0.063,161.38,-109.23,-204.02,1785093197102.643
0.199,-0.028,0.016,172.12,-115.45,-196.54,1785093197115.972
0.185,-0.014,-0.054,179.94,-121.8,-188.82,1785093197121.825
0.176,-0.005,-0.113,184.67,-127.41,-182.26,1785093197132.895
0.164,-0.012,-0.164,187.63,-132.42,-175.79,1785093197146.104
0.156,-0.024,-0.193,189.92,-136.51,-168.55,1785093197152.1653
0.144,-0.033,-0.211,193.91,-139.93,-160.44,1785093197163.2068
0.126,-0.012,-0.252,201.27,-142.43,-151.98,1785093197176.0872
0.137,0.044,-0.296,213.63,-142.92,-143.28,1785093197182.15
0.151,0.08,-0.311,229.29,-143.31,-136.08,1785093197195.571
0.174,0.065,-0.347,246.16,-145.88,-130.28,1785093197201.7432
0.184,0.058,-0.384,258.58,-149.33,-125.34,1785093197212.7139
0.174,0.026,-0.403,264.75,-153.54,-120.73,1785093197226.0798
0.156,-0.023,-0.392,263.77,-157.63,-117.1,1785093197235.817
0.114,-0.069,-0.356,257.82,-160.95,-113.74,1785093197242.6611
0.078,-0.127,-0.335,252.6,-164.16,-110.75,1785093197256.189
0.041,-0.157,-0.385,248.73,-166.72,-108.07,1785093197262.105
0.067,-0.128,-0.493,243.23,-166.42,-103.95,1785093197273.149
0.124,-0.093,-0.554,236.49,-165.84,-99.58,1785093197286.3901
0.18,-0.108,-0.594,229.77,-166.94,-94.09,1785093197292.393
0.186,-0.143,-0.61,221.41,-167.94,-87.41,1785093197303.1309
0.152,-0.172,-0.562,210.85,-167.61,-78.65,1785093197316.4612
0.097,-0.26,-0.494,204.63,-166.78,-70.1,1785093197322.347
0.056,-0.357,-0.506,202.06,-165.72,-64.82,1785093197333.1243
0.031,-0.368,-0.565,195.26,-161.78,-60.21,1785093197346.3218
0.068,-0.337,-0.615,182.68,-155.31,-52.98,1785093197352.722
0.106,-0.366,-0.576,170.81,-151.68,-46.82,1785093197363.046
0.075,-0.437,-0.546,168.43,-150.06,-42.12,1785093197376.441
0.04,-0.451,-0.555,174.57,-146.4,-34.88,1785093197382.3108
0.027,-0.407,-0.539,183.2,-140.87,-23.74,1785093197393.023
0.02,-0.395,-0.549,190.74,-136.27,-12.21,1785093197406.293
0.039,-0.432,-0.582,193.37,-132.48,-4.39,1785093197412.676
0.073,-0.479,-0.615,187.29,-131.26,0.49,1785093197422.656
0.086,-0.553,-0.672,173.8,-131.57,4.06,1785093197436.3809
0.045,-0.653,-0.73,157.72,-129.61,7.54,1785093197441.797
-0.007,-0.712,-0.7,142.95,-122.84,13.12,1785093197452.6028
-0.05,-0.741,-0.582,134.89,-113.77,22.58,1785093197465.983
-0.079,-0.754,-0.406,136.33,-102.36,33.42,1785093197471.779
-0.1,-0.769,-0.359,146.28,-97.84,40.62,1785093197482.406
-0.057,-0.735,-0.585,145.24,-101.81,47.12,1785093197495.913
-0.009,-0.669,-0.783,116.0,-104.95,55.06,1785093197501.447
0.0,-0.62,-0.847,62.65,-107.27,63.26,1785093197512.217
0.027,-0.648,-0.877,0.79,-109.62,70.71,1785093197523.134
0.007,-0.827,-0.936,-48.46,-109.65,72.76,1785093197536.1863
-0.089,-0.946,-0.91,-86.28,-108.34,69.06,1785093197542.1062
-0.162,-0.992,-0.812,-105.01,-107.49,67.66,1785093197552.751
-0.214,-1.005,-0.726,-95.71,-104.77,63.69,1785093197566.044
-0.2,-1.009,-0.618,-60.98,-103.34,58.29,1785093197572.33
-0.128,-1.053,-0.689,-2.81,-104.37,53.77,1785093197582.477
-0.063,-1.041,-0.843,56.89,-100.41,55.73,1785093197593.021
-0.062,-1.008,-1.018,102.11,-93.63,62.01,1785093197606.071
-0.101,-0.928,-1.083,114.93,-86.4,72.73,1785093197611.9512
-0.185,-0.885,-1.019,100.22,-79.65,81.73,1785093197622.5522
-0.253,-0.917,-0.906,73.79,-73.03,82.89,1785093197635.781
-0.238,-1.013,-0.732,57.01,-65.37,77.49,1785093197641.644
-0.174,-1.162,-0.609,67.63,-59.88,71.96,1785093197652.1091
-0.115,-1.254,-0.643,98.57,-56.73,73.49,1785093197662.652
-0.114,-1.256,-0.845,130.41,-54.48,82.64,1785093197676.069
-0.22,-1.197,-1.0,146.34,-50.9,94.67,1785093197681.544
-0.213,-1.18,-1.146,143.01,-54.11,110.6,1785093197692.216
-0.18,-1.077,-1.129,133.18,-37.78,98.85,1785093197703.072
-0.214,-0.984,-1.081,121.56,-19.65,89.3,1785093197716.2979
-0.166,-1.072,-1.017,110.48,-15.63,100.68,1785093197722.339
-0.168,-1.218,-0.985,99.22,-31.71,129.0,1785093197732.917
-0.12,-1.193,-0.828,102.69,-20.39,129.09,1785093197746.1108
-0.164,-1.191,-0.735,122.41,-3.33,123.02,1785093197752.2432
-0.2,-1.204,-0.592,134.89,5.86,128.45,1785093197762.919
-0.201,-1.304,-0.514,140.87,5.43,140.2,1785093197775.938
-0.181,-1.428,-0.476,144.23,1.4,150.88,1785093197781.551
-0.204,-1.493,-0.468,150.61,3.2,151.28,1785093197792.334
-0.24,-1.531,-0.532,156.38,9.98,150.91,1785093197802.909
-0.168,-1.431,-0.494,156.32,6.41,153.84,1785093197816.1978
-0.191,-1.534,-0.743,197.27,-22.52,160.04,1785093197822.143
-0.065,-1.549,-1.061,228.71,-22.4,161.02,1785093197832.968
-0.016,-1.844,-1.433,242.38,-19.75,176.09,1785093197846.1199
-0.202,-1.715,-1.315,213.63,11.99,171.3,1785093197852.119
-0.133,-1.31,-0.951,181.19,71.14,138.1,1785093197862.844
0.063,-1.435,-0.572,137.33,101.69,123.91,1785093197876.1138
-0.084,-1.361,-0.186,99.52,88.05,122.65,1785093197882.302
-0.124,-1.333,-0.258,144.2,57.25,113.04,1785093197892.899
-0.314,-1.269,-0.511,196.36,64.85,75.05,1785093197906.069
-0.298,-0.903,-0.297,161.57,103.09,39.86,1785093197911.99
-0.243,-1.111,-0.119,128.45,116.37,40.62,1785093197922.5862
-0.152,-1.36,-0.012,119.36,123.11,36.16,1785093197935.778
-0.171,-1.403,-0.023,121.37,123.75,39.8,1785093197942.0723
-0.189,-1.298,-0.039,117.25,120.27,43.79,1785093197952.532
-0.263,-1.168,-0.016,104.19,113.5,45.11,1785093197965.868
-0.233,-1.078,-0.023,77.49,111.39,40.38,1785093197971.701
-0.198,-1.058,-0.034,49.93,108.98,39.19,1785093197982.557
-0.188,-1.047,0.006,32.2,104.25,38.54,1785093197992.971
-0.246,-1.019,0.042,26.73,99.52,31.59,1785093198006.2612
-0.31,-1.042,0.075,28.81,96.16,28.78,1785093198012.336
-0.31,-1.042,0.075,33.14,92.17,30.82,1785093198022.4111
-0.308,-1.057,0.103,40.1,91.22,30.52,1785093198033.147
-0.303,-1.077,0.118,50.17,90.67,30.98,1785093198046.241
-0.261,-1.101,0.137,60.46,91.65,28.26,1785093198052.17
-0.297,-1.071,0.13,60.46,91.65,28.26,1785093198062.8647
-0.295,-0.987,0.073,60.3,88.53,27.01,1785093198073.0
-0.322,-0.853,0.028,50.57,86.79,21.21,1785093198086.2039
-0.326,-0.865,-0.002,39.28,85.76,23.32,1785093198092.233
-0.313,-0.924,-0.001,29.48,85.6,27.74,1785093198102.457
-0.313,-0.927,0.022,26.18,87.25,29.24,1785093198112.978
-0.323,-0.91,0.027,26.49,88.84,31.04,1785093198126.3418
-0.337,-0.888,0.034,24.2,88.05,35.8,1785093198132.4082
-0.33,-0.872,0.041,20.75,86.64,40.59,1785093198142.383
-0.332,-0.859,0.037,17.98,86.31,42.54,1785093198153.1511
-0.337,-0.843,0.032,14.65,85.48,44.19,1785093198166.4597
-0.344,-0.831,0.044,11.14,84.75,44.98,1785093198172.467
-0.356,-0.854,0.052,8.55,83.32,45.44,1785093198182.843
-0.375,-0.878,0.039,4.3,80.51,45.87,1785093198192.7092
-0.394,-0.863,0.017,-2.99,77.27,47.03,1785093198206.2058
-0.403,-0.823,-0.019,-10.93,75.05,50.51,1785093198212.099
-0.404,-0.773,-0.053,-19.14,74.07,55.15,1785093198222.1792
-0.41,-0.735,-0.063,-28.38,72.79,59.72,1785093198232.905
-0.422,-0.737,-0.065,-37.72,70.1,64.18,1785093198246.113
-0.439,-0.761,-0.051,-47.06,66.62,67.9,1785093198252.107
-0.455,-0.793,-0.024,-53.93,62.23,70.89,1785093198262.1328
-0.471,-0.839,0.003,-55.88,57.25,72.57,1785093198272.9019
-0.491,-0.867,0.009,-53.9,52.16,74.16,1785093198286.0942
-0.504,-0.851,0.008,-48.49,47.79,76.82,1785093198292.212
-0.507,-0.826,-0.004,-40.07,43.49,80.26,1785093198302.489
-0.515,-0.807,-0.035,-31.59,38.76,82.61,1785093198312.9148
-0.528,-0.783,-0.063,-25.39,34.21,83.53,1785093198326.109
-0.541,-0.763,-0.086,-19.93,29.94,83.74,1785093198332.176
-0.548,-0.759,-0.113,-13.95,25.97,84.32,1785093198342.314
-0.564,-0.788,-0.139,-9.22,22.13,84.29,1785093198352.759
-0.603,-0.821,-0.16,-8.39,18.74,82.83,1785093198366.164
-0.641,-0.823,-0.17,-11.51,15.75,82.49,1785093198372.0698
-0.652,-0.803,-0.183,-15.05,12.97,84.84,1785093198382.2551
-0.652,-0.783,-0.194,-17.76,10.68,87.13,1785093198392.663
-0.662,-0.769,-0.204,-21.18,8.21,87.68,1785093198403.024
-0.678,-0.748,-0.209,-25.97,5.58,86.76,1785093198416.503
-0.69,-0.718,-0.207,-30.61,2.78,86.03,1785093198422.698
-0.693,-0.701,-0.203,-33.3,0.09,85.63,1785093198432.393
-0.705,-0.734,-0.209,-33.63,-2.23,83.56,1785093198442.7969
-0.73,-0.794,-0.214,-34.33,-4.55,79.13,1785093198456.096
-0.748,-0.817,-0.21,-35.04,-6.71,74.74,1785093198461.558
-0.749,-0.802,-0.213,-31.77,-8.21,73.34,1785093198472.106
-0.75,-0.774,-0.226,-25.48,-9.28,73.4,1785093198482.751
-0.758,-0.737,-0.243,-20.02,-10.01,73.06,1785093198493.0
-0.762,-0.696,-0.257,-17.4,-10.41,72.39,1785093198506.1497
-0.761,-0.666,-0.275,-17.18,-10.5,71.38,1785093198511.978
-0.766,-0.645,-0.284,-19.68,-9.89,69.49,1785093198522.253
-0.769,-0.632,-0.283,-24.48,-9.49,67.84,1785093198532.9258
-0.775,-0.64,-0.277,-29.66,-9.34,66.19,1785093198546.066
-0.785,-0.643,-0.268,-34.42,-9.0,64.55,1785093198551.989
-0.788,-0.625,-0.268,-37.78,-8.67,63.39,1785093198561.868
-0.792,-0.607,-0.269,-39.98,-8.3,63.26,1785093198572.4868
-0.796,-0.595,-0.274,-42.12,-8.0,63.23,1785093198582.819
-0.797,-0.589,-0.283,-43.34,-7.51,62.2,1785093198596.0881
-0.804,-0.596,-0.291,-43.92,-6.84,60.21,1785093198602.0469
-0.819,-0.609,-0.294,-44.74,-6.32,57.92,1785093198612.115
-0.825,-0.621,-0.297,-44.98,-6.04,56.18,1785093198622.643
-0.83,-0.626,-0.299,-43.43,-5.4,54.17,1785093198633.0713
-0.832,-0.619,-0.296,-39.83,-4.76,52.4,1785093198646.2332
-0.836,-0.608,-0.288,-33.78,-4.64,50.45,1785093198652.344
-0.841,-0.598,-0.277,-25.76,-5.13,48.68,1785093198662.4219
-0.84,-0.588,-0.273,-16.54,-5.83,46.33,1785093198672.7302
-0.839,-0.589,-0.286,-7.17,-6.04,43.09,1785093198683.0989
-0.841,-0.599,-0.303,0.58,-5.74,38.58,1785093198696.3333
-0.842,-0.599,-0.308,5.92,-5.52,33.11,1785093198702.05
-0.839,-0.587,-0.309,9.98,-5.65,28.63,1785093198712.143
-0.834,-0.575,-0.31,13.89,-5.74,24.99,1785093198722.537
-0.832,-0.562,-0.311,17.12,-5.8,21.49,1785093198732.929
-0.83,-0.548,-0.31,19.9,-6.16,18.28,1785093198746.156
-0.824,-0.525,-0.31,21.45,-6.71,15.47,1785093198752.002
-0.819,-0.503,-0.318,21.73,-6.99,13.28,1785093198762.1528
-0.813,-0.495,-0.32,20.39,-6.93,11.51,1785093198772.6309
-0.806,-0.487,-0.321,17.91,-6.74,9.7,1785093198782.9858
-0.798,-0.501,-0.327,16.57,-6.01,8.82,1785093198796.192
-0.807,-0.5,-0.328,14.86,-4.49,6.87,1785093198801.863
-0.792,-0.517,-0.326,13.0,-3.42,7.48,1785093198811.786
-0.799,-0.483,-0.305,11.32,-1.37,5.13,1785093198822.287
-0.825,-0.494,-0.277,14.53,-1.71,8.55,1785093198832.4722
-0.801,-0.563,-0.284,23.8,-0.92,11.29,1785093198845.886
-0.794,-0.529,-0.265,31.19,-1.62,9.55,1785093198851.674
-0.795,-0.529,-0.268,43.28,-1.86,8.79,1785093198861.696
-0.794,-0.525,-0.286,55.33,-0.12,7.42,1785093198872.086
-0.788,-0.508,-0.284,63.11,2.32,4.94,1785093198882.428
-0.792,-0.507,-0.275,70.86,5.22,3.08,1785093198892.8472
-0.797,-0.506,-0.278,78.49,7.42,2.47,1785093198906.0469
-0.805,-0.493,-0.286,82.43,8.64,3.08,1785093198911.725
-0.81,-0.488,-0.287,82.61,10.04,3.69,1785093198921.8691
-0.806,-0.49,-0.286,81.58,11.84,3.45,1785093198932.248
-0.804,-0.485,-0.286,79.96,14.13,1.77,1785093198942.795
-0.806,-0.48,-0.284,77.85,16.3,0.24,1785093198956.367
-0.814,-0.475,-0.276,74.74,17.82,-0.12,1785093198961.8472
-0.82,-0.469,-0.265,70.74,18.56,0.79,1785093198971.858
-0.824,-0.472,-0.264,66.84,19.1,2.56,1785093198982.5542
-0.836,-0.478,-0.261,62.69,19.68,4.21,1785093198992.945
-0.842,-0.48,-0.251,58.35,19.9,5.89,1785093199006.171
-0.842,-0.475,-0.236,54.72,19.93,7.14,1785093199012.008
-0.843,-0.474,-0.225,52.37,19.23,7.87,1785093199022.1208
-0.838,-0.476,-0.218,50.11,18.25,8.42,1785093199032.852
-0.842,-0.484,-0.214,48.01,17.27,8.21,1785093199042.946
-0.842,-0.482,-0.214,45.87,15.87,7.14,1785093199056.31
-0.846,-0.487,-0.21,43.0,14.5,6.78,1785093199062.1519
-0.851,-0.492,-0.207,39.52,12.57,6.65,1785093199072.274
-0.85,-0.489,-0.208,35.8,10.25,6.68,1785093199082.7651
-0.85,-0.483,-0.212,30.88,8.09,6.84,1785093199093.157
-0.849,-0.473,-0.211,25.27,6.07,6.71,1785093199106.333
-0.849,-0.465,-0.208,18.98,4.27,6.93,1785093199112.0068
-0.856,-0.475,-0.205,12.57,2.11,7.05,1785093199122.0369
-0.848,-0.475,-0.208,7.23,0.09,6.74,1785093199132.3142
-0.846,-0.473,-0.21,1.53,-1.43,6.35,1785093199142.5337
-0.841,-0.47,-0.208,-4.24,-2.87,5.92,1785093199153.102
-0.845,-0.464,-0.207,-9.95,-3.81,4.73,1785093199166.186
-0.852,-0.472,-0.2,-15.56,-5.01,3.81,1785093199171.6821
-0.849,-0.485,-0.193,-19.56,-6.71,4.0,1785093199181.8381
-0.85,-0.49,-0.188,-21.73,-7.69,3.33,1785093199192.128
-0.847,-0.511,-0.182,-21.79,-8.42,2.96,1785093199202.526
-0.84,-0.502,-0.182,-19.84,-9.0,2.14,1785093199213.0999
-0.838,-0.488,-0.187,-17.76,-9.16,1.43,1785093199226.1401
-0.837,-0.502,-0.194,-15.84,-9.34,1.34,1785093199231.8599
-0.84,-0.505,-0.199,-13.49,-9.4,1.1,1785093199241.772
-0.838,-0.508,-0.206,-10.35,-9.13,1.19,1785093199252.211
-0.838,-0.501,-0.213,-8.24,-8.3,0.79,1785093199262.8071
-0.838,-0.501,-0.22,-7.08,-7.45,0.27,1785093199272.779
-0.841,-0.503,-0.221,-6.1,-6.47,-0.89,1785093199283.0479
-0.84,-0.5,-0.221,-5.8,-5.37,-1.68,1785093199296.263
-0.84,-0.5,-0.221,-5.89,-4.58,-2.08,1785093199301.7559
-0.847,-0.506,-0.227,-6.47,-3.72,-2.75,1785093199311.695
-0.849,-0.485,-0.239,-9.4,-2.81,-2.99,1785093199322.2441
-0.849,-0.473,-0.242,-13.43,-2.29,-4.12,1785093199332.439
-0.855,-0.482,-0.24,-16.63,-2.26,-5.92,1785093199342.623
-0.859,-0.486,-0.244,-16.63,-2.26,-5.92,1785093199356.11
-0.869,-0.484,-0.244,-20.54,-2.5,-7.39,1785093199361.644
-0.878,-0.485,-0.253,-25.45,-3.23,-8.94,1785093199371.728
-0.884,-0.481,-0.251,-31.5,-4.33,-10.53,1785093199382.418
-0.894,-0.474,-0.247,-37.9,-6.84,-12.05,1785093199392.6147
-0.873,-0.47,-0.258,-45.29,-10.41,-14.37,1785093199405.896
-0.87,-0.469,-0.265,-53.99,-14.68,-17.37,1785093199411.794
-0.903,-0.482,-0.284,-62.96,-19.17,-21.58,1785093199421.934
-0.924,-0.505,-0.301,-71.81,-23.9,-26.92,1785093199432.721
-0.928,-0.511,-0.3,-79.99,-27.83,-34.55,1785093199445.926
-0.932,-0.519,-0.276,-85.51,-30.88,-41.38,1785093199451.8699
-0.95,-0.511,-0.257,-87.28,-34.42,-48.83,1785093199462.1648
-0.971,-0.496,-0.247,-88.11,-38.15,-56.76,1785093199472.7039
-0.981,-0.506,-0.273,-91.49,-41.54,-63.54,1785093199485.9478
-0.98,-0.488,-0.3,-97.48,-42.85,-68.85,1785093199492.274
-0.953,-0.471,-0.319,-103.18,-42.09,-69.67,1785093199502.319
-0.939,-0.48,-0.328,-108.62,-40.28,-69.95,1785093199512.882
-0.919,-0.475,-0.284,-115.21,-38.36,-72.02,1785093199526.104
-0.89,-0.482,-0.236,-119.02,-37.48,-69.49,1785093199532.1548
-0.893,-0.505,-0.187,-121.25,-37.45,-64.88,1785093199542.5332
-0.911,-0.523,-0.177,-124.24,-38.7,-60.79,1785093199555.636
-0.907,-0.515,-0.181,-127.38,-39.34,-57.19,1785093199561.863
-0.881,-0.517,-0.197,-126.22,-38.39,-53.07,1785093199572.269
-0.856,-0.531,-0.207,-119.85,-36.5,-49.71,1785093199582.9812
-0.841,-0.538,-0.229,-111.58,-35.04,-46.08,1785093199596.0388
-0.829,-0.531,-0.256,-105.78,-33.48,-42.02,1785093199601.9438
-0.807,-0.504,-0.265,-105.04,-31.1,-38.21,1785093199612.606
-0.77,-0.496,-0.266,-108.16,-28.96,-33.11,1785093199625.913
-0.734,-0.518,-0.275,-111.85,-27.07,-28.5,1785093199631.9658
-0.692,-0.529,-0.291,-111.76,-24.69,-24.41,1785093199642.292
-0.578,-0.491,-0.37,-106.33,-20.2,-19.1,1785093199652.941
-0.281,-0.442,-0.496,-96.04,-5.83,-9.95,1785093199666.132
-0.096,-0.474,-0.235,-79.2,14.56,-2.04,1785093199672.103
-0.421,-0.711,-0.075,-64.36,10.41,1.46,1785093199682.266
-0.715,-0.775,-0.093,-64.49,2.75,1.19,1785093199692.362
-0.632,-0.664,-0.088,-53.25,3.08,7.32,1785093199702.6072
-0.557,-0.559,-0.178,-29.48,5.52,10.86,1785093199716.192
-0.643,-0.501,-0.283,-9.92,9.0,11.35,1785093199721.7332
-0.706,-0.501,-0.329,7.42,11.87,11.93,1785093199731.69
-0.709,-0.5,-0.339,25.12,13.4,8.7,1785093199742.1582
-0.718,-0.487,-0.332,39.64,14.92,2.35,1785093199752.9622
-0.745,-0.493,-0.298,48.25,17.73,-2.5,1785093199766.054
-0.759,-0.501,-0.254,53.65,21.0,-4.27,1785093199771.5881
-0.745,-0.479,-0.246,58.96,22.64,-2.93,1785093199782.037
-0.74,-0.446,-0.282,61.59,21.67,2.93,1785093199792.4768
-0.754,-0.437,-0.334,60.55,21.06,11.17,1785093199803.0112
-0.758,-0.452,-0.381,59.94,23.62,16.79,1785093199816.287
-0.755,-0.466,-0.376,63.66,28.11,18.56,1785093199822.18
-0.753,-0.472,-0.327,71.96,30.58,19.26,1785093199832.6367
-0.784,-0.485,-0.26,80.26,29.91,18.13,1785093199843.01
-0.797,-0.483,-0.214,88.96,28.11,14.89,1785093199856.4429
-0.828,-0.508,-0.218,97.38,24.75,14.04,1785093199863.002
-0.854,-0.5,-0.265,104.28,21.12,11.81,1785093199872.7578
-0.851,-0.494,-0.339,111.61,18.83,11.63,1785093199885.716
-0.839,-0.497,-0.402,115.24,17.49,11.38,1785093199891.785
