ax,ay,az,gx,gy,gz,timestamp_ms
-0.919,-0.283,-0.234,-9.74,-4.18,-1.1,1785093273505.7659
-0.919,-0.28,-0.237,-9.61,-3.85,-1.16,1785093273506.041
-0.92,-0.277,-0.238,-9.95,-3.54,-1.31,1785093273506.319
-0.922,-0.276,-0.234,-10.53,-3.23,-1.59,1785093273506.5952
-0.923,-0.274,-0.233,-11.44,-2.93,-1.8,1785093273506.8591
-0.922,-0.274,-0.232,-12.39,-2.56,-2.01,1785093273507.126
-0.918,-0.275,-0.23,-13.34,-2.23,-2.29,1785093273507.419
-0.917,-0.277,-0.23,-13.98,-2.01,-2.66,1785093273507.68
-0.917,-0.282,-0.229,-14.37,-1.74,-3.05,1785093273507.9382
-0.916,-0.282,-0.23,-14.62,-1.65,-3.27,1785093273508.204
-0.915,-0.281,-0.229,-14.56,-1.43,-3.42,1785093273508.4622
-0.914,-0.28,-0.228,-14.44,-1.31,-3.54,1785093273508.695
-0.911,-0.277,-0.229,-14.22,-1.07,-3.88,1785093273508.94
-0.909,-0.276,-0.228,-13.82,-1.01,-4.0,1785093273509.186
-0.906,-0.279,-0.228,-13.4,-0.92,-4.12,1785093273509.428
-0.905,-0.275,-0.227,-12.79,-0.67,-4.39,1785093273509.6719
-0.907,-0.274,-0.224,-12.39,-0.49,-4.36,1785093273509.9158
-0.91,-0.277,-0.222,-11.57,-0.61,-4.43,1785093273510.176
-0.91,-0.275,-0.223,-10.5,-0.43,-4.3,1785093273510.4111
-0.91,-0.272,-0.226,-9.7,-0.31,-4.27,1785093273510.6729
-0.913,-0.273,-0.228,-9.28,-0.18,-4.21,1785093273510.967
-0.918,-0.275,-0.226,-8.67,-0.12,-3.91,1785093273511.241
-0.922,-0.28,-0.226,-8.15,-0.34,-3.42,1785093273511.57
-0.922,-0.276,-0.227,-7.63,-0.37,-3.48,1785093273511.8662
-0.92,-0.278,-0.232,-7.2,-0.18,-3.2,1785093273512.148
-0.924,-0.276,-0.234,-7.11,0.09,-3.08,1785093273512.428
-0.92,-0.274,-0.235,-6.93,0.34,-2.93,1785093273512.705
-0.918,-0.274,-0.236,-6.84,0.64,-2.69,1785093273512.9668
-0.922,-0.278,-0.238,-6.53,0.58,-3.54,1785093273513.197
-0.913,-0.273,-0.237,-5.8,0.52,-4.3,1785093273513.4321
-0.913,-0.271,-0.238,-5.65,0.7,-4.36,1785093273513.665
-0.911,-0.272,-0.235,-6.16,0.89,-4.18,1785093273513.897
-0.918,-0.285,-0.232,-6.04,0.7,-4.52,1785093273514.164
-0.909,-0.267,-0.232,-5.04,0.37,-6.01,1785093273514.395
-0.914,-0.269,-0.234,-4.97,0.79,-4.85,1785093273514.627
-0.924,-0.273,-0.23,-5.95,0.79,-4.97,1785093273514.847
-0.922,-0.268,-0.227,-5.92,0.24,-5.43,1785093273515.074
-0.918,-0.264,-0.228,-5.8,0.24,-5.43,1785093273515.2842
-0.922,-0.269,-0.227,-5.86,0.37,-4.49,1785093273515.501
-0.932,-0.272,-0.232,-5.86,0.21,-4.61,1785093273515.738
-0.926,-0.258,-0.229,-6.38,0.24,-4.73,1785093273515.9512
-0.923,-0.262,-0.228,-6.59,0.43,-3.66,1785093273516.174
-0.926,-0.27,-0.231,-6.74,0.0,-3.33,1785093273516.387
-0.928,-0.281,-0.235,-6.5,-0.31,-3.51,1785093273516.607
-0.932,-0.283,-0.237,-6.26,-0.43,-4.12,1785093273516.816
-0.924,-0.28,-0.234,-6.32,-0.67,-4.12,1785093273517.034
-0.922,-0.279,-0.232,-6.99,-0.7,-3.2,1785093273517.262
-0.924,-0.28,-0.232,-8.21,-1.13,-2.56,1785093273517.472
-0.916,-0.273,-0.233,-9.0,-1.8,-2.29,1785093273517.683
-0.911,-0.273,-0.239,-9.43,-2.14,-1.98,1785093273517.899
-0.904,-0.265,-0.238,-9.77,-2.35,-1.89,1785093273518.11
-0.911,-0.272,-0.233,-10.47,-2.81,-1.83,1785093273518.35
-0.907,-0.268,-0.233,-11.02,-3.69,-2.9,1785093273518.572
-0.906,-0.266,-0.23,-11.87,-4.06,-2.84,1785093273518.792
-0.91,-0.272,-0.231,-12.91,-4.79,-3.3,1785093273519.01
-0.898,-0.266,-0.232,-13.58,-5.16,-3.51,1785093273519.233
-0.897,-0.268,-0.237,-14.1,-4.97,-2.56,1785093273519.453
-0.899,-0.267,-0.234,-15.11,-5.34,-2.17,1785093273519.668
-0.893,-0.266,-0.232,-16.33,-5.71,-2.01,1785093273519.89
-0.89,-0.269,-0.23,-17.46,-5.86,-1.59,1785093273520.11
-0.891,-0.271,-0.23,-18.43,-6.01,-1.31,1785093273520.318
-0.893,-0.277,-0.229,-18.31,-5.92,-0.58,1785093273520.5278
-0.895,-0.266,-0.224,-18.16,-5.83,-0.21,1785093273520.7368
-0.891,-0.253,-0.224,-18.4,-6.1,0.4,1785093273520.9402
-0.894,-0.255,-0.226,-18.43,-5.86,0.64,1785093273521.148
-0.9,-0.27,-0.227,-17.94,-5.55,0.37,1785093273521.385
-0.9,-0.27,-0.227,-16.79,-5.13,-0.06,1785093273521.593
-0.904,-0.285,-0.228,-14.16,-4.58,0.18,1785093273521.7979
-0.91,-0.293,-0.231,-11.78,-3.97,0.64,1785093273522.0083
-0.913,-0.293,-0.235,-10.35,-3.45,1.04,1785093273522.2148
-0.915,-0.289,-0.233,-10.35,-3.45,1.04,1785093273522.415
-0.916,-0.288,-0.23,-9.46,-2.96,1.34,1785093273522.6262
-0.916,-0.291,-0.229,-8.61,-2.59,1.62,1785093273522.836
-0.917,-0.292,-0.228,-6.9,-2.14,1.77,1785093273523.0342
-0.917,-0.288,-0.227,-5.04,-1.71,1.83,1785093273523.2551
-0.912,-0.284,-0.225,-3.42,-1.46,1.65,1785093273523.4612
-0.912,-0.288,-0.228,-1.77,-1.31,1.25,1785093273523.663
-0.91,-0.3,-0.231,0.79,-0.7,0.24,1785093273523.8662
-0.916,-0.305,-0.234,3.05,-0.58,-0.76,1785093273524.074
-0.919,-0.275,-0.231,1.74,-0.92,-0.24,1785093273524.2778
-0.915,-0.252,-0.225,-2.14,-1.19,1.25,1785093273524.481
-0.911,-0.258,-0.219,-5.65,-1.43,1.13,1785093273524.686
-0.913,-0.273,-0.217,-7.57,-1.71,0.18,1785093273524.893
-0.911,-0.282,-0.213,-7.93,-1.86,-0.61,1785093273525.091
-0.907,-0.287,-0.211,-5.98,-1.77,-1.19,1785093273525.2969
-0.904,-0.282,-0.209,-3.11,-2.23,-1.19,1785093273525.506
-0.907,-0.275,-0.214,-0.79,-2.81,-1.4,1785093273525.703
-0.914,-0.268,-0.219,0.12,-3.33,-1.31,1785093273525.9312
-0.914,-0.256,-0.22,-2.01,-4.33,-0.58,1785093273526.135
-0.913,-0.254,-0.222,-5.58,-5.1,0.43,1785093273526.331
-0.916,-0.269,-0.224,-7.17,-5.07,1.16,1785093273526.556
-0.924,-0.287,-0.229,-6.81,-5.19,1.13,1785093273526.803
-0.925,-0.288,-0.236,-5.89,-5.22,1.46,1785093273527.026
-0.923,-0.281,-0.245,-4.94,-4.88,2.53,1785093273527.237
-0.925,-0.275,-0.244,-4.97,-4.49,3.63,1785093273527.4492
-0.923,-0.272,-0.237,-6.13,-4.55,4.24,1785093273527.649
-0.919,-0.274,-0.236,-7.45,-4.82,4.3,1785093273527.9082
-0.919,-0.275,-0.232,-8.73,-4.94,4.06,1785093273528.174
-0.919,-0.272,-0.227,-10.07,-5.1,4.15,1785093273528.374
-0.919,-0.259,-0.229,-11.2,-5.04,4.15,1785093273528.6028
-0.918,-0.248,-0.225,-11.78,-4.94,4.18,1785093273528.815
-0.919,-0.271,-0.232,-10.07,-5.16,3.14,1785093273529.013
-0.925,-0.306,-0.247,-5.8,-4.67,0.92,1785093273529.205
-0.939,-0.331,-0.267,0.95,-2.87,-1.43,1785093273529.4011
-0.949,-0.31,-0.284,6.59,-0.73,-2.35,1785093273529.5942
-0.957,-0.285,-0.288,7.54,1.25,-1.4,1785093273529.781
-0.942,-0.271,-0.286,5.37,2.66,-0.31,1785093273529.9749
-0.929,-0.274,-0.281,2.59,4.09,-0.46,1785093273530.18
-0.917,-0.289,-0.276,0.98,5.22,-1.04,1785093273530.3691
-0.902,-0.3,-0.264,1.74,6.65,-1.62,1785093273530.5789
-0.889,-0.31,-0.256,6.2,7.93,-2.41,1785093273530.7742
-0.878,-0.301,-0.256,13.18,9.09,-2.75,1785093273530.9707
-0.877,-0.268,-0.259,19.47,10.01,-3.36,1785093273531.167
-0.877,-0.265,-0.26,23.62,9.98,-4.09,1785093273531.362
-0.878,-0.269,-0.263,26.58,9.86,-3.94,1785093273531.559
-0.89,-0.256,-0.259,27.8,10.32,-4.36,1785093273531.768
-0.894,-0.259,-0.258,28.05,10.13,-4.43,1785093273531.967
-0.897,-0.263,-0.261,26.95,10.04,-4.27,1785093273532.165
-0.904,-0.262,-0.262,24.69,9.95,-3.91,1785093273532.359
-0.911,-0.259,-0.258,21.73,9.77,-3.3,1785093273532.553
-0.915,-0.254,-0.256,17.58,9.64,-2.2,1785093273532.751
-0.922,-0.246,-0.249,12.42,9.64,-0.76,1785093273532.9622
-0.931,-0.242,-0.242,6.81,9.37,0.21,1785093273533.1687
-0.933,-0.247,-0.238,1.4,9.06,0.95,1785093273533.3828
-0.939,-0.26,-0.235,-2.5,8.67,1.56,1785093273533.576
-0.941,-0.274,-0.232,-4.88,8.33,1.95,1785093273533.7632
-0.943,-0.278,-0.234,-6.01,7.97,2.44,1785093273533.951
-0.945,-0.278,-0.234,-6.01,7.72,2.72,1785093273534.139
-0.946,-0.277,-0.232,-5.28,7.69,2.75,1785093273534.32
-0.943,-0.274,-0.225,-3.81,7.87,2.41,1785093273534.509
-0.937,-0.271,-0.219,-1.4,7.97,2.14,1785093273534.698
-0.932,-0.27,-0.219,1.53,8.06,1.56,1785093273534.883
-0.928,-0.272,-0.218,4.94,8.06,0.61,1785093273535.074
-0.925,-0.283,-0.224,9.0,7.78,-0.85,1785093273535.264
-0.923,-0.287,-0.225,12.18,7.87,-1.95,1785093273535.444
-0.921,-0.281,-0.228,14.53,7.87,-2.72,1785093273535.636
-0.916,-0.272,-0.226,15.69,7.48,-3.27,1785093273535.825
-0.908,-0.269,-0.23,15.78,6.71,-3.78,1785093273536.0168
-0.9,-0.269,-0.236,16.11,6.23,-4.36,1785093273536.204
-0.898,-0.276,-0.243,18.37,6.16,-4.94,1785093273536.3938
-0.905,-0.269,-0.249,20.78,6.29,-5.37,1785093273536.5918
-0.911,-0.24,-0.249,19.1,5.52,-4.36,1785093273536.7788
-0.911,-0.204,-0.244,10.62,4.7,-2.56,1785093273536.969
-0.905,-0.198,-0.226,-1.4,3.81,-1.25,1785093273537.163
-0.898,-0.228,-0.207,-11.11,2.69,-0.82,1785093273537.344
-0.897,-0.266,-0.196,-15.11,1.89,-0.49,1785093273537.529
-0.895,-0.285,-0.194,-13.12,1.46,0.58,1785093273537.713
-0.891,-0.284,-0.202,-6.87,0.98,1.89,1785093273537.895
-0.894,-0.265,-0.211,-0.12,0.37,3.48,1785093273538.084
-0.894,-0.242,-0.219,3.85,-0.37,5.28,1785093273538.2742
-0.9,-0.228,-0.224,4.43,-1.01,6.56,1785093273538.46
-0.904,-0.235,-0.222,2.81,-1.46,7.26,1785093273538.672
-0.908,-0.248,-0.22,1.01,-1.65,7.72,1785093273538.891
-0.911,-0.254,-0.222,-0.06,-1.68,8.55,1785093273539.0999
-0.908,-0.264,-0.223,0.06,-1.8,9.64,1785093273539.3237
-0.909,-0.272,-0.226,0.55,-1.98,9.89,1785093273539.531
-0.911,-0.275,-0.225,1.25,-2.29,10.07,1785093273539.7188
-0.902,-0.285,-0.226,2.11,-3.14,10.16,1785093273539.896
-0.901,-0.292,-0.242,3.75,-3.88,9.64,1785093273540.0781
-0.911,-0.291,-0.256,7.75,-3.48,10.04,1785093273540.266
-0.917,-0.275,-0.267,11.44,-2.99,10.59,1785093273540.4438
-0.914,-0.256,-0.271,12.6,-3.05,10.22,1785093273540.631
-0.91,-0.249,-0.277,11.02,-3.17,9.49,1785093273540.817
-0.914,-0.261,-0.273,7.63,-3.3,8.94,1785093273541.0
-0.917,-0.273,-0.265,4.39,-3.27,8.18,1785093273541.197
-0.913,-0.282,-0.26,2.78,-3.33,7.42,1785093273541.3801
-0.906,-0.287,-0.258,2.72,-3.45,7.08,1785093273541.561
-0.904,-0.284,-0.261,3.69,-3.63,6.71,1785093273541.7422
-0.903,-0.277,-0.262,4.97,-3.51,6.35,1785093273541.923
-0.9,-0.27,-0.255,5.37,-3.97,5.89,1785093273542.103
-0.889,-0.269,-0.264,5.8,-4.12,5.31,1785093273542.281
-0.893,-0.291,-0.277,9.67,-2.08,4.61,1785093273542.452
-0.907,-0.287,-0.278,13.49,-1.25,3.94,1785093273542.6262
-0.905,-0.256,-0.285,13.21,-0.76,4.15,1785093273542.804
-0.914,-0.272,-0.287,9.06,0.98,4.15,1785093273543.157
-0.91,-0.267,-0.278,5.62,1.07,4.67,1785093273543.3298
-0.903,-0.288,-0.28,35.65,5.01,-3.88,1785093273543.5037
-0.828,-0.694,-0.388,38.09,3.54,-7.75,1785093273543.684
-0.871,-0.714,-0.369,30.58,1.5,-15.23,1785093273543.878
-0.901,-0.723,-0.325,16.08,-0.06,-19.5,1785093273544.0562
-0.907,-0.779,-0.326,7.93,-2.47,-22.16,1785093273557.3591
-0.956,-0.809,-0.356,1.43,-4.43,-27.83,1785093273562.711
-1.021,-0.825,-0.334,-8.27,-5.74,-33.78,1785093273572.928
-1.044,-0.853,-0.267,-12.12,-8.3,-39.74,1785093273583.478
-1.033,-0.855,-0.213,-5.4,-11.47,-44.62,1785093273593.928
-1.021,-0.816,-0.157,8.3,-14.53,-46.39,1785093273607.1912
-1.001,-0.78,-0.161,25.48,-18.77,-46.72,1785093273612.865
-0.983,-0.724,-0.226,37.63,-23.13,-47.03,1785093273623.338
-0.96,-0.647,-0.272,39.0,-27.34,-45.14,1785093273633.864
-0.903,-0.612,-0.325,34.09,-31.98,-41.05,1785093273647.0981
-0.886,-0.609,-0.384,23.29,-35.77,-35.8,1785093273652.781
-0.922,-0.629,-0.402,6.44,-39.16,-28.93,1785093273663.271
-0.95,-0.651,-0.368,-10.65,-41.93,-21.85,1785093273673.79
-0.93,-0.69,-0.314,-16.66,-42.27,-15.87,1785093273687.057
-0.859,-0.704,-0.248,-10.13,-42.91,-9.67,1785093273692.8188
-0.737,-0.676,-0.255,3.69,-46.51,-2.29,1785093273703.0242
-0.631,-0.625,-0.358,14.74,-51.7,6.71,1785093273713.533
-0.601,-0.61,-0.444,13.76,-56.55,16.63,1785093273724.08
-0.64,-0.643,-0.489,1.31,-60.15,24.9,1785093273737.2898
-0.686,-0.7,-0.525,-15.08,-62.17,32.47,1785093273743.0698
-0.705,-0.748,-0.54,-28.35,-61.13,40.35,1785093273753.597
-0.681,-0.782,-0.511,-33.11,-56.61,47.36,1785093273764.1301
-0.609,-0.794,-0.413,-28.23,-51.12,52.89,1785093273777.335
-0.609,-0.794,-0.413,-16.33,-47.94,57.77,1785093273783.308
-0.496,-0.772,-0.339,-3.33,-45.5,62.41,1785093273793.535
-0.38,-0.721,-0.325,4.79,-43.24,66.19,1785093273803.936
-0.322,-0.69,-0.327,5.37,-42.39,68.21,1785093273814.307
-0.337,-0.697,-0.311,5.37,-42.39,68.21,1785093273827.713
-0.387,-0.716,-0.272,0.49,-43.79,68.36,1785093273833.1653
-0.419,-0.715,-0.264,-5.19,-46.97,68.27,1785093273843.572
-0.431,-0.704,-0.299,-8.85,-49.78,69.03,1785093273854.0781
-0.444,-0.695,-0.329,-10.59,-51.97,70.8,1785093273867.3457
-0.418,-0.691,-0.359,-9.89,-53.19,71.38,1785093273873.243
-0.374,-0.669,-0.397,-8.36,-53.93,70.07,1785093273883.324
-0.345,-0.653,-0.412,-9.74,-55.06,70.56,1785093273893.814
-0.36,-0.641,-0.41,-15.63,-56.06,70.65,1785093273904.354
-0.406,-0.625,-0.391,-25.85,-56.64,70.71,1785093273917.718
-0.449,-0.637,-0.348,-38.45,-57.65,71.08,1785093273923.2112
-0.458,-0.676,-0.306,-50.23,-59.08,69.46,1785093273933.77
-0.44,-0.709,-0.286,-59.27,-60.37,65.34,1785093273944.269
-0.417,-0.721,-0.294,-63.91,-61.34,61.13,1785093273957.692
-0.395,-0.719,-0.347,-63.66,-61.37,56.76,1785093273963.667
-0.394,-0.719,-0.405,-61.04,-60.27,51.91,1785093273973.857
-0.422,-0.728,-0.427,-58.23,-59.11,46.45,1785093273984.4841
-0.469,-0.743,-0.405,-55.45,-58.08,40.59,1785093273997.903
-0.518,-0.754,-0.36,-51.0,-57.47,35.16,1785093274003.5452
-0.558,-0.754,-0.359,-44.47,-57.1,31.31,1785093274013.959
-0.58,-0.738,-0.397,-37.29,-55.12,28.99,1785093274024.3599
-0.589,-0.716,-0.416,-31.16,-51.12,27.56,1785093274037.699
-0.584,-0.706,-0.432,-25.76,-47.03,26.09,1785093274043.5488
-0.584,-0.706,-0.441,-20.36,-42.73,24.08,1785093274053.822
-0.596,-0.721,-0.435,-12.85,-38.79,22.03,1785093274064.445
-0.631,-0.73,-0.411,-3.14,-35.8,19.99,1785093274077.671
-0.658,-0.726,-0.379,7.9,-34.97,19.23,1785093274083.325
-0.676,-0.702,-0.354,18.1,-36.44,19.65,1785093274093.6948
-0.683,-0.641,-0.37,23.44,-39.19,20.87,1785093274104.221
-0.674,-0.56,-0.411,20.39,-40.8,23.19,1785093274117.579
-0.669,-0.519,-0.443,9.58,-39.55,24.05,1785093274123.39
-0.68,-0.526,-0.453,-5.71,-36.29,21.15,1785093274133.5881
-0.697,-0.545,-0.41,-21.39,-33.27,17.03,1785093274144.037
-0.703,-0.577,-0.346,-32.62,-32.26,13.37,1785093274157.2568
-0.697,-0.593,-0.295,-40.04,-32.26,9.4,1785093274163.2532
-0.694,-0.603,-0.275,-43.82,-32.56,5.89,1785093274173.28
-0.708,-0.616,-0.278,-43.55,-32.81,2.59,1785093274183.774
-0.728,-0.624,-0.296,-39.67,-32.75,-0.58,1785093274194.238
-0.736,-0.619,-0.333,-33.57,-31.77,-3.97,1785093274207.509
-0.746,-0.605,-0.386,-27.13,-29.57,-7.97,1785093274213.3918
-0.765,-0.584,-0.406,-21.39,-25.79,-11.72,1785093274223.582
-0.78,-0.571,-0.371,-15.69,-22.06,-14.59,1785093274234.0889
-0.784,-0.572,-0.302,-8.55,-19.23,-16.75,1785093274247.427
-0.787,-0.574,-0.225,0.31,-17.67,-17.76,1785093274253.4412
-0.786,-0.577,-0.17,10.96,-17.49,-17.4,1785093274263.504
-0.786,-0.58,-0.143,21.67,-18.1,-17.15,1785093274273.88
-0.784,-0.571,-0.14,30.76,-19.07,-17.37,1785093274284.513
-0.786,-0.555,-0.166,38.33,-20.26,-17.79,1785093274297.801
-0.785,-0.532,-0.218,43.12,-21.39,-18.22,1785093274303.621
-0.788,-0.505,-0.269,44.04,-21.42,-18.98,1785093274314.0327
-0.791,-0.49,-0.294,41.57,-19.9,-19.84,1785093274324.466
-0.797,-0.489,-0.282,37.35,-19.01,-19.1,1785093274337.729
-0.767,-0.52,-0.242,33.3,-18.71,-17.43,1785093274343.274
-0.776,-0.524,-0.191,31.46,-14.62,-19.65,1785093274353.7412
-0.785,-0.537,-0.147,28.69,-15.81,-17.15,1785093274364.414
-0.771,-0.552,-0.103,28.84,-16.14,-13.61,1785093274377.6807
-0.771,-0.564,-0.098,34.36,-14.68,-11.69,1785093274383.679
-0.776,-0.563,-0.112,41.41,-14.25,-10.22,1785093274393.8718
-0.783,-0.553,-0.144,48.22,-14.5,-9.74,1785093274404.4302
-0.791,-0.542,-0.175,52.89,-14.44,-10.19,1785093274417.758
-0.8,-0.544,-0.187,55.12,-13.7,-10.99,1785093274423.533
-0.794,-0.57,-0.168,57.31,-12.79,-11.81,1785093274433.832
-0.789,-0.584,-0.14,62.38,-10.32,-14.56,1785093274444.371
-0.806,-0.578,-0.122,66.35,-9.58,-16.11,1785093274457.595
-0.808,-0.574,-0.118,67.2,-9.25,-13.31,1785093274463.605
-0.803,-0.56,-0.121,63.81,-9.16,-10.1,1785093274473.563
-0.8,-0.528,-0.128,57.59,-9.34,-7.63,1785093274483.774
-0.802,-0.521,-0.133,51.15,-9.64,-5.83,1785093274494.377
-0.812,-0.53,-0.135,44.37,-10.16,-5.4,1785093274507.726
-0.812,-0.545,-0.136,37.97,-11.26,-5.49,1785093274513.45
-0.812,-0.553,-0.133,33.2,-12.54,-5.01,1785093274523.6091
-0.809,-0.562,-0.13,29.85,-13.61,-3.36,1785093274533.968
-0.813,-0.565,-0.121,27.01,-14.1,-1.89,1785093274544.447
-0.809,-0.565,-0.111,24.02,-14.5,-0.61,1785093274557.6802
-0.805,-0.558,-0.104,20.26,-15.08,1.19,1785093274563.554
-0.798,-0.549,-0.099,15.87,-15.56,3.23,1785093274573.609
-0.792,-0.546,-0.092,11.14,-15.84,5.01,1785093274584.1038
-0.781,-0.553,-0.083,7.54,-15.75,6.78,1785093274597.454
-0.781,-0.564,-0.079,5.55,-15.29,7.93,1785093274602.963
-0.783,-0.571,-0.085,4.03,-15.17,9.34,1785093274613.109
-0.78,-0.571,-0.091,2.32,-14.98,10.41,1785093274623.5408
-0.779,-0.565,-0.101,0.73,-14.44,11.29,1785093274633.952
-0.787,-0.555,-0.104,-1.83,-13.92,11.69,1785093274644.4329
-0.79,-0.557,-0.097,-4.79,-13.43,13.64,1785093274657.8823
-0.789,-0.557,-0.089,-6.81,-12.6,15.23,1785093274665.658
-0.797,-0.542,-0.07,-8.27,-11.93,15.02,1785093274673.46
-0.798,-0.553,-0.047,-8.67,-12.02,16.14,1785093274684.0598
-0.799,-0.566,-0.037,-6.65,-12.02,17.18,1785093274697.333
-0.814,-0.566,-0.036,-3.3,-12.18,16.88,1785093274703.1118
-0.81,-0.591,-0.035,1.43,-12.57,18.22,1785093274713.2559
-0.822,-0.588,-0.045,7.51,-11.96,17.55,1785093274723.745
-0.828,-0.565,-0.059,10.68,-10.71,19.78,1785093274734.2698
-0.827,-0.529,-0.066,8.88,-9.52,21.55,1785093274747.6558
-0.815,-0.501,-0.066,3.17,-7.9,21.27,1785093274753.151
-0.826,-0.481,-0.062,-5.25,-6.23,17.43,1785093274763.277
-0.823,-0.505,-0.047,-13.06,-4.97,15.02,1785093274773.663
-0.824,-0.524,-0.024,-17.12,-3.75,11.87,1785093274784.172
-0.828,-0.556,-0.007,-16.27,-2.81,10.8,1785093274797.42
-0.82,-0.584,0.005,-11.11,-1.68,11.05,1785093274803.2231
-0.83,-0.579,0.009,-2.87,-0.4,9.7,1785093274813.122
-0.836,-0.571,-0.004,6.29,0.79,9.61,1785093274823.427
-0.842,-0.558,-0.014,14.31,2.29,10.44,1785093274833.912
-0.839,-0.549,-0.03,22.25,4.0,10.86,1785093274844.4102
-0.849,-0.537,-0.056,29.42,6.04,10.07,1785093274857.6218
-0.852,-0.532,-0.08,35.95,8.76,9.55,1785093274863.4397
-0.864,-0.526,-0.08,42.33,11.99,8.91,1785093274873.541
-0.862,-0.527,-0.083,50.75,15.59,7.26,1785093274883.9639
-0.869,-0.529,-0.07,61.83,19.53,5.49,1785093274894.391
-0.878,-0.53,-0.083,75.35,23.68,4.73,1785093274907.687
-0.868,-0.53,-0.129,89.91,28.6,4.39,1785093274913.629
-0.889,-0.513,-0.196,103.61,34.3,1.43,1785093274923.704
-0.905,-0.496,-0.263,112.34,40.8,-0.12,1785093274934.3303
-0.91,-0.494,-0.294,115.76,47.88,-1.07,1785093274947.297
-0.909,-0.489,-0.309,116.82,55.06,-2.2,1785093274953.1091
-0.915,-0.499,-0.303,118.96,61.74,-2.87,1785093274963.766
-0.915,-0.516,-0.28,123.05,67.93,-3.14,1785093274974.2598
-0.916,-0.53,-0.273,130.34,74.1,-4.06,1785093274987.34
-0.918,-0.547,-0.277,139.44,80.2,-2.96,1785093274993.4358
-0.928,-0.542,-0.295,147.13,86.03,-3.11,1785093275003.726
-0.922,-0.534,-0.321,151.71,92.01,-2.56,1785093275014.376
-0.933,-0.524,-0.349,152.17,97.57,-2.11,1785093275027.481
-0.95,-0.51,-0.368,147.95,102.27,-1.43,1785093275033.7
-0.966,-0.518,-0.381,141.15,106.48,-1.4,1785093275043.89
-0.972,-0.552,-0.406,134.4,110.08,-2.41,1785093275057.1033
-0.972,-0.552,-0.406,127.78,113.59,-3.81,1785093275063.0798
-0.981,-0.578,-0.436,120.27,117.16,-3.88,1785093275073.477
-1.0,-0.59,-0.436,112.58,120.52,-3.45,1785093275084.241
-1.009,-0.585,-0.4,106.91,123.78,-3.48,1785093275097.506
-1.007,-0.59,-0.369,102.54,126.77,-4.06,1785093275103.4
-1.001,-0.602,-0.357,102.54,126.77,-4.06,1785093275113.9983
-1.003,-0.625,-0.349,98.73,129.46,-5.46,1785093275124.564
-1.016,-0.659,-0.354,95.31,132.21,-8.06,1785093275137.769
-1.019,-0.683,-0.355,91.4,135.53,-10.56,1785093275143.647
-1.017,-0.714,-0.365,88.75,138.98,-13.25,1785093275154.092
-1.026,-0.727,-0.354,86.73,142.43,-15.75,1785093275167.35
-1.038,-0.725,-0.335,84.78,145.39,-17.37,1785093275173.255
-1.046,-0.729,-0.327,83.1,147.77,-18.98,1785093275183.954
-1.042,-0.749,-0.312,81.12,150.12,-20.48,1785093275196.9321
-1.059,-0.796,-0.303,80.26,150.24,-22.4,1785093275209.0051
-1.037,-0.886,-0.3,84.38,152.32,-26.09,1785093275213.2249
-1.041,-0.94,-0.288,92.65,155.8,-33.51,1785093275224.051
-1.05,-0.992,-0.256,106.42,156.22,-40.13,1785093275237.2422
-1.054,-1.0,-0.225,123.17,157.75,-44.98,1785093275243.1519
-1.053,-0.955,-0.2,138.68,158.48,-47.61,1785093275254.04
-1.055,-0.906,-0.219,149.6,157.32,-51.79,1785093275267.503
-1.05,-0.86,-0.24,151.22,154.52,-58.5,1785093275273.6052
-1.031,-0.837,-0.256,146.37,151.43,-66.47,1785093275284.157
-1.009,-0.861,-0.274,138.83,148.47,-73.73,1785093275297.43
-1.007,-0.91,-0.274,130.44,146.09,-80.26,1785093275303.294
-1.003,-0.934,-0.251,121.8,143.89,-84.44,1785093275314.037
-1.005,-0.957,-0.207,115.88,141.82,-86.98,1785093275327.331
-1.005,-0.951,-0.162,110.63,139.23,-89.57,1785093275333.708
-0.995,-0.93,-0.124,104.8,135.56,-91.71,1785093275344.0608
-0.976,-0.913,-0.116,97.57,130.71,-94.27,1785093275357.2659
-0.97,-0.924,-0.134,89.45,125.8,-98.51,1785093275363.235
-0.961,-0.935,-0.171,80.08,121.19,-103.12,1785093275373.708
-0.939,-0.95,-0.199,71.11,117.28,-107.39,1785093275387.0862
-0.905,-0.974,-0.207,63.63,114.11,-111.39,1785093275393.425
-0.879,-0.992,-0.201,58.11,110.81,-113.93,1785093275403.8
-0.871,-0.997,-0.167,53.8,106.81,-114.75,1785093275417.097
-0.861,-0.982,-0.133,51.18,101.93,-114.81,1785093275422.986
-0.84,-0.957,-0.112,49.5,97.32,-115.39,1785093275433.702
-0.817,-0.927,-0.109,47.36,93.45,-117.86,1785093275444.338
-0.783,-0.917,-0.123,44.53,90.0,-121.89,1785093275457.612
-0.749,-0.929,-0.141,41.63,86.98,-127.26,1785093275463.5579
-0.718,-0.952,-0.146,39.43,84.05,-130.83,1785093275474.002
-0.698,-1.001,-0.161,41.87,82.13,-132.15,1785093275487.2698
-0.686,-1.011,-0.136,45.35,80.6,-131.02,1785093275493.145
-0.66,-1.02,-0.124,50.63,78.86,-128.61,1785093275503.753
-0.633,-1.015,-0.097,53.32,77.27,-126.35,1785093275514.4902
-0.618,-0.993,-0.088,51.36,74.34,-123.45,1785093275527.627
-0.599,-0.994,-0.084,44.77,70.96,-121.4,1785093275533.6353
-0.588,-1.017,-0.036,36.32,67.42,-122.96,1785093275544.091
-0.579,-1.098,0.019,35.25,63.51,-127.78,1785093275557.3718
-0.57,-1.189,0.076,45.72,59.57,-133.92,1785093275563.298
-0.536,-1.214,0.106,64.61,54.93,-137.58,1785093275573.7788
-0.474,-1.198,0.091,84.23,51.39,-137.73,1785093275584.419
-0.444,-1.131,0.055,89.6,47.09,-137.06,1785093275597.802
-0.438,-1.06,-0.005,73.61,38.45,-136.63,1785093275603.685
-0.427,-1.065,-0.016,45.75,31.01,-138.55,1785093275614.066
-0.413,-1.155,0.012,23.53,26.43,-144.02,1785093275627.361
-0.397,-1.222,0.045,14.34,23.16,-148.26,1785093275633.709
-0.36,-1.256,0.074,17.94,20.11,-149.05,1785093275643.8599
-0.324,-1.269,0.09,30.34,16.66,-151.43,1785093275654.47
-0.321,-1.223,0.09,43.12,12.21,-155.49,1785093275667.725
-0.308,-1.157,0.058,52.19,8.3,-158.3,1785093275673.602
-0.285,-1.082,0.051,53.74,4.64,-160.8,1785093275684.0051
-0.245,-1.061,0.063,50.87,1.1,-163.3,1785093275697.2239
-0.226,-1.068,0.082,46.39,-2.56,-166.75,1785093275703.1418
-0.196,-1.059,0.094,42.21,-5.71,-169.23,1785093275713.4111
-0.167,-1.046,0.092,39.77,-8.73,-170.05,1785093275723.9539
-0.142,-1.007,0.1,38.24,-11.17,-170.17,1785093275737.254
-0.111,-0.965,0.102,37.66,-13.37,-169.5,1785093275743.217
-0.096,-0.939,0.094,38.51,-15.75,-169.71,1785093275753.459
-0.071,-0.891,0.078,38.64,-17.79,-169.23,1785093275764.353
-0.038,-0.838,0.096,37.84,-19.62,-166.17,1785093275777.57
-0.01,-0.789,0.116,39.19,-21.45,-164.34,1785093275783.5251
0.038,-0.776,0.1,42.73,-22.92,-163.09,1785093275794.029
0.053,-0.779,0.12,45.93,-24.54,-161.02,1785093275807.2861
0.041,-0.764,0.154,49.96,-27.04,-159.22,1785093275813.503
0.058,-0.732,0.175,55.36,-29.79,-156.83,1785093275823.761
0.085,-0.698,0.217,61.98,-32.96,-153.29,1785093275834.497
0.133,-0.686,0.25,74.1,-37.2,-149.51,1785093275847.473
0.186,-0.703,0.284,96.13,-41.75,-147.1,1785093275853.261
0.185,-0.702,0.31,127.99,-47.03,-146.49,1785093275864.258
0.195,-0.664,0.271,162.91,-53.9,-144.17,1785093275877.4167
0.226,-0.568,0.195,189.37,-59.94,-138.86,1785093275883.377
0.251,-0.444,0.127,197.42,-65.1,-131.29,1785093275894.151
0.258,-0.36,0.115,186.83,-71.29,-123.72,1785093275907.4077
0.282,-0.379,0.136,167.97,-78.28,-117.59,1785093275913.341
0.283,-0.421,0.181,149.48,-83.8,-113.19,1785093275924.13
0.307,-0.438,0.191,135.32,-87.92,-106.81,1785093275937.231
0.344,-0.429,0.184,124.27,-90.64,-101.02,1785093275943.3447
0.371,-0.4,0.196,112.22,-92.81,-95.98,1785093275953.999
0.399,-0.387,0.209,101.75,-95.55,-92.29,1785093275967.296
0.432,-0.376,0.198,92.96,-98.45,-89.63,1785093275972.799
0.455,-0.368,0.2,84.38,-100.71,-85.3,1785093275983.542
0.479,-0.364,0.187,78.04,-103.34,-81.06,1785093275994.2852
0.525,-0.352,0.157,73.46,-105.38,-78.43,1785093276007.554
0.54,-0.35,0.143,68.61,-106.78,-76.54,1785093276013.4211
0.53,-0.346,0.129,61.95,-108.55,-74.04,1785093276023.9639
0.541,-0.343,0.122,55.54,-110.81,-70.65,1785093276037.2632
0.571,-0.337,0.115,51.39,-112.37,-67.45,1785093276043.169
0.6,-0.346,0.103,50.51,-113.96,-64.0,1785093276053.699
0.622,-0.377,0.07,53.5,-115.45,-62.35,1785093276064.394
0.624,-0.366,0.05,55.57,-116.18,-61.07,1785093276077.6262
0.64,-0.346,0.043,56.12,-115.88,-58.23,1785093276083.563
0.648,-0.341,0.051,56.89,-115.57,-55.45,1785093276093.9993
0.627,-0.344,0.048,58.75,-115.88,-53.1,1785093276107.261
0.628,-0.332,0.042,61.25,-116.46,-50.84,1785093276113.46
0.657,-0.327,0.016,62.26,-117.07,-49.17,1785093276123.6968
0.665,-0.333,-0.008,60.3,-117.71,-47.61,1785093276134.2458
0.686,-0.33,-0.044,57.77,-117.89,-45.9,1785093276147.536
0.701,-0.314,-0.062,54.54,-117.74,-44.19,1785093276153.7961
0.695,-0.31,-0.08,51.61,-117.37,-41.51,1785093276164.151
0.694,-0.302,-0.081,49.23,-116.86,-39.55,1785093276177.4111
0.671,-0.32,-0.075,50.72,-116.89,-37.93,1785093276183.3323
0.638,-0.332,-0.075,55.82,-117.25,-36.32,1785093276194.1462
0.636,-0.327,-0.067,60.88,-117.74,-35.0,1785093276204.488
0.666,-0.34,-0.099,65.0,-118.96,-34.85,1785093276217.7349
0.692,-0.356,-0.13,64.24,-119.54,-35.04,1785093276223.603
0.703,-0.377,-0.128,60.73,-120.0,-34.88,1785093276234.184
0.689,-0.416,-0.134,62.01,-120.91,-35.16,1785093276247.4912
0.68,-0.424,-0.168,67.17,-121.68,-35.4,1785093276253.029
0.686,-0.397,-0.206,71.9,-121.86,-34.73,1785093276263.684
0.676,-0.367,-0.229,74.92,-121.68,-34.64,1785093276274.4792
0.667,-0.355,-0.253,77.36,-120.76,-36.13,1785093276287.7178
0.693,-0.364,-0.282,79.59,-118.96,-37.87,1785093276293.6619
0.709,-0.355,-0.283,78.8,-117.62,-37.75,1785093276304.2148
0.723,-0.367,-0.267,77.91,-116.76,-35.31,1785093276317.476
0.724,-0.376,-0.244,78.04,-116.55,-32.93,1785093276323.362
0.71,-0.379,-0.215,79.59,-116.79,-30.79,1785093276333.741
0.71,-0.379,-0.215,85.97,-117.22,-30.3,1785093276347.531
0.715,-0.388,-0.227,93.45,-117.53,-30.3,1785093276352.763
0.716,-0.387,-0.262,99.22,-117.56,-29.91,1785093276363.6182
0.716,-0.375,-0.303,102.66,-117.31,-29.21,1785093276374.4111
0.71,-0.364,-0.332,103.73,-116.28,-26.98,1785093276387.6018
0.692,-0.361,-0.343,103.73,-116.28,-26.98,1785093276393.166
0.68,-0.369,-0.339,103.18,-115.15,-24.66,1785093276404.2937
0.693,-0.383,-0.345,102.51,-113.8,-22.55,1785093276417.676
0.708,-0.393,-0.357,101.72,-112.43,-21.61,1785093276423.313
0.707,-0.395,-0.349,100.77,-110.9,-20.48,1785093276434.292
0.703,-0.396,-0.337,100.74,-109.53,-19.47,1785093276447.587
0.687,-0.381,-0.302,100.8,-108.52,-18.74,1785093276453.2249
0.657,-0.395,-0.274,104.22,-108.28,-18.16,1785093276464.303
0.625,-0.4,-0.263,108.71,-109.2,-18.04,1785093276477.469
0.589,-0.418,-0.272,111.09,-110.81,-17.88,1785093276484.499
0.578,-0.441,-0.32,108.92,-112.52,-18.49,1785093276495.052
0.582,-0.451,-0.384,99.67,-114.51,-18.34,1785093276507.509
0.59,-0.453,-0.47,84.9,-115.48,-16.05,1785093276513.6143
0.615,-0.444,-0.502,67.05,-116.03,-13.18,1785093276523.8718
0.6,-0.468,-0.51,52.49,-116.49,-10.93,1785093276537.146
0.591,-0.479,-0.511,42.42,-115.3,-9.8,1785093276543.1052
0.592,-0.484,-0.485,36.59,-114.23,-10.04,1785093276553.581
0.595,-0.503,-0.464,35.55,-113.62,-10.19,1785093276564.341
0.576,-0.528,-0.446,39.89,-112.95,-11.44,1785093276577.395
0.539,-0.541,-0.431,48.25,-112.22,-13.0,1785093276583.41
0.521,-0.544,-0.429,59.88,-111.51,-13.55,1785093276593.8618
0.506,-0.546,-0.443,73.98,-110.23,-14.19,1785093276604.634
0.481,-0.524,-0.471,85.09,-108.31,-13.67,1785093276617.774
0.489,-0.477,-0.506,90.37,-106.51,-11.93,1785093276623.637
0.506,-0.459,-0.555,88.11,-105.35,-10.07,1785093276634.239
0.486,-0.49,-0.59,79.78,-104.37,-9.55,1785093276647.475
0.459,-0.518,-0.571,70.38,-102.36,-9.83,1785093276653.574
0.427,-0.558,-0.541,69.4,-99.86,-10.62,1785093276663.6428
0.397,-0.55,-0.526,75.69,-96.01,-10.22,1785093276674.149
0.385,-0.51,-0.498,84.84,-91.25,-9.09,1785093276687.423
0.384,-0.458,-0.432,94.73,-87.25,-8.58,1785093276693.203
0.41,-0.44,-0.412,105.66,-86.18,-6.9,1785093276703.4822
0.417,-0.482,-0.461,112.92,-86.76,-4.91,1785093276714.03
0.396,-0.551,-0.534,110.05,-86.95,-2.9,1785093276727.231
0.366,-0.615,-0.592,99.06,-84.51,0.09,1785093276734.659
0.327,-0.639,-0.609,85.27,-77.58,5.16,1785093276743.583
0.273,-0.621,-0.535,74.28,-68.85,11.29,1785093276753.8582
0.229,-0.597,-0.432,74.53,-61.62,14.92,1785093276764.426
0.283,-0.56,-0.378,85.42,-57.77,15.93,1785093276777.639
0.396,-0.485,-0.385,94.12,-60.76,17.03,1785093276783.5322
0.423,-0.425,-0.437,92.07,-66.53,19.71,1785093276793.814
0.394,-0.441,-0.513,78.4,-71.14,22.8,1785093276804.432
0.355,-0.508,-0.571,54.57,-74.22,23.99,1785093276817.6892
0.325,-0.595,-0.566,30.67,-74.31,23.9,1785093276823.551
0.299,-0.679,-0.532,20.6,-73.89,23.26,1785093276833.8362
0.279,-0.711,-0.505,28.02,-73.27,24.05,1785093276844.2222
0.26,-0.685,-0.488,45.56,-72.27,27.31,1785093276857.519
0.229,-0.618,-0.485,64.09,-70.89,31.43,1785093276863.573
0.189,-0.557,-0.439,78.62,-70.25,36.1,1785093276873.816
0.169,-0.559,-0.403,89.66,-70.19,40.62,1785093276884.44
0.155,-0.604,-0.423,95.03,-69.92,44.98,1785093276897.696
0.136,-0.638,-0.446,90.55,-68.88,49.17,1785093276903.5461
0.143,-0.674,-0.436,79.2,-66.96,52.83,1785093276913.862
0.146,-0.698,-0.412,66.04,-64.55,55.48,1785093276924.423
0.126,-0.725,-0.375,59.54,-61.56,59.82,1785093276937.455
0.116,-0.759,-0.343,66.16,-57.56,65.31,1785093276943.5898
0.13,-0.737,-0.277,79.53,-53.99,71.29,1785093276953.886
0.158,-0.697,-0.257,91.8,-52.61,78.16,1785093276964.4238
0.195,-0.683,-0.275,95.98,-51.73,84.6,1785093276977.797
0.223,-0.751,-0.299,92.72,-50.6,87.8,1785093276983.688
0.218,-0.873,-0.331,87.44,-48.46,88.32,1785093276993.731
0.207,-0.98,-0.355,86.46,-45.72,89.97,1785093277004.436
0.188,-1.027,-0.355,91.71,-42.51,95.19,1785093277017.7122
0.142,-1.013,-0.336,98.79,-39.74,102.91,1785093277023.5571
0.102,-0.99,-0.313,104.74,-36.71,110.51,1785093277034.137
0.065,-0.975,-0.269,104.83,-34.21,115.33,1785093277047.2278
0.028,-0.992,-0.269,97.75,-33.91,118.05,1785093277053.122
0.005,-1.055,-0.315,85.33,-34.39,117.92,1785093277064.002
-0.012,-1.105,-0.416,66.26,-36.53,116.46,1785093277077.12
-0.042,-1.138,-0.514,43.52,-37.29,117.07,1785093277083.168
-0.092,-1.187,-0.524,24.05,-36.32,118.59,1785093277093.596
-0.173,-1.234,-0.537,13.55,-36.41,119.45,1785093277104.337
-0.249,-1.226,-0.56,9.52,-36.29,120.88,1785093277117.6262
-0.257,-1.205,-0.559,8.82,-35.22,120.85,1785093277123.445
-0.229,-1.208,-0.546,8.97,-33.27,115.51,1785093277134.686
-0.204,-1.192,-0.522,7.51,-31.16,108.07,1785093277144.2727
-0.163,-1.167,-0.496,7.6,-30.46,103.73,1785093277157.502
-0.181,-1.163,-0.482,10.56,-31.65,101.02,1785093277163.457
-0.254,-1.161,-0.487,13.76,-33.08,98.57,1785093277173.752
-0.356,-1.202,-0.49,20.75,-34.15,94.09,1785093277184.348
-0.431,-1.232,-0.547,31.86,-33.75,87.86,1785093277197.634
-0.414,-1.228,-0.629,44.43,-28.08,83.19,1785093277203.454
-0.351,-1.177,-0.629,51.45,-19.62,80.17,1785093277213.887
-0.29,-1.08,-0.609,46.27,-14.19,79.93,1785093277224.343
-0.245,-0.977,-0.583,29.82,-11.78,83.41,1785093277237.605
-0.257,-0.988,-0.502,14.83,-10.77,85.12,1785093277243.5022
-0.35,-1.1,-0.375,10.38,-11.72,81.39,1785093277253.797
-0.465,-1.219,-0.263,21.58,-14.1,76.11,1785093277264.174
-0.544,-1.249,-0.211,46.97,-15.66,73.18,1785093277277.577
-0.564,-1.187,-0.228,78.25,-14.77,75.17,1785093277283.534
-0.483,-1.123,-0.308,105.93,-10.59,83.38,1785093277293.924
-0.396,-1.09,-0.37,120.52,-2.93,90.91,1785093277304.4312
-0.402,-1.054,-0.367,116.25,3.94,97.96,1785093277317.7212
-0.446,-1.045,-0.327,97.48,8.0,107.03,1785093277323.5671
-0.508,-1.035,-0.252,70.74,11.9,113.8,1785093277333.9783
-0.548,-1.052,-0.151,43.58,14.47,119.51,1785093277347.3877
-0.553,-1.078,-0.041,25.12,15.29,122.99,1785093277352.829
-0.534,-1.092,-0.009,24.02,14.4,124.24,1785093277363.8342
-0.486,-1.087,-0.065,38.79,15.23,123.69,1785093277374.283
-0.445,-1.067,-0.159,59.02,17.58,120.37,1785093277387.5918
-0.429,-1.049,-0.231,73.15,18.89,117.16,1785093277393.134
-0.445,-1.037,-0.281,78.16,18.46,117.01,1785093277404.073
-0.534,-1.053,-0.286,74.74,17.46,119.36,1785093277417.346
-0.495,-1.166,-0.26,66.5,15.84,130.99,1785093277423.264
-0.55,-1.101,-0.202,62.44,27.25,105.59,1785093277433.7542
-0.466,-1.252,-0.132,66.23,34.94,106.72,1785093277444.4202
-0.511,-1.253,-0.071,79.32,23.9,126.07,1785093277457.591
-0.54,-1.175,-0.1,103.64,18.86,128.06,1785093277463.788
-0.493,-1.154,-0.06,125.43,26.83,119.27,1785093277474.2761
-0.394,-1.167,-0.047,145.79,38.48,102.57,1785093277487.5122
-0.496,-1.004,-0.103,159.34,41.08,83.01,1785093277493.696
-0.687,-0.566,-0.188,157.05,42.63,61.28,1785093277504.075
-0.62,-0.519,-0.205,129.25,51.64,44.89,1785093277517.476
-0.586,-0.735,-0.164,84.14,62.17,42.82,1785093277523.204
-0.605,-0.832,-0.141,41.35,67.08,51.97,1785093277533.514
-0.605,-0.844,-0.115,0.92,69.98,58.05,1785093277544.0051
-0.641,-0.916,-0.052,-33.23,67.81,65.34,1785093277557.2551
-0.661,-1.033,0.005,-46.91,68.36,73.31,1785093277563.149
-0.655,-1.142,0.047,-40.5,70.62,82.83,1785093277573.477
-0.642,-1.124,0.094,-17.21,72.79,84.93,1785093277584.048
-0.639,-1.056,0.102,18.77,74.95,83.07,1785093277597.399
-0.646,-0.969,0.072,54.35,77.58,80.08,1785093277603.178
-0.677,-0.826,0.042,77.79,79.87,72.91,1785093277613.6838
-0.69,-0.716,0.021,87.8,81.45,68.88,1785093277624.022
-0.69,-0.716,0.021,85.36,83.29,67.48,1785093277637.248
-0.688,-0.654,0.013,75.41,86.15,66.93,1785093277643.167
-0.688,-0.666,0.027,65.4,88.78,66.35,1785093277653.472
-0.695,-0.75,0.067,61.01,90.43,64.09,1785093277664.033
-0.734,-0.795,0.107,61.01,90.43,64.09,1785093277677.269
-0.743,-0.852,0.124,59.72,90.7,64.52,1785093277683.177
-0.737,-0.897,0.14,57.99,91.07,63.69,1785093277693.53
-0.739,-0.869,0.144,59.69,91.07,63.51,1785093277703.99
-0.735,-0.826,0.114,62.69,90.06,65.8,1785093277717.251
-0.739,-0.781,0.074,61.68,88.72,67.05,1785093277722.809
-0.74,-0.746,0.031,57.44,87.07,67.35,1785093277733.5679
-0.737,-0.717,-0.001,51.42,85.94,67.6,1785093277744.0361
-0.74,-0.696,-0.014,44.71,84.93,67.63,1785093277757.2742
-0.747,-0.689,-0.008,37.75,83.71,67.26,1785093277763.233
-0.752,-0.704,0.008,31.86,81.85,66.35,1785093277773.5833
-0.755,-0.725,0.014,28.72,79.74,64.39,1785093277784.061
-0.755,-0.723,0.007,27.22,77.76,63.08,1785093277797.416
-0.752,-0.7,-0.009,25.57,75.93,63.17,1785093277803.179
-0.755,-0.679,-0.038,23.29,74.4,63.72,1785093277813.528
-0.778,-0.669,-0.059,20.23,73.89,63.54,1785093277824.021
-0.799,-0.662,-0.05,17.15,73.89,63.3,1785093277837.233
-0.808,-0.661,-0.032,16.3,73.95,63.57,1785093277843.164
-0.817,-0.667,-0.023,18.13,74.19,63.97,1785093277853.5637
-0.818,-0.672,-0.015,21.21,74.16,64.55,1785093277864.0698
-0.812,-0.673,-0.015,23.9,73.76,64.85,1785093277877.175
-0.806,-0.666,-0.019,25.51,73.18,64.94,1785093277883.187
-0.802,-0.66,-0.021,26.89,72.12,64.64,1785093277893.43
-0.8,-0.657,-0.033,29.11,70.13,63.66,1785093277904.083
-0.8,-0.644,-0.052,32.38,67.9,62.35,1785093277917.273
-0.804,-0.622,-0.068,36.1,65.37,61.34,1785093277923.2021
-0.811,-0.6,-0.081,39.92,62.59,60.24,1785093277933.591
-0.819,-0.587,-0.088,43.79,60.0,58.63,1785093277944.0498
-0.822,-0.587,-0.09,48.04,56.76,56.76,1785093277957.34
-0.826,-0.6,-0.084,52.46,52.86,54.84,1785093277963.224
-0.832,-0.621,-0.078,57.31,48.92,53.16,1785093277973.488
-0.837,-0.631,-0.075,62.87,44.92,52.06,1785093277984.069
-0.841,-0.621,-0.077,68.48,40.59,51.64,1785093277997.412
-0.839,-0.605,-0.088,73.79,36.26,51.67,1785093278003.1511
-0.835,-0.584,-0.103,77.21,32.01,51.64,1785093278013.781
-0.83,-0.562,-0.119,77.73,27.71,51.58,1785093278024.033
-0.827,-0.543,-0.133,75.53,23.74,50.94,1785093278037.2888
-0.828,-0.525,-0.142,70.74,19.84,50.26,1785093278043.2
-0.827,-0.514,-0.148,63.63,16.08,49.81,1785093278053.534
-0.824,-0.501,-0.157,54.87,12.7,50.05,1785093278064.274
-0.821,-0.488,-0.16,45.41,9.77,50.14,1785093278074.4277
-0.816,-0.475,-0.157,36.01,7.11,49.87,1785093278087.715
-0.816,-0.472,-0.16,26.92,4.43,49.65,1785093278093.7102
-0.814,-0.47,-0.162,18.16,1.74,49.75,1785093278103.684
-0.812,-0.459,-0.168,9.31,-0.58,50.2,1785093278114.2002
-0.841,-0.441,-0.165,0.43,-3.11,50.72,1785093278124.4358
-0.848,-0.471,-0.154,-4.88,-5.01,53.65,1785093278137.425
-0.846,-0.501,-0.161,-7.48,-5.86,53.59,1785093278143.141
-0.855,-0.5,-0.172,-9.83,-7.97,52.06,1785093278153.5107
-0.855,-0.501,-0.18,-11.17,-9.67,52.03,1785093278164.001
-0.862,-0.495,-0.188,-11.99,-10.71,50.87,1785093278174.404
-0.868,-0.505,-0.202,-11.26,-11.11,49.71,1785093278187.489
-0.878,-0.505,-0.211,-10.47,-11.57,48.25,1785093278193.351
-0.886,-0.497,-0.215,-10.68,-13.09,47.18,1785093278203.875
-0.885,-0.485,-0.222,-11.23,-14.25,46.24,1785093278214.509
-0.892,-0.48,-0.23,-11.32,-14.22,44.01,1785093278227.6511
-0.896,-0.475,-0.236,-11.51,-13.89,40.62,1785093278233.598
-0.899,-0.478,-0.238,-11.17,-13.31,36.96,1785093278243.81
-0.907,-0.483,-0.24,-9.49,-12.24,33.33,1785093278254.3271
-0.916,-0.485,-0.239,-6.87,-11.08,29.97,1785093278267.696
-0.915,-0.482,-0.246,-3.51,-9.95,26.37,1785093278272.964
-0.922,-0.464,-0.245,-0.4,-8.91,22.86,1785093278283.4011
-0.925,-0.45,-0.237,2.93,-7.72,19.71,1785093278293.712
-0.923,-0.446,-0.226,7.48,-6.53,15.84,1785093278304.09
-0.929,-0.444,-0.221,13.76,-5.92,11.14,1785093278317.423
-0.932,-0.431,-0.222,19.44,-5.71,7.11,1785093278323.31
-0.929,-0.411,-0.227,23.44,-5.65,3.48,1785093278333.212
-0.929,-0.393,-0.232,25.82,-5.16,-0.15,1785093278343.504
-0.933,-0.383,-0.237,26.46,-4.82,-3.45,1785093278353.8518
-0.934,-0.374,-0.241,25.39,-4.67,-6.56,1785093278364.306
-0.931,-0.362,-0.24,23.35,-4.46,-9.13,1785093278377.5627
-0.927,-0.349,-0.24,20.33,-4.36,-11.47,1785093278383.2642
-0.925,-0.343,-0.241,16.69,-4.33,-13.4,1785093278393.418
-0.922,-0.338,-0.243,13.15,-4.76,-15.08,1785093278403.81
-0.918,-0.331,-0.241,8.85,-5.07,-16.36,1785093278414.248
-0.913,-0.322,-0.242,3.75,-5.46,-16.79,1785093278427.443
-0.911,-0.315,-0.243,-0.92,-5.65,-17.15,1785093278433.1829
-0.909,-0.301,-0.245,-6.1,-6.04,-17.4,1785093278443.272
-0.902,-0.288,-0.251,-11.75,-6.59,-17.24,1785093278453.6052
-0.899,-0.287,-0.253,-17.58,-6.53,-17.46,1785093278464.167
