ax,ay,az,gx,gy,gz,timestamp_ms
-0.911,-0.292,-0.219,-8.64,-0.7,0.21,1785093257547.752
-0.911,-0.292,-0.215,-8.0,-0.58,0.98,1785093257548.1028
-0.91,-0.294,-0.216,-6.87,-0.37,1.62,1785093257548.3892
-0.912,-0.292,-0.217,-5.52,-0.12,1.92,1785093257548.665
-0.911,-0.287,-0.219,-4.36,-0.09,2.04,1785093257548.927
-0.909,-0.286,-0.222,-3.51,0.21,1.92,1785093257549.197
-0.911,-0.279,-0.223,-2.81,0.4,1.71,1785093257549.505
-0.911,-0.277,-0.224,-2.78,0.64,1.46,1785093257549.7751
-0.912,-0.279,-0.221,-3.54,0.92,1.31,1785093257550.0369
-0.91,-0.286,-0.221,-3.85,0.82,1.16,1785093257550.3008
-0.913,-0.289,-0.221,-3.85,0.92,0.89,1785093257550.559
-0.914,-0.287,-0.22,-3.48,1.1,0.52,1785093257550.793
-0.917,-0.284,-0.22,-2.75,1.28,0.52,1785093257551.0342
-0.917,-0.28,-0.22,-2.41,1.4,0.49,1785093257551.276
-0.918,-0.277,-0.221,-2.08,1.31,0.49,1785093257551.51
-0.918,-0.281,-0.224,-0.98,1.13,0.85,1785093257551.754
-0.917,-0.287,-0.225,0.09,0.98,1.34,1785093257551.9941
-0.915,-0.29,-0.224,1.19,1.19,2.08,1785093257552.2292
-0.915,-0.288,-0.227,2.59,0.98,2.66,1785093257552.47
-0.914,-0.286,-0.23,3.66,0.92,2.78,1785093257552.716
-0.912,-0.283,-0.232,4.03,1.16,2.81,1785093257552.947
-0.914,-0.282,-0.232,4.24,1.07,2.84,1785093257553.187
-0.909,-0.279,-0.232,4.27,1.04,3.02,1785093257553.4312
-0.908,-0.279,-0.231,4.36,1.07,2.9,1785093257553.666
-0.91,-0.282,-0.232,4.49,1.1,2.75,1785093257553.895
-0.91,-0.281,-0.234,4.43,1.19,2.66,1785093257554.132
-0.907,-0.283,-0.233,4.3,1.4,2.44,1785093257554.3628
-0.906,-0.284,-0.231,4.12,1.46,2.08,1785093257554.588
-0.906,-0.289,-0.233,3.88,1.59,1.68,1785093257554.824
-0.907,-0.286,-0.232,3.69,1.62,1.07,1785093257555.057
-0.91,-0.286,-0.228,3.75,1.53,1.01,1785093257555.282
-0.914,-0.286,-0.226,3.75,1.5,0.79,1785093257555.5168
-0.917,-0.288,-0.228,3.75,1.46,0.52,1785093257555.756
-0.914,-0.287,-0.228,3.75,1.53,0.37,1785093257556.001
-0.912,-0.29,-0.23,3.6,1.53,0.55,1785093257556.264
-0.911,-0.289,-0.233,3.42,1.5,0.52,1785093257556.4922
-0.912,-0.29,-0.234,3.2,1.34,0.4,1785093257556.718
-0.91,-0.288,-0.23,2.66,1.34,0.18,1785093257556.9348
-0.906,-0.291,-0.229,2.08,1.25,0.31,1785093257557.176
-0.905,-0.289,-0.228,1.4,1.04,0.4,1785093257557.395
-0.906,-0.288,-0.231,0.7,0.89,0.37,1785093257557.608
-0.9,-0.28,-0.228,-0.27,0.79,-0.37,1785093257557.847
-0.902,-0.286,-0.231,-1.34,0.46,0.09,1785093257558.071
-0.906,-0.288,-0.23,-2.44,0.15,-0.12,1785093257558.281
-0.906,-0.284,-0.232,-3.14,-0.18,-0.67,1785093257558.516
-0.907,-0.285,-0.236,-3.78,-0.49,-0.85,1785093257558.7341
-0.906,-0.286,-0.237,-4.79,-0.7,-1.13,1785093257558.944
-0.908,-0.285,-0.238,-5.8,-0.89,-1.31,1785093257559.1628
-0.908,-0.283,-0.238,-6.78,-0.95,-1.71,1785093257559.387
-0.91,-0.282,-0.235,-7.66,-0.89,-2.29,1785093257559.599
-0.909,-0.282,-0.236,-8.48,-1.1,-2.59,1785093257559.821
-0.907,-0.281,-0.232,-9.43,-1.07,-2.75,1785093257560.0388
-0.907,-0.283,-0.23,-9.92,-1.04,-2.75,1785093257560.2678
-0.906,-0.284,-0.23,-9.98,-0.98,-2.84,1785093257560.481
-0.908,-0.283,-0.232,-9.7,-0.67,-3.05,1785093257560.7092
-0.908,-0.283,-0.229,-9.52,-0.76,-3.23,1785093257560.9448
-0.908,-0.283,-0.228,-9.34,-0.7,-3.36,1785093257561.185
-0.91,-0.282,-0.23,-8.79,-0.52,-3.57,1785093257561.4453
-0.91,-0.281,-0.228,-8.18,-0.4,-3.78,1785093257561.7202
-0.91,-0.279,-0.227,-7.66,-0.43,-3.66,1785093257561.96
-0.913,-0.278,-0.227,-7.02,-0.31,-3.54,1785093257562.206
-0.914,-0.275,-0.226,-6.59,-0.27,-3.45,1785093257562.437
-0.913,-0.274,-0.225,-6.1,-0.43,-3.23,1785093257562.638
-0.916,-0.277,-0.226,-5.34,-0.34,-3.17,1785093257562.841
-0.913,-0.279,-0.224,-4.52,-0.37,-3.14,1785093257563.049
-0.91,-0.275,-0.223,-3.72,-0.34,-3.02,1785093257563.2551
-0.912,-0.277,-0.224,-2.84,-0.46,-2.81,1785093257563.457
-0.914,-0.276,-0.227,-2.2,-0.79,-2.75,1785093257563.688
-0.914,-0.276,-0.227,-1.68,-0.98,-2.47,1785093257563.893
-0.916,-0.278,-0.228,-1.31,-1.04,-2.17,1785093257564.1082
-0.915,-0.279,-0.228,-1.1,-1.28,-2.17,1785093257564.312
-0.914,-0.279,-0.228,-0.82,-1.28,-1.92,1785093257564.519
-0.914,-0.279,-0.228,-0.46,-1.28,-1.5,1785093257564.7412
-0.915,-0.28,-0.227,-0.12,-1.43,-0.89,1785093257564.9531
-0.918,-0.283,-0.226,-0.03,-1.4,-0.18,1785093257565.161
-0.92,-0.286,-0.225,0.31,-1.56,0.49,1785093257565.3591
-0.917,-0.288,-0.227,1.07,-1.5,0.64,1785093257565.57
-0.913,-0.288,-0.23,1.56,-1.25,0.98,1785093257565.778
-0.913,-0.29,-0.234,2.04,-1.04,1.22,1785093257565.9749
-0.915,-0.289,-0.231,2.32,-0.89,1.31,1785093257566.184
-0.919,-0.289,-0.228,2.44,-0.89,1.37,1785093257566.3918
-0.921,-0.29,-0.227,2.32,-0.92,1.37,1785093257566.596
-0.92,-0.287,-0.226,1.95,-0.76,1.28,1785093257566.797
-0.919,-0.284,-0.229,1.68,-0.7,1.31,1785093257567.004
-0.917,-0.281,-0.234,0.92,-0.64,1.25,1785093257567.21
-0.913,-0.276,-0.234,0.06,-0.73,1.22,1785093257567.4087
-0.911,-0.277,-0.234,-0.79,-0.67,1.22,1785093257567.616
-0.91,-0.279,-0.232,-1.56,-0.67,1.13,1785093257567.8232
-0.909,-0.28,-0.231,-1.77,-0.82,0.85,1785093257568.021
-0.909,-0.283,-0.231,-1.74,-0.76,0.67,1785093257568.226
-0.908,-0.279,-0.232,-1.62,-0.76,0.73,1785093257568.4321
-0.906,-0.279,-0.229,-1.43,-0.85,0.79,1785093257568.664
-0.908,-0.28,-0.229,-1.13,-1.04,0.95,1785093257568.865
-0.908,-0.281,-0.23,-0.85,-1.13,1.16,1785093257569.067
-0.908,-0.281,-0.229,-0.61,-1.34,1.25,1785093257569.2659
-0.908,-0.28,-0.23,-0.03,-1.37,1.16,1785093257569.468
-0.91,-0.278,-0.231,0.24,-1.46,1.04,1785093257569.668
-0.909,-0.279,-0.232,0.34,-1.5,0.82,1785093257569.8718
-0.909,-0.281,-0.234,0.27,-1.56,0.67,1785093257570.074
-0.911,-0.282,-0.231,0.37,-1.59,0.43,1785093257570.283
-0.909,-0.283,-0.229,0.27,-1.65,0.18,1785093257570.484
-0.912,-0.282,-0.226,0.12,-1.65,-0.09,1785093257570.672
-0.909,-0.283,-0.226,-0.09,-1.83,-0.15,1785093257570.905
-0.911,-0.284,-0.224,-0.12,-1.83,-0.52,1785093257571.1018
-0.91,-0.285,-0.223,0.0,-1.77,-0.61,1785093257571.295
-0.908,-0.286,-0.222,0.12,-1.89,-0.79,1785093257571.4878
-0.906,-0.286,-0.222,0.52,-1.92,-0.98,1785093257571.682
-0.906,-0.286,-0.222,1.22,-1.86,-1.13,1785093257571.871
-0.908,-0.288,-0.223,1.83,-1.86,-1.25,1785093257572.069
-0.908,-0.288,-0.223,2.23,-1.95,-1.19,1785093257572.266
-0.908,-0.287,-0.225,2.69,-2.01,-1.16,1785093257572.4548
-0.909,-0.286,-0.227,2.69,-2.01,-1.16,1785093257572.647
-0.911,-0.284,-0.23,2.78,-1.92,-1.07,1785093257572.8418
-0.911,-0.284,-0.231,2.72,-1.74,-0.98,1785093257573.071
-0.91,-0.284,-0.23,2.5,-1.74,-0.92,1785093257573.275
-0.913,-0.287,-0.231,2.66,-1.68,-0.73,1785093257573.469
-0.915,-0.287,-0.231,2.9,-1.5,-0.55,1785093257573.688
-0.915,-0.286,-0.229,3.3,-1.37,-0.43,1785093257573.895
-0.916,-0.285,-0.232,3.72,-1.16,-0.43,1785093257574.092
-0.916,-0.287,-0.231,3.91,-0.92,-0.34,1785093257574.2878
-0.918,-0.285,-0.23,4.03,-0.76,-0.15,1785093257574.4797
-0.918,-0.283,-0.23,3.94,-0.61,0.06,1785093257574.676
-0.917,-0.282,-0.228,3.51,-0.55,0.34,1785093257574.872
-0.917,-0.282,-0.229,3.05,-0.46,0.64,1785093257575.0652
-0.914,-0.283,-0.229,2.66,-0.34,0.85,1785093257575.26
-0.913,-0.282,-0.229,2.41,-0.24,1.01,1785093257575.4558
-0.913,-0.284,-0.228,2.11,-0.18,1.04,1785093257575.653
-0.914,-0.283,-0.225,2.23,-0.12,1.1,1785093257575.845
-0.915,-0.285,-0.226,2.29,-0.34,1.07,1785093257576.042
-0.91,-0.287,-0.227,2.2,-0.55,1.25,1785093257576.237
-0.908,-0.288,-0.228,1.92,-0.4,1.16,1785093257576.4202
-0.908,-0.287,-0.229,1.86,-0.52,1.22,1785093257576.6091
-0.909,-0.285,-0.226,1.74,-0.61,1.16,1785093257576.796
-0.914,-0.286,-0.222,1.59,-0.67,0.98,1785093257576.977
-0.918,-0.287,-0.219,1.31,-0.7,1.13,1785093257577.1638
-0.918,-0.289,-0.219,1.04,-0.85,1.46,1785093257577.349
-0.916,-0.288,-0.221,0.85,-0.82,1.53,1785093257577.53
-0.915,-0.289,-0.224,0.64,-0.92,1.56,1785093257577.7158
-0.912,-0.29,-0.225,0.27,-0.95,1.31,1785093257577.9043
-0.909,-0.288,-0.224,0.09,-0.82,1.16,1785093257578.0908
-0.911,-0.289,-0.222,-0.09,-0.89,1.28,1785093257578.275
-0.911,-0.289,-0.224,-0.37,-0.85,1.37,1785093257578.464
-0.907,-0.289,-0.225,-0.61,-0.73,1.4,1785093257578.655
-0.907,-0.29,-0.224,-0.89,-0.67,1.25,1785093257578.836
-0.91,-0.29,-0.224,-0.85,-0.67,1.19,1785093257579.025
-0.909,-0.291,-0.225,-0.7,-0.52,1.1,1785093257579.214
-0.909,-0.292,-0.223,-0.52,-0.55,0.79,1785093257579.396
-0.909,-0.289,-0.222,-0.24,-0.58,0.67,1785093257579.582
-0.911,-0.287,-0.225,-0.24,-0.73,0.61,1785093257579.767
-0.91,-0.286,-0.227,-0.4,-0.61,0.49,1785093257579.951
-0.911,-0.286,-0.229,-0.58,-0.49,0.43,1785093257580.1458
-0.911,-0.288,-0.229,-0.92,-0.55,0.43,1785093257580.333
-0.914,-0.289,-0.228,-1.13,-0.58,0.31,1785093257580.5208
-0.917,-0.287,-0.228,-1.4,-0.4,0.37,1785093257580.707
-0.915,-0.288,-0.227,-1.59,-0.46,0.55,1785093257580.8918
-0.915,-0.288,-0.227,-1.74,-0.49,0.76,1785093257581.0771
-0.916,-0.287,-0.226,-2.01,-0.52,0.85,1785093257581.26
-0.915,-0.285,-0.228,-2.38,-0.49,0.92,1785093257581.451
-0.913,-0.285,-0.228,-3.11,-0.37,0.89,1785093257581.639
-0.914,-0.284,-0.229,-3.91,-0.37,1.01,1785093257581.824
-0.912,-0.285,-0.228,-4.46,-0.37,0.98,1785093257582.012
-0.911,-0.284,-0.228,-5.25,-0.31,0.92,1785093257582.197
-0.909,-0.286,-0.228,-5.83,-0.24,0.76,1785093257582.373
-0.909,-0.284,-0.227,-6.16,-0.4,0.61,1785093257582.552
-0.909,-0.282,-0.225,-6.5,-0.49,0.37,1785093257582.731
-0.912,-0.284,-0.225,-6.9,-0.55,0.18,1785093257582.905
-0.912,-0.281,-0.224,-7.42,-0.4,0.0,1785093257583.085
-0.913,-0.279,-0.221,-7.9,-0.49,0.12,1785093257583.2651
-0.914,-0.28,-0.223,-8.09,-0.7,0.18,1785093257583.4382
-0.915,-0.282,-0.225,-8.21,-0.73,0.24,1785093257583.6191
-0.914,-0.279,-0.224,-8.3,-0.85,0.34,1785093257583.799
-0.914,-0.281,-0.224,-8.39,-0.7,0.37,1785093257583.979
-0.916,-0.285,-0.225,-8.45,-0.95,0.37,1785093257584.1558
-0.915,-0.284,-0.224,-8.36,-1.04,0.43,1785093257584.3342
-0.914,-0.283,-0.224,-8.03,-1.16,0.46,1785093257584.5088
-0.916,-0.288,-0.222,-6.56,-1.19,0.18,1785093257584.8582
-0.917,-0.285,-0.22,-5.37,-1.28,-0.03,1785093257585.032
-0.763,-0.696,-0.526,-53.56,-5.71,0.85,1785093257585.366
-0.832,-0.741,-0.442,-50.08,-3.2,-4.03,1785093257585.542
-0.915,-0.759,-0.363,-39.67,-1.98,-7.87,1785093257586.926
-1.005,-0.727,-0.311,-22.31,0.24,-10.38,1785093257592.496
-1.049,-0.707,-0.237,-1.46,2.26,-12.57,1785093257602.71
-1.095,-0.667,-0.236,19.38,0.98,-16.94,1785093257613.167
-1.051,-0.602,-0.312,34.49,0.24,-18.07,1785093257623.635
-0.961,-0.566,-0.415,45.05,0.52,-17.88,1785093257636.7932
-0.933,-0.558,-0.538,45.38,0.21,-18.98,1785093257642.4817
-0.952,-0.537,-0.584,31.59,0.82,-17.73,1785093257652.8152
-0.97,-0.552,-0.572,16.48,0.21,-14.01,1785093257663.295
-0.968,-0.595,-0.543,4.76,-1.19,-10.9,1785093257673.6738
-0.94,-0.637,-0.483,-1.07,-2.23,-9.7,1785093257686.908
-0.901,-0.669,-0.402,1.34,-3.81,-11.26,1785093257692.2932
-0.846,-0.669,-0.402,11.81,-6.68,-16.14,1785093257702.6382
-0.792,-0.636,-0.457,28.41,-7.87,-22.55,1785093257713.239
-0.772,-0.612,-0.487,47.3,-8.42,-28.96,1785093257723.571
-0.783,-0.622,-0.455,63.84,-9.77,-36.5,1785093257736.821
-0.801,-0.633,-0.393,76.85,-11.51,-43.4,1785093257742.5972
-0.844,-0.629,-0.28,86.61,-12.39,-45.01,1785093257752.975
-0.887,-0.627,-0.154,94.42,-15.75,-42.42,1785093257763.525
-0.897,-0.612,-0.198,100.01,-22.61,-39.16,1785093257776.787
-0.864,-0.534,-0.351,97.51,-28.69,-32.44,1785093257782.46
-0.796,-0.475,-0.458,84.99,-34.33,-22.86,1785093257793.096
-0.757,-0.458,-0.517,64.06,-40.22,-15.35,1785093257803.759
-0.768,-0.469,-0.534,37.48,-44.98,-7.26,1785093257816.997
-0.762,-0.507,-0.523,13.21,-48.86,1.04,1785093257822.8062
-0.731,-0.54,-0.492,-3.2,-51.18,8.0,1785093257832.863
-0.683,-0.577,-0.445,-9.06,-51.0,14.44,1785093257843.2979
-0.619,-0.603,-0.383,-6.87,-49.87,21.76,1785093257853.829
-0.546,-0.608,-0.308,-2.9,-50.9,30.73,1785093257867.017
-0.501,-0.591,-0.295,-3.17,-55.48,41.26,1785093257872.905
-0.515,-0.593,-0.33,-10.8,-60.49,51.67,1785093257883.067
-0.568,-0.652,-0.334,-22.8,-64.73,57.56,1785093257893.635
-0.589,-0.719,-0.328,-32.59,-69.64,59.54,1785093257907.105
-0.555,-0.752,-0.398,-34.09,-73.46,61.1,1785093257912.8042
-0.501,-0.719,-0.509,-29.63,-73.79,62.11,1785093257923.063
-0.434,-0.646,-0.568,-24.57,-71.5,64.33,1785093257933.512
-0.384,-0.589,-0.581,-22.03,-69.43,66.47,1785093257946.905
-0.378,-0.553,-0.549,-24.69,-68.97,68.18,1785093257952.4429
-0.405,-0.545,-0.5,-32.56,-70.31,70.35,1785093257963.103
-0.439,-0.565,-0.447,-43.18,-73.03,71.87,1785093257973.63
-0.469,-0.592,-0.397,-53.99,-76.27,74.31,1785093257986.9238
-0.48,-0.644,-0.421,-61.37,-78.52,77.55,1785093257992.817
-0.484,-0.712,-0.48,-63.88,-76.36,77.33,1785093258003.118
-0.487,-0.76,-0.501,-61.59,-71.66,74.28,1785093258013.515
-0.486,-0.793,-0.497,-54.6,-66.32,70.53,1785093258027.0632
-0.502,-0.809,-0.467,-43.82,-60.4,65.92,1785093258032.885
-0.55,-0.805,-0.386,-31.71,-55.45,62.01,1785093258043.0852
-0.604,-0.807,-0.309,-18.56,-53.25,57.59,1785093258053.975
-0.635,-0.832,-0.286,-4.55,-52.77,51.42,1785093258064.273
-0.653,-0.84,-0.316,8.61,-53.04,45.9,1785093258077.354
-0.652,-0.818,-0.429,18.13,-52.34,43.24,1785093258083.384
-0.629,-0.787,-0.564,22.68,-47.88,41.41,1785093258093.466
-0.598,-0.737,-0.626,21.67,-40.8,38.67,1785093258104.038
-0.576,-0.686,-0.612,17.09,-34.24,34.12,1785093258117.307
-0.58,-0.648,-0.525,11.87,-29.63,27.34,1785093258123.1658
-0.599,-0.638,-0.404,9.06,-27.44,19.32,1785093258133.404
-0.622,-0.641,-0.304,8.64,-26.67,11.93,1785093258143.845
-0.641,-0.65,-0.245,9.7,-26.46,6.32,1785093258156.9763
-0.638,-0.667,-0.266,11.75,-27.1,2.17,1785093258163.0989
-0.626,-0.664,-0.351,13.37,-27.47,-0.95,1785093258173.009
-0.617,-0.639,-0.452,14.65,-26.8,-2.69,1785093258183.434
-0.617,-0.589,-0.515,13.79,-24.9,-3.88,1785093258193.8582
-0.626,-0.548,-0.522,10.71,-22.61,-5.89,1785093258207.032
-0.64,-0.522,-0.47,6.04,-21.49,-9.13,1785093258212.806
-0.662,-0.516,-0.393,1.68,-21.09,-12.48,1785093258222.9812
-0.691,-0.536,-0.314,-0.15,-20.84,-15.17,1785093258233.4878
-0.709,-0.566,-0.243,0.12,-21.73,-17.82,1785093258243.916
-0.714,-0.576,-0.226,1.53,-24.45,-20.05,1785093258257.272
-0.716,-0.559,-0.282,3.17,-27.8,-20.75,1785093258262.968
-0.727,-0.517,-0.375,1.53,-30.43,-20.6,1785093258273.288
-0.739,-0.461,-0.432,-5.49,-31.71,-20.11,1785093258283.684
-0.751,-0.42,-0.44,-16.6,-31.98,-20.05,1785093258294.1409
-0.765,-0.401,-0.421,-29.24,-32.14,-20.42,1785093258307.382
-0.77,-0.401,-0.382,-40.71,-31.56,-20.39,1785093258313.256
-0.783,-0.43,-0.332,-48.28,-30.46,-20.17,1785093258323.636
-0.8,-0.481,-0.284,-50.75,-29.57,-19.84,1785093258334.1738
-0.814,-0.533,-0.239,-49.1,-29.02,-18.98,1785093258347.593
-0.814,-0.568,-0.198,-43.67,-29.45,-17.94,1785093258353.106
-0.801,-0.578,-0.185,-34.94,-30.06,-16.36,1785093258363.6729
-0.801,-0.578,-0.185,-26.09,-30.52,-13.61,1785093258374.1108
-0.79,-0.555,-0.23,-20.48,-31.68,-10.86,1785093258387.411
-0.784,-0.517,-0.28,-17.0,-31.31,-9.92,1785093258393.547
-0.798,-0.476,-0.319,-15.11,-30.18,-9.43,1785093258403.356
-0.805,-0.463,-0.325,-13.64,-28.5,-10.86,1785093258414.144
-0.806,-0.464,-0.303,-13.64,-28.5,-10.86,1785093258427.172
-0.811,-0.467,-0.27,-12.94,-27.44,-12.82,1785093258433.2202
-0.818,-0.473,-0.238,-13.06,-27.01,-13.89,1785093258443.3137
-0.833,-0.483,-0.215,-12.54,-26.58,-14.4,1785093258453.9941
-0.838,-0.501,-0.212,-11.26,-26.03,-13.73,1785093258467.2397
-0.846,-0.483,-0.227,-11.2,-25.51,-13.58,1785093258473.105
-0.846,-0.458,-0.242,-11.54,-23.5,-13.73,1785093258483.417
-0.846,-0.481,-0.295,-10.13,-20.51,-13.21,1785093258493.9158
-0.85,-0.516,-0.287,-3.81,-13.58,-14.5,1785093258507.2231
-0.855,-0.531,-0.236,8.42,-6.41,-16.05,1785093258513.496
-0.83,-0.538,-0.172,24.9,-1.13,-15.9,1785093258523.031
-0.808,-0.542,-0.098,45.53,2.84,-14.68,1785093258533.545
-0.79,-0.538,-0.07,68.91,5.25,-12.94,1785093258543.962
-0.776,-0.507,-0.082,90.52,6.38,-10.83,1785093258557.2979
-0.77,-0.473,-0.113,109.2,7.51,-9.61,1785093258563.083
-0.773,-0.464,-0.162,124.27,7.6,-9.4,1785093258573.129
-0.774,-0.448,-0.215,133.67,7.48,-9.98,1785093258583.68
-0.798,-0.416,-0.256,136.33,8.18,-10.16,1785093258594.224
-0.807,-0.401,-0.29,131.78,8.27,-6.81,1785093258607.487
-0.81,-0.381,-0.293,121.56,9.52,-3.78,1785093258613.2622
-0.824,-0.371,-0.287,108.71,11.44,-1.25,1785093258623.445
-0.834,-0.384,-0.273,93.48,11.78,1.65,1785093258634.1409
-0.84,-0.42,-0.259,78.1,11.66,5.31,1785093258647.22
-0.835,-0.464,-0.266,65.03,11.23,9.89,1785093258653.059
-0.842,-0.477,-0.279,53.29,10.83,13.43,1785093258663.219
-0.84,-0.513,-0.291,43.95,11.44,19.78,1785093258673.773
-0.854,-0.523,-0.311,38.12,14.31,22.52,1785093258687.0378
-0.886,-0.506,-0.309,33.42,17.3,22.68,1785093258692.5928
-0.874,-0.532,-0.287,31.53,20.11,26.52,1785093258702.975
-0.878,-0.522,-0.252,33.69,24.38,26.49,1785093258713.753
-0.879,-0.524,-0.206,40.86,28.96,27.22,1785093258726.987
-0.859,-0.547,-0.191,50.97,33.6,28.2,1785093258732.9631
-0.852,-0.551,-0.183,62.32,39.09,26.0,1785093258743.1821
-0.854,-0.565,-0.19,75.2,44.83,22.61,1785093258753.871
-0.847,-0.629,-0.209,89.69,51.33,22.34,1785093258767.045
-0.851,-0.677,-0.239,107.27,58.26,23.1,1785093258772.948
-0.842,-0.656,-0.278,128.24,65.19,23.9,1785093258783.381
-0.835,-0.586,-0.321,149.66,72.27,25.06,1785093258794.029
-0.843,-0.485,-0.349,165.44,78.62,26.86,1785093258807.512
-0.864,-0.406,-0.374,173.5,83.53,27.71,1785093258813.1929
-0.872,-0.378,-0.385,174.2,87.86,27.34,1785093258823.7861
-0.874,-0.37,-0.393,167.94,92.07,24.29,1785093258837.064
-0.871,-0.407,-0.438,157.9,95.65,20.51,1785093258842.905
-0.887,-0.448,-0.481,144.14,99.52,17.0,1785093258853.529
-0.898,-0.48,-0.488,129.12,103.55,15.93,1785093258864.27
-0.915,-0.521,-0.46,117.01,106.63,16.08,1785093258877.5098
-0.946,-0.56,-0.439,108.83,108.43,16.39,1785093258883.47
-0.972,-0.57,-0.42,103.27,109.78,17.12,1785093258893.9058
-0.992,-0.571,-0.414,100.47,111.58,17.58,1785093258907.407
-1.003,-0.57,-0.405,97.72,113.9,17.18,1785093258913.3352
-0.987,-0.563,-0.387,93.39,115.97,16.14,1785093258923.9712
-0.941,-0.556,-0.401,87.77,116.79,15.59,1785093258936.995
-0.924,-0.557,-0.438,80.29,116.92,15.75,1785093258943.229
-0.974,-0.604,-0.461,72.42,116.15,16.08,1785093258953.8218
-1.044,-0.68,-0.497,63.88,115.36,15.32,1785093258966.805
-1.073,-0.718,-0.501,52.4,116.15,14.47,1785093258972.8792
-1.066,-0.731,-0.463,42.66,118.84,14.1,1785093258983.394
-1.047,-0.741,-0.407,36.56,122.1,12.88,1785093258993.8208
-1.022,-0.75,-0.357,33.51,125.58,10.93,1785093259007.2542
-0.999,-0.777,-0.319,35.22,129.18,7.66,1785093259013.202
-0.983,-0.799,-0.297,39.46,132.6,2.41,1785093259023.4812
-0.971,-0.828,-0.309,44.68,135.17,-4.24,1785093259034.074
-0.989,-0.855,-0.304,50.39,137.24,-11.87,1785093259047.601
-1.009,-0.863,-0.291,56.92,138.1,-18.86,1785093259053.293
-1.015,-0.882,-0.313,65.89,138.8,-25.36,1785093259063.9849
-1.02,-0.887,-0.327,74.19,139.62,-31.46,1785093259077.01
-1.026,-0.879,-0.342,79.68,138.19,-35.8,1785093259083.0632
-1.005,-0.877,-0.356,84.51,138.55,-41.72,1785093259093.51
-1.015,-0.849,-0.376,86.46,137.73,-48.43,1785093259104.158
-1.008,-0.829,-0.364,86.28,135.78,-51.24,1785093259117.501
-1.012,-0.845,-0.365,87.19,134.19,-54.63,1785093259123.331
-0.995,-0.876,-0.345,89.08,133.55,-60.82,1785093259133.9941
-0.97,-0.898,-0.335,91.8,133.92,-68.3,1785093259147.205
-0.949,-0.921,-0.343,94.15,133.49,-73.64,1785093259153.075
-0.934,-0.919,-0.345,95.86,133.09,-76.88,1785093259163.584
-0.923,-0.924,-0.371,99.31,133.52,-79.65,1785093259174.1729
-0.909,-0.929,-0.41,102.76,133.43,-82.77,1785093259187.454
-0.909,-0.922,-0.415,104.68,132.42,-85.85,1785093259193.541
-0.91,-0.932,-0.396,107.73,130.56,-88.47,1785093259204.171
-0.899,-0.926,-0.369,110.9,128.39,-91.19,1785093259217.5242
-0.877,-0.914,-0.35,113.74,125.74,-92.87,1785093259223.41
-0.851,-0.915,-0.372,113.25,122.14,-95.1,1785093259234.142
-0.814,-0.9,-0.38,105.5,118.56,-97.48,1785093259247.3271
-0.765,-0.91,-0.39,94.61,114.9,-99.43,1785093259253.5999
-0.736,-0.93,-0.386,83.1,111.51,-101.41,1785093259264.204
-0.718,-0.946,-0.369,73.92,108.19,-103.0,1785093259277.26
-0.701,-0.947,-0.359,67.9,104.5,-103.98,1785093259283.304
-0.684,-0.948,-0.346,64.24,100.92,-105.11,1785093259293.953
-0.666,-0.95,-0.33,61.86,97.72,-106.94,1785093259307.231
-0.635,-0.951,-0.329,57.77,93.69,-107.85,1785093259313.104
-0.591,-0.977,-0.335,51.15,89.85,-108.92,1785093259323.642
-0.586,-1.032,-0.29,41.32,85.63,-111.18,1785093259336.972
-0.579,-1.095,-0.273,32.53,80.94,-113.47,1785093259342.863
-0.532,-1.126,-0.277,27.04,77.91,-117.28,1785093259353.413
-0.527,-1.126,-0.266,24.41,75.44,-121.89,1785093259364.194
-0.518,-1.125,-0.244,24.63,72.21,-124.12,1785093259377.264
-0.512,-1.078,-0.23,28.08,69.73,-127.81,1785093259383.2449
-0.476,-1.041,-0.243,30.46,67.2,-131.14,1785093259393.573
-0.459,-1.037,-0.257,26.58,64.15,-135.11,1785093259406.739
-0.448,-1.075,-0.259,16.94,61.28,-137.61,1785093259412.6877
-0.443,-1.135,-0.248,8.55,59.79,-139.5,1785093259423.372
-0.424,-1.178,-0.221,7.63,59.24,-140.72,1785093259434.023
-0.401,-1.181,-0.192,15.2,58.23,-141.21,1785093259447.293
-0.369,-1.129,-0.17,26.22,56.43,-141.18,1785093259453.103
-0.311,-1.074,-0.191,34.03,53.62,-141.21,1785093259463.687
-0.259,-1.072,-0.235,34.97,51.27,-143.62,1785093259476.886
-0.259,-1.063,-0.23,29.21,49.56,-146.24,1785093259482.966
-0.25,-1.065,-0.215,23.59,47.24,-145.15,1785093259493.4631
-0.227,-1.067,-0.206,22.03,45.56,-144.05,1785093259504.046
-0.198,-1.05,-0.169,22.31,44.22,-144.2,1785093259517.2422
-0.165,-1.068,-0.153,24.23,41.96,-144.35,1785093259523.1108
-0.154,-1.069,-0.138,26.22,40.25,-145.24,1785093259533.772
-0.142,-1.038,-0.113,27.68,38.21,-145.15,1785093259546.914
-0.102,-1.015,-0.108,29.57,35.04,-144.63,1785093259552.8618
-0.06,-1.002,-0.115,31.59,32.72,-145.54,1785093259563.667
-0.039,-0.992,-0.096,34.39,31.07,-146.73,1785093259573.905
-0.018,-0.992,-0.077,40.68,29.24,-147.86,1785093259587.187
-0.01,-0.968,-0.026,50.14,27.62,-149.82,1785093259593.565
0.007,-0.926,0.046,60.95,24.29,-149.51,1785093259603.755
0.069,-0.905,0.099,74.83,20.14,-148.93,1785093259617.022
0.104,-0.903,0.153,91.1,15.75,-151.34,1785093259622.499
0.108,-0.895,0.157,108.25,10.1,-153.51,1785093259633.556
0.094,-0.867,0.161,122.87,4.33,-154.18,1785093259644.169
0.094,-0.867,0.161,134.68,-2.08,-153.84,1785093259657.234
0.065,-0.815,0.159,143.56,-8.0,-152.38,1785093259663.0981
0.083,-0.769,0.127,145.63,-13.06,-150.94,1785093259673.91
0.113,-0.712,0.135,144.23,-17.85,-148.78,1785093259687.2
0.156,-0.69,0.167,141.64,-23.65,-146.09,1785093259693.138
0.177,-0.693,0.193,141.64,-23.65,-146.09,1785093259703.889
0.195,-0.7,0.216,138.28,-29.85,-142.98,1785093259716.9988
0.181,-0.694,0.291,134.92,-36.19,-140.26,1785093259722.761
0.175,-0.692,0.358,135.44,-43.95,-136.91,1785093259733.888
0.19,-0.667,0.369,141.54,-52.0,-134.16,1785093259747.113
0.227,-0.598,0.323,148.44,-59.85,-131.69,1785093259753.0398
0.273,-0.523,0.256,149.63,-67.17,-129.76,1785093259763.831
0.311,-0.48,0.205,142.61,-73.76,-129.09,1785093259776.991
0.322,-0.476,0.2,130.41,-79.62,-127.72,1785093259783.227
0.341,-0.495,0.212,119.51,-85.09,-124.7,1785093259793.7788
0.364,-0.483,0.225,111.51,-90.03,-120.15,1785093259807.0312
0.371,-0.446,0.252,106.14,-94.82,-114.2,1785093259813.058
0.402,-0.406,0.252,102.45,-100.65,-110.05,1785093259823.8699
0.431,-0.384,0.235,100.1,-106.54,-108.52,1785093259836.9292
0.429,-0.38,0.22,97.23,-112.22,-107.43,1785093259842.851
0.427,-0.384,0.205,94.42,-117.95,-106.05,1785093259853.882
0.431,-0.376,0.203,92.78,-123.33,-103.61,1785093259867.1638
0.435,-0.359,0.196,94.18,-128.24,-99.58,1785093259873.0503
0.436,-0.336,0.172,97.54,-133.06,-95.28,1785093259883.51
0.441,-0.326,0.131,100.16,-138.13,-92.07,1785093259897.076
0.457,-0.341,0.078,100.71,-142.67,-89.91,1785093259902.953
0.448,-0.369,0.061,100.8,-146.31,-88.5,1785093259913.665
0.423,-0.417,0.059,106.69,-150.21,-86.28,1785093259926.88
0.41,-0.455,0.069,123.14,-153.45,-83.47,1785093259933.05
0.4,-0.465,0.074,151.04,-156.16,-80.51,1785093259943.629
0.382,-0.443,0.052,185.43,-158.27,-77.15,1785093259956.933
0.36,-0.369,0.01,216.04,-161.11,-71.93,1785093259962.817
0.347,-0.287,-0.041,237.5,-164.8,-65.43,1785093259973.69
0.335,-0.236,-0.068,248.6,-169.26,-59.79,1785093259986.86
0.351,-0.253,-0.115,255.9,-173.56,-55.48,1785093259992.7722
0.366,-0.241,-0.185,259.16,-175.39,-50.72,1785093260003.584
0.391,-0.174,-0.225,252.17,-176.37,-41.87,1785093260016.716
0.423,-0.127,-0.261,236.0,-178.14,-32.23,1785093260022.778
0.441,-0.124,-0.296,214.67,-179.02,-25.61,1785093260033.5513
0.458,-0.145,-0.294,191.9,-178.47,-21.27,1785093260046.772
0.465,-0.174,-0.274,172.73,-178.23,-18.28,1785093260052.6987
0.452,-0.212,-0.247,162.24,-177.4,-15.93,1785093260063.513
0.455,-0.248,-0.243,159.03,-176.21,-13.31,1785093260073.9673
0.473,-0.263,-0.228,156.8,-175.3,-11.05,1785093260087.522
0.474,-0.28,-0.2,155.03,-175.24,-8.94,1785093260093.3828
0.45,-0.319,-0.175,155.83,-175.94,-6.44,1785093260104.0408
0.42,-0.375,-0.195,161.29,-176.34,-4.61,1785093260117.323
0.416,-0.395,-0.321,166.23,-174.84,-2.2,1785093260122.835
0.437,-0.358,-0.446,159.92,-171.09,2.04,1785093260133.837
0.46,-0.349,-0.491,143.89,-166.23,6.07,1785093260147.106
0.478,-0.375,-0.473,126.77,-160.22,8.91,1785093260152.889
0.474,-0.415,-0.409,113.65,-154.88,10.9,1785093260163.5398
0.478,-0.454,-0.333,107.64,-151.31,12.51,1785093260174.2139
0.455,-0.479,-0.266,108.68,-149.85,14.44,1785093260187.473
0.428,-0.498,-0.233,112.61,-149.27,18.1,1785093260193.739
0.4,-0.524,-0.245,116.0,-149.14,21.21,1785093260204.0752
0.348,-0.561,-0.303,119.63,-147.89,23.38,1785093260217.569
0.32,-0.585,-0.354,125.52,-143.25,25.79,1785093260223.4392
0.327,-0.591,-0.379,135.11,-136.81,27.22,1785093260234.188
0.35,-0.567,-0.401,144.93,-130.59,29.94,1785093260247.419
0.384,-0.55,-0.43,149.27,-126.13,34.36,1785093260253.8208
0.382,-0.563,-0.434,144.6,-123.51,39.16,1785093260264.273
0.332,-0.614,-0.397,133.7,-121.52,44.59,1785093260277.395
0.267,-0.705,-0.344,124.58,-119.42,49.17,1785093260283.399
0.201,-0.776,-0.294,121.86,-115.6,51.3,1785093260294.079
0.188,-0.806,-0.288,125.13,-110.08,52.43,1785093260307.338
0.226,-0.799,-0.309,128.67,-103.55,52.77,1785093260313.8262
0.269,-0.786,-0.351,127.29,-97.75,53.65,1785093260323.857
0.306,-0.779,-0.393,119.02,-93.02,56.06,1785093260337.206
0.321,-0.796,-0.415,105.72,-89.42,59.76,1785093260343.147
0.299,-0.821,-0.371,93.42,-84.48,63.26,1785093260353.639
0.262,-0.834,-0.325,88.17,-79.23,67.02,1785093260364.2393
0.238,-0.856,-0.328,89.39,-74.5,69.8,1785093260377.37
0.22,-0.881,-0.346,91.19,-69.25,68.97,1785093260383.351
0.209,-0.877,-0.364,88.47,-64.33,66.5,1785093260393.597
0.204,-0.865,-0.408,81.12,-60.06,65.89,1785093260404.143
0.206,-0.851,-0.441,70.19,-54.84,66.74,1785093260417.429
0.222,-0.831,-0.413,57.95,-48.83,68.73,1785093260423.3442
0.231,-0.831,-0.354,50.97,-43.52,73.82,1785093260433.435
0.205,-0.778,-0.265,49.78,-37.14,78.86,1785093260444.177
0.213,-0.755,-0.242,52.58,-31.89,82.74,1785093260457.351
0.183,-0.765,-0.262,50.94,-31.46,84.96,1785093260463.3
0.166,-0.783,-0.241,39.67,-30.85,89.24,1785093260473.616
0.15,-0.791,-0.251,29.51,-22.89,85.45,1785093260484.142
0.16,-0.854,-0.335,18.28,-22.4,85.39,1785093260497.665
0.212,-0.945,-0.293,5.28,-25.85,95.98,1785093260502.947
0.177,-0.995,-0.21,7.66,-20.57,100.86,1785093260513.5142
0.124,-1.012,-0.196,26.49,-13.79,102.57,1785093260524.1611
0.12,-1.019,-0.214,51.06,-9.98,105.38,1785093260537.156
0.124,-0.996,-0.253,69.8,-6.23,107.09,1785093260542.968
0.111,-0.938,-0.283,73.58,-3.39,111.06,1785093260553.7732
0.118,-0.914,-0.305,64.61,-1.74,117.98,1785093260564.237
0.124,-0.884,-0.284,47.33,1.65,119.88,1785093260577.4138
0.079,-0.898,-0.217,32.23,4.76,117.86,1785093260583.351
0.012,-1.04,-0.175,31.22,6.47,113.99,1785093260593.6
-0.036,-1.193,-0.151,42.57,8.76,109.81,1785093260604.131
-0.098,-1.244,-0.161,58.17,10.86,108.68,1785093260617.475
-0.132,-1.225,-0.232,69.77,13.95,111.03,1785093260623.309
-0.135,-1.179,-0.278,69.46,18.77,113.65,1785093260633.7039
-0.137,-1.157,-0.268,60.61,23.26,115.05,1785093260647.1292
-0.135,-1.205,-0.196,58.32,28.81,114.11,1785093260652.725
-0.143,-1.263,-0.147,67.51,34.55,111.64,1785093260663.6409
-0.205,-1.339,-0.16,84.84,41.23,108.68,1785093260674.07
-0.323,-1.36,-0.117,97.75,47.88,106.85,1785093260687.457
-0.397,-1.343,-0.125,101.29,52.28,109.26,1785093260693.501
-0.409,-1.288,-0.178,93.94,58.32,114.51,1785093260703.9922
-0.381,-1.253,-0.196,81.15,65.37,122.53,1785093260717.27
-0.363,-1.271,-0.185,66.84,70.28,130.62,1785093260723.172
-0.37,-1.332,-0.155,52.06,73.98,137.39,1785093260733.802
-0.389,-1.445,-0.117,44.59,77.85,141.97,1785093260746.943
-0.416,-1.515,-0.104,43.03,80.72,144.11,1785093260752.8599
-0.443,-1.497,-0.112,41.02,83.1,148.75,1785093260763.404
-0.452,-1.415,-0.128,34.88,85.94,156.38,1785093260774.0212
-0.443,-1.308,-0.134,22.52,89.48,164.8,1785093260787.394
-0.422,-1.215,-0.124,3.23,91.16,170.57,1785093260793.1973
-0.386,-1.17,-0.081,-19.1,90.85,171.0,1785093260803.665
-0.359,-1.21,-0.035,-33.81,90.79,165.32,1785093260816.905
-0.37,-1.271,-0.001,-40.07,89.91,157.05,1785093260822.82
-0.379,-1.354,0.031,-40.47,86.21,157.02,1785093260833.206
-0.348,-1.374,0.034,-35.31,84.14,161.08,1785093260844.029
-0.372,-1.304,0.008,-29.66,82.64,161.57,1785093260857.2532
-0.361,-1.259,-0.028,-28.81,81.06,164.49,1785093260863.193
-0.416,-1.18,-0.038,-33.14,79.68,162.24,1785093260873.885
-0.364,-1.245,-0.03,-35.1,75.78,171.51,1785093260886.973
-0.283,-1.235,-0.024,-31.92,75.14,168.71,1785093260892.907
-0.346,-1.117,-0.027,-24.99,77.18,151.31,1785093260903.439
-0.371,-1.191,-0.049,-20.72,72.39,152.07,1785093260913.8748
-0.454,-1.184,-0.049,-21.39,68.15,146.43,1785093260927.173
-0.497,-1.237,-0.06,-19.75,64.91,146.21,1785093260933.335
-0.497,-1.237,-0.06,-12.94,64.09,147.22,1785093260943.8013
-0.47,-1.264,-0.071,-3.91,67.42,139.13,1785093260957.5522
-0.525,-1.192,-0.103,1.46,69.86,135.84,1785093260962.923
-0.523,-1.153,-0.15,-1.01,71.78,128.03,1785093260973.29
-0.558,-1.061,-0.18,-1.01,71.78,128.03,1785093260983.836
-0.611,-1.008,-0.223,-8.85,71.75,124.03,1785093260997.069
-0.655,-1.002,-0.266,-22.64,71.02,123.81,1785093261002.9448
-0.683,-1.001,-0.291,-36.87,73.89,122.96,1785093261013.4111
-0.711,-0.983,-0.329,-49.56,79.23,120.0,1785093261024.0251
-0.736,-0.942,-0.368,-64.21,84.29,116.95,1785093261037.291
-0.757,-0.882,-0.398,-82.28,89.88,113.68,1785093261043.19
-0.776,-0.824,-0.416,-102.82,95.89,110.97,1785093261053.822
-0.791,-0.784,-0.418,-123.91,100.83,111.39,1785093261067.159
-0.794,-0.77,-0.405,-142.67,104.07,114.47,1785093261073.117
-0.794,-0.768,-0.383,-156.25,105.78,117.89,1785093261084.0918
-0.783,-0.776,-0.346,-161.93,105.59,121.19,1785093261097.4888
-0.765,-0.809,-0.302,-156.9,102.88,123.91,1785093261103.272
-0.744,-0.855,-0.264,-140.84,97.87,125.74,1785093261114.381
-0.72,-0.881,-0.235,-114.23,91.62,126.8,1785093261127.4
-0.699,-0.865,-0.228,-77.73,84.08,126.5,1785093261133.413
-0.685,-0.834,-0.24,-34.42,74.53,126.5,1785093261143.855
-0.678,-0.79,-0.276,11.57,64.39,124.64,1785093261157.074
-0.682,-0.736,-0.321,54.84,55.45,120.03,1785093261163.137
-0.679,-0.698,-0.358,93.33,48.1,115.3,1785093261173.6782
-0.677,-0.662,-0.396,125.4,42.73,109.9,1785093261186.968
-0.677,-0.616,-0.43,149.45,39.31,104.16,1785093261192.895
-0.672,-0.581,-0.448,164.86,36.96,99.0,1785093261203.484
-0.681,-0.579,-0.451,173.01,34.24,93.78,1785093261214.375
-0.685,-0.585,-0.445,175.33,30.76,89.57,1785093261227.5432
-0.674,-0.595,-0.429,174.72,27.28,85.97,1785093261233.4878
-0.67,-0.612,-0.407,173.16,25.61,81.76,1785093261243.931
-0.673,-0.62,-0.385,168.68,23.16,78.65,1785093261257.223
-0.668,-0.607,-0.372,161.47,19.2,77.39,1785093261263.0059
-0.672,-0.59,-0.371,152.62,16.39,76.02,1785093261273.772
-0.69,-0.573,-0.369,140.66,14.8,74.28,1785093261286.928
-0.696,-0.561,-0.374,125.86,12.09,73.61,1785093261292.8489
-0.701,-0.551,-0.381,110.05,9.67,72.76,1785093261303.252
-0.71,-0.547,-0.388,93.78,7.57,71.41,1785093261313.7332
-0.725,-0.56,-0.411,77.18,6.35,69.46,1785093261324.1821
-0.754,-0.574,-0.42,58.41,5.65,67.02,1785093261337.4348
-0.778,-0.59,-0.427,38.24,4.85,64.24,1785093261343.1921
-0.801,-0.603,-0.422,18.31,4.06,61.71,1785093261353.5713
-0.814,-0.608,-0.405,0.06,3.02,59.42,1785093261363.804
-0.815,-0.601,-0.396,-15.23,1.43,57.62,1785093261374.1948
-0.813,-0.59,-0.399,-26.55,0.12,55.97,1785093261387.205
-0.815,-0.577,-0.403,-34.7,-0.79,53.65,1785093261393.043
-0.815,-0.557,-0.411,-40.62,-2.23,50.78,1785093261403.379
-0.816,-0.52,-0.399,-43.92,-4.18,48.4,1785093261414.1472
-0.807,-0.489,-0.385,-43.15,-6.23,46.91,1785093261427.084
-0.802,-0.468,-0.371,-39.34,-8.33,45.26,1785093261433.0571
-0.799,-0.457,-0.362,-33.6,-10.07,43.67,1785093261443.137
-0.798,-0.453,-0.35,-25.3,-11.6,41.26,1785093261453.648
-0.795,-0.459,-0.341,-14.04,-13.25,38.15,1785093261464.4521
-0.8,-0.466,-0.345,-0.46,-14.71,35.04,1785093261477.505
-0.805,-0.465,-0.353,13.82,-15.75,32.87,1785093261483.4502
-0.811,-0.456,-0.358,27.34,-16.69,32.38,1785093261493.6353
-0.812,-0.439,-0.361,40.07,-17.67,32.59,1785093261504.142
-0.819,-0.429,-0.363,52.25,-18.37,32.26,1785093261517.441
-0.829,-0.421,-0.361,63.26,-18.86,32.17,1785093261523.316
-0.837,-0.412,-0.363,72.57,-19.07,32.53,1785093261533.896
-0.844,-0.397,-0.361,79.35,-19.1,33.02,1785093261544.148
-0.852,-0.383,-0.356,83.5,-19.29,33.51,1785093261557.3782
-0.856,-0.373,-0.353,84.96,-19.44,34.15,1785093261563.283
-0.855,-0.368,-0.35,84.17,-19.07,34.49,1785093261573.6133
-0.882,-0.348,-0.346,81.18,-18.77,34.36,1785093261584.175
-0.875,-0.354,-0.345,77.12,-19.1,36.93,1785093261597.6191
-0.874,-0.341,-0.346,70.41,-19.81,37.39,1785093261603.352
-0.877,-0.336,-0.351,62.47,-19.01,36.71,1785093261613.538
-0.884,-0.335,-0.355,53.44,-18.07,35.34,1785093261624.165
-0.89,-0.336,-0.348,43.95,-16.79,33.94,1785093261637.383
-0.892,-0.344,-0.343,34.42,-15.66,32.59,1785093261643.34
-0.899,-0.342,-0.338,24.87,-15.02,31.37,1785093261653.8298
-0.9,-0.343,-0.334,15.84,-14.53,30.49,1785093261664.171
-0.897,-0.342,-0.325,7.57,-13.92,29.51,1785093261677.351
-0.902,-0.338,-0.315,0.73,-13.15,27.56,1785093261683.213
-0.904,-0.339,-0.305,-4.12,-12.57,25.21,1785093261693.3
-0.906,-0.341,-0.296,-7.54,-12.48,22.64,1785093261703.826
-0.905,-0.34,-0.288,-9.49,-12.39,19.78,1785093261716.912
-0.909,-0.337,-0.285,-10.25,-12.57,16.82,1785093261722.572
-0.908,-0.338,-0.282,-9.92,-12.91,14.07,1785093261732.867
-0.911,-0.338,-0.281,-8.94,-12.91,11.02,1785093261743.415
-0.914,-0.335,-0.277,-7.97,-13.37,8.61,1785093261753.7222
-0.912,-0.332,-0.282,-7.75,-13.92,5.98,1785093261766.948
-0.911,-0.328,-0.294,-8.27,-14.13,3.39,1785093261772.404
-0.911,-0.325,-0.305,-9.52,-14.19,0.92,1785093261782.6711
-0.911,-0.32,-0.311,-11.14,-13.92,-1.28,1785093261793.164
-0.909,-0.314,-0.313,-12.97,-13.43,-3.54,1785093261803.606
-0.907,-0.309,-0.308,-14.5,-12.7,-5.58,1785093261820.04
-0.904,-0.308,-0.298,-14.95,-11.9,-7.23,1785093261827.366
-0.9,-0.307,-0.287,-14.16,-11.23,-8.58,1785093261832.876
-0.895,-0.305,-0.282,-12.7,-10.71,-9.92,1785093261843.382
-0.893,-0.302,-0.277,-11.11,-10.16,-10.93,1785093261854.02
-0.897,-0.3,-0.274,-9.49,-9.89,-11.63,1785093261867.319
-0.901,-0.298,-0.273,-8.33,-9.83,-12.12,1785093261872.98
-0.901,-0.296,-0.277,-7.26,-9.61,-12.24,1785093261882.742
-0.897,-0.293,-0.281,-5.98,-9.09,-12.12,1785093261893.423
-0.892,-0.289,-0.285,-4.55,-8.55,-12.02,1785093261903.6548
-0.889,-0.288,-0.283,-3.2,-8.09,-11.78,1785093261914.078
-0.887,-0.287,-0.28,-2.26,-7.72,-11.32,1785093261927.418
-0.886,-0.286,-0.28,-1.65,-7.66,-10.93,1785093261932.7659
-0.884,-0.285,-0.277,-1.37,-7.54,-10.13,1785093261942.7239
-0.883,-0.278,-0.277,-1.34,-7.66,-9.25,1785093261953.269
-0.882,-0.275,-0.281,-1.89,-8.09,-8.48,1785093261963.5789
-0.882,-0.273,-0.286,-3.11,-8.45,-8.24,1785093261973.839
-0.886,-0.275,-0.292,-5.19,-8.39,-7.9,1785093261984.235
-0.888,-0.272,-0.294,-6.81,-8.24,-7.23,1785093261997.64
-0.89,-0.27,-0.291,-7.84,-8.15,-6.59,1785093262003.0798
-0.892,-0.271,-0.288,-8.97,-7.84,-6.16,1785093262012.79
-0.897,-0.271,-0.29,-10.83,-7.97,-5.95,1785093262023.194
-0.893,-0.27,-0.291,-12.7,-8.36,-5.25,1785093262033.582
-0.892,-0.267,-0.295,-14.37,-8.21,-5.07,1785093262043.9832
-0.893,-0.278,-0.292,-15.72,-8.0,-4.76,1785093262057.217
-0.895,-0.284,-0.285,-15.84,-7.51,-4.03,1785093262063.0688
-0.897,-0.277,-0.286,-15.32,-6.99,-3.57,1785093262072.933
-0.896,-0.28,-0.284,-14.56,-6.23,-2.9,1785093262083.278
-0.898,-0.283,-0.278,-13.12,-5.19,-2.66,1785093262093.671
-0.898,-0.283,-0.271,-11.26,-4.21,-2.01,1785093262104.0159
-0.898,-0.286,-0.266,-9.19,-3.45,-1.04,1785093262117.331
-0.897,-0.284,-0.262,-7.78,-2.69,-0.37,1785093262122.887
-0.899,-0.286,-0.26,-6.62,-2.35,0.43,1785093262132.707
-0.901,-0.282,-0.259,-5.74,-2.35,0.37,1785093262142.942
-0.897,-0.287,-0.257,-5.13,-2.17,0.64,1785093262153.129
-0.901,-0.29,-0.254,-4.67,-2.04,0.92,1785093262163.6028
-0.903,-0.291,-0.254,-4.15,-2.23,1.01,1785093262173.8748
-0.899,-0.283,-0.252,-3.69,-2.53,0.92,1785093262184.191
-0.901,-0.285,-0.249,-3.91,-2.78,1.16,1785093262197.6067
-0.905,-0.284,-0.25,-4.67,-3.17,0.92,1785093262202.95
-0.907,-0.282,-0.251,-6.1,-3.85,0.55,1785093262212.826
-0.907,-0.282,-0.251,-8.45,-4.33,0.31,1785093262223.0972
-0.907,-0.279,-0.249,-11.17,-4.67,0.0,1785093262233.529
-0.908,-0.28,-0.246,-13.46,-5.16,0.06,1785093262243.899
-0.907,-0.288,-0.245,-15.5,-5.52,0.15,1785093262257.152
-0.909,-0.293,-0.243,-16.97,-6.04,0.49,1785093262262.795
-0.906,-0.297,-0.24,-16.97,-6.04,0.49,1785093262272.824
-0.907,-0.298,-0.24,-18.28,-6.41,0.76,1785093262283.2188
-0.905,-0.298,-0.238,-19.44,-6.81,1.1,1785093262293.626
-0.904,-0.298,-0.234,-20.42,-7.08,1.53,1785093262303.981
-0.909,-0.298,-0.232,-21.12,-7.08,1.65,1785093262317.2578
-0.91,-0.296,-0.229,-21.73,-7.29,1.77,1785093262322.881
-0.911,-0.295,-0.227,-22.34,-7.69,1.83,1785093262332.901
-0.912,-0.297,-0.228,-22.83,-7.9,1.89,1785093262343.237
-0.911,-0.298,-0.227,-22.83,-7.93,1.89,1785093262353.4907
-0.91,-0.299,-0.228,-22.52,-8.12,1.8,1785093262364.236
-0.909,-0.298,-0.227,-22.16,-8.27,1.65,1785093262377.2988
-0.913,-0.297,-0.226,-21.97,-8.33,1.59,1785093262383.127
-0.916,-0.294,-0.226,-21.94,-8.58,1.56,1785093262392.956
-0.917,-0.294,-0.229,-22.52,-8.79,1.46,1785093262403.351
-0.915,-0.294,-0.228,-23.04,-8.97,1.46,1785093262414.054
-0.915,-0.295,-0.232,-23.32,-9.09,1.34,1785093262424.104
-0.914,-0.297,-0.235,-23.65,-9.19,1.22,1785093262437.34
-0.911,-0.295,-0.236,-24.05,-9.28,0.95,1785093262442.978
-0.91,-0.295,-0.234,-24.29,-9.4,0.73,1785093262453.045
-0.908,-0.296,-0.233,-24.45,-9.4,0.55,1785093262463.434
-0.905,-0.296,-0.231,-24.63,-9.4,0.27,1785093262473.638
-0.904,-0.295,-0.231,-24.63,-9.4,-0.09,1785093262484.236
-0.903,-0.296,-0.232,-24.11,-9.31,-0.55,1785093262497.543
-0.901,-0.298,-0.231,-23.29,-9.43,-1.19,1785093262503.103
