ax,ay,az,gx,gy,gz,timestamp_ms
-0.888,-0.262,-0.295,16.6,7.29,-13.7,1785093338484.564
-0.89,-0.263,-0.294,14.1,6.44,-13.52,1785093338537.803
-0.89,-0.262,-0.293,11.44,5.52,-13.18,1785093338538.063
-0.888,-0.262,-0.291,8.48,4.49,-12.48,1785093338538.312
-0.887,-0.261,-0.286,5.22,3.45,-11.17,1785093338538.566
-0.885,-0.262,-0.282,2.17,2.53,-9.4,1785093338538.819
-0.88,-0.268,-0.279,-0.18,1.65,-7.63,1785093338539.0679
-0.881,-0.272,-0.284,-2.23,0.85,-5.71,1785093338539.32
-0.879,-0.277,-0.282,-4.06,0.21,-3.48,1785093338539.573
-0.876,-0.28,-0.276,-5.52,-0.21,-1.13,1785093338539.808
-0.879,-0.284,-0.27,-6.29,-0.52,0.95,1785093338540.052
-0.883,-0.288,-0.265,-6.32,-1.04,3.3,1785093338540.278
-0.883,-0.291,-0.26,-5.92,-1.31,5.71,1785093338540.502
-0.878,-0.293,-0.257,-5.1,-1.62,7.69,1785093338540.715
-0.877,-0.295,-0.255,-3.91,-1.89,9.49,1785093338540.941
-0.879,-0.299,-0.252,-2.38,-2.01,10.77,1785093338541.19
-0.878,-0.301,-0.253,-0.73,-2.26,11.99,1785093338541.406
-0.877,-0.308,-0.253,1.16,-2.5,13.06,1785093338541.6262
-0.878,-0.312,-0.254,3.14,-2.69,13.76,1785093338541.866
-0.88,-0.317,-0.256,5.01,-2.87,14.22,1785093338542.1272
-0.882,-0.317,-0.259,6.62,-3.02,14.62,1785093338542.4167
-0.884,-0.319,-0.258,7.84,-3.3,15.02,1785093338542.677
-0.888,-0.32,-0.257,8.79,-3.66,15.14,1785093338542.9438
-0.891,-0.322,-0.257,9.55,-4.21,14.89,1785093338543.1921
-0.892,-0.322,-0.257,9.86,-4.82,14.5,1785093338543.458
-0.89,-0.322,-0.259,9.95,-5.28,14.04,1785093338543.7288
-0.893,-0.319,-0.259,9.64,-5.92,13.34,1785093338543.9841
-0.895,-0.318,-0.263,8.82,-6.5,12.24,1785093338544.22
-0.894,-0.318,-0.269,7.6,-7.02,11.05,1785093338544.468
-0.895,-0.315,-0.269,5.95,-7.45,9.8,1785093338544.6921
-0.898,-0.315,-0.274,4.09,-7.97,8.91,1785093338544.919
-0.898,-0.317,-0.275,2.35,-8.21,7.75,1785093338545.145
-0.898,-0.32,-0.274,1.01,-8.45,6.68,1785093338545.366
-0.896,-0.321,-0.275,-0.15,-8.58,5.83,1785093338545.597
-0.895,-0.321,-0.273,-0.79,-8.7,4.94,1785093338545.8228
-0.893,-0.322,-0.273,-1.13,-8.76,4.12,1785093338546.0469
-0.889,-0.32,-0.274,-0.95,-8.67,3.36,1785093338546.2568
-0.888,-0.318,-0.271,-0.49,-8.55,2.66,1785093338546.4958
-0.887,-0.318,-0.27,0.46,-8.42,1.83,1785093338546.7478
-0.887,-0.315,-0.268,1.77,-8.33,1.25,1785093338546.956
-0.887,-0.313,-0.27,3.05,-8.27,0.7,1785093338547.188
-0.888,-0.311,-0.275,4.12,-8.06,0.18,1785093338547.3972
-0.888,-0.309,-0.278,4.76,-8.06,-0.09,1785093338547.607
-0.888,-0.308,-0.28,5.01,-7.9,-0.27,1785093338547.836
-0.889,-0.307,-0.281,5.01,-7.72,-0.24,1785093338548.0508
-0.892,-0.308,-0.283,5.68,-7.48,-0.21,1785093338548.2603
-0.894,-0.319,-0.283,7.93,-7.45,-0.61,1785093338548.474
-0.895,-0.32,-0.287,10.47,-7.57,-1.25,1785093338548.688
-0.897,-0.309,-0.29,12.05,-7.14,-1.43,1785093338548.903
-0.905,-0.305,-0.289,12.7,-6.44,-0.82,1785093338549.115
-0.903,-0.311,-0.292,12.76,-6.35,-0.55,1785093338549.33
-0.905,-0.302,-0.293,11.44,-6.47,-0.79,1785093338549.54
-0.905,-0.304,-0.295,9.74,-6.35,-0.4,1785093338549.737
-0.906,-0.308,-0.295,8.15,-5.65,-0.34,1785093338549.944
-0.91,-0.31,-0.298,6.87,-5.1,-0.09,1785093338550.1492
-0.91,-0.311,-0.298,5.77,-4.79,0.0,1785093338550.35
-0.908,-0.304,-0.296,4.39,-4.36,-0.06,1785093338550.5522
-0.905,-0.304,-0.296,3.05,-3.88,0.24,1785093338550.757
-0.907,-0.305,-0.29,1.83,-3.23,0.15,1785093338550.953
-0.913,-0.306,-0.283,0.85,-2.9,0.27,1785093338551.177
-0.913,-0.302,-0.278,0.34,-2.56,0.58,1785093338551.382
-0.913,-0.299,-0.274,-0.34,-2.38,1.04,1785093338551.5818
-0.908,-0.3,-0.273,-1.07,-1.77,1.59,1785093338551.784
-0.908,-0.3,-0.273,-1.77,-1.1,1.98,1785093338551.991
-0.907,-0.302,-0.27,-2.47,-0.64,2.23,1785093338552.2239
-0.905,-0.301,-0.268,-3.45,-0.37,2.32,1785093338552.4302
-0.903,-0.301,-0.269,-4.43,-0.15,2.5,1785093338552.637
-0.902,-0.297,-0.271,-5.68,0.21,2.5,1785093338552.841
-0.902,-0.297,-0.27,-5.68,0.21,2.5,1785093338553.0398
-0.901,-0.298,-0.268,-7.02,0.58,2.53,1785093338553.2449
-0.901,-0.292,-0.267,-8.3,0.98,2.81,1785093338553.449
-0.9,-0.295,-0.265,-9.49,1.31,3.02,1785093338553.647
-0.902,-0.296,-0.261,-10.28,1.68,2.59,1785093338553.854
-0.902,-0.294,-0.255,-10.56,1.65,2.41,1785093338554.053
-0.901,-0.296,-0.249,-10.71,1.74,2.26,1785093338554.2468
-0.903,-0.296,-0.248,-10.56,1.8,1.86,1785093338554.445
-0.905,-0.295,-0.249,-10.16,1.86,1.74,1785093338554.646
-0.905,-0.294,-0.246,-9.55,1.8,1.77,1785093338554.834
-0.903,-0.294,-0.247,-8.91,1.74,1.5,1785093338555.0498
-0.904,-0.297,-0.248,-8.27,1.62,1.31,1785093338555.244
-0.904,-0.296,-0.246,-7.6,1.56,1.01,1785093338555.435
-0.901,-0.291,-0.248,-6.96,1.65,0.98,1785093338555.624
-0.9,-0.293,-0.248,-6.16,1.83,1.22,1785093338555.82
-0.901,-0.292,-0.248,-4.88,2.11,1.04,1785093338556.0151
-0.9,-0.291,-0.245,-2.99,2.47,0.95,1785093338556.202
-0.899,-0.29,-0.241,-0.46,2.56,1.19,1785093338556.4011
-0.902,-0.292,-0.234,2.26,2.72,1.16,1785093338556.597
-0.905,-0.292,-0.231,5.1,2.81,1.22,1785093338556.792
-0.907,-0.292,-0.229,7.63,2.69,1.77,1785093338556.989
-0.907,-0.292,-0.23,9.52,2.35,2.32,1785093338557.184
-0.906,-0.287,-0.234,10.68,2.01,3.08,1785093338557.394
-0.906,-0.282,-0.239,10.86,1.59,3.72,1785093338557.592
-0.909,-0.279,-0.243,10.07,1.07,3.97,1785093338557.853
-0.907,-0.281,-0.246,8.39,0.61,4.21,1785093338558.082
-0.906,-0.281,-0.25,6.13,0.18,4.49,1785093338558.294
-0.907,-0.282,-0.254,3.66,-0.15,4.52,1785093338558.5332
-0.906,-0.286,-0.253,1.34,-0.4,4.58,1785093338558.772
-0.906,-0.287,-0.251,-0.85,-0.98,4.7,1785093338558.988
-0.907,-0.292,-0.252,-2.72,-1.4,4.94,1785093338559.2058
-0.908,-0.295,-0.251,-4.36,-1.83,5.1,1785093338559.402
-0.906,-0.297,-0.251,-5.95,-2.29,5.13,1785093338559.587
-0.904,-0.295,-0.253,-7.23,-2.69,5.25,1785093338559.781
-0.904,-0.298,-0.252,-8.21,-2.99,5.19,1785093338559.967
-0.904,-0.3,-0.252,-8.79,-3.08,4.88,1785093338560.148
-0.905,-0.299,-0.252,-9.19,-3.14,4.39,1785093338560.3381
-0.902,-0.298,-0.25,-9.43,-3.17,4.12,1785093338560.535
-0.9,-0.295,-0.25,-9.37,-2.99,3.66,1785093338560.7158
-0.899,-0.294,-0.248,-9.28,-2.99,3.27,1785093338560.905
-0.898,-0.3,-0.249,-9.16,-2.9,2.75,1785093338561.095
-0.903,-0.299,-0.247,-9.22,-3.05,2.08,1785093338561.2969
-0.907,-0.301,-0.248,-8.45,-2.84,1.53,1785093338561.486
-0.908,-0.305,-0.248,-7.35,-2.69,0.98,1785093338561.6719
-0.909,-0.304,-0.25,-6.13,-2.66,0.49,1785093338561.853
-0.904,-0.298,-0.252,-5.07,-2.47,0.12,1785093338562.0378
-0.901,-0.296,-0.251,-4.52,-2.41,-0.43,1785093338562.222
-0.902,-0.294,-0.252,-4.27,-2.44,-1.04,1785093338562.402
-0.9,-0.292,-0.251,-4.09,-2.59,-1.5,1785093338562.5842
-0.9,-0.29,-0.251,-4.36,-2.75,-2.01,1785093338562.85
-0.899,-0.291,-0.25,-4.79,-2.75,-2.47,1785093338563.039
-0.9,-0.294,-0.252,-5.19,-2.84,-2.99,1785093338563.2373
-0.9,-0.292,-0.257,-5.55,-2.9,-3.33,1785093338563.4219
-0.897,-0.292,-0.258,-5.95,-2.84,-3.69,1785093338563.624
-0.898,-0.29,-0.256,-6.29,-2.9,-4.15,1785093338563.801
-0.902,-0.286,-0.253,-6.62,-2.96,-4.36,1785093338563.9849
-0.905,-0.291,-0.252,-6.59,-2.99,-4.39,1785093338564.185
-0.904,-0.292,-0.25,-6.35,-3.08,-4.73,1785093338564.359
-0.903,-0.29,-0.252,-6.04,-3.02,-5.04,1785093338564.542
-0.906,-0.277,-0.264,-6.23,-2.78,-4.97,1785093338564.723
-0.909,-0.269,-0.263,-6.53,-2.01,-4.46,1785093338564.897
-0.911,-0.273,-0.256,-5.52,-2.11,-4.24,1785093338565.076
-0.912,-0.275,-0.256,-5.71,-2.59,-5.19,1785093338565.2559
-0.913,-0.282,-0.254,-7.45,-2.81,-6.01,1785093338565.433
-0.913,-0.298,-0.246,-8.58,-3.05,-5.74,1785093338565.6099
-0.917,-0.311,-0.25,-8.42,-3.08,-5.28,1785093338565.7869
-0.921,-0.305,-0.253,-7.42,-3.05,-4.88,1785093338565.967
-0.923,-0.294,-0.261,-6.71,-2.96,-4.09,1785093338566.143
-0.916,-0.283,-0.265,-7.29,-2.41,-3.54,1785093338566.326
-0.913,-0.283,-0.263,-8.09,-1.83,-3.05,1785093338566.505
-0.909,-0.285,-0.259,-8.85,-1.56,-2.72,1785093338566.68
-0.906,-0.287,-0.253,-8.79,-1.1,-2.59,1785093338566.859
-0.904,-0.287,-0.249,-7.81,-0.58,-2.47,1785093338567.0369
-0.901,-0.285,-0.247,-6.5,-0.31,-2.75,1785093338567.209
-0.898,-0.282,-0.25,-4.79,0.12,-2.81,1785093338567.393
-0.9,-0.274,-0.251,-3.78,0.46,-3.02,1785093338567.5762
-0.903,-0.268,-0.252,-3.57,0.43,-3.17,1785093338567.749
-0.904,-0.264,-0.254,-3.72,0.61,-3.39,1785093338567.9329
-0.905,-0.269,-0.259,-3.88,1.04,-3.78,1785093338568.1282
-0.907,-0.272,-0.26,-4.3,1.25,-4.06,1785093338568.299
-0.907,-0.273,-0.261,-4.61,1.46,-4.06,1785093338568.479
-0.906,-0.276,-0.256,-4.58,1.71,-3.6,1785093338568.659
-0.909,-0.276,-0.253,-4.21,1.86,-3.27,1785093338568.831
-0.913,-0.275,-0.252,-3.6,1.68,-2.96,1785093338569.013
-0.92,-0.276,-0.252,-2.9,1.46,-2.5,1785093338569.195
-0.926,-0.275,-0.254,-2.59,1.4,-2.26,1785093338569.37
-0.925,-0.276,-0.257,-2.69,1.43,-1.62,1785093338569.574
-0.927,-0.272,-0.261,-3.3,1.34,-0.89,1785093338569.791
-0.928,-0.274,-0.264,-4.15,1.5,-0.24,1785093338569.99
-0.932,-0.275,-0.26,-4.79,1.71,-0.43,1785093338570.185
-0.944,-0.275,-0.258,-5.95,1.37,-0.09,1785093338570.3882
-0.957,-0.271,-0.263,-7.63,1.01,0.64,1785093338570.5862
-0.96,-0.272,-0.269,-9.06,1.1,1.25,1785093338570.782
-0.955,-0.275,-0.273,-10.25,1.56,1.31,1785093338570.969
-0.947,-0.278,-0.276,-11.05,1.92,1.01,1785093338571.1602
-0.937,-0.278,-0.274,-11.63,2.47,0.95,1785093338571.338
-0.926,-0.279,-0.271,-11.63,3.14,0.73,1785093338571.5298
-0.918,-0.28,-0.265,-11.02,3.6,0.27,1785093338571.714
-0.909,-0.277,-0.263,-10.07,3.78,-0.31,1785093338571.885
-0.902,-0.272,-0.261,-8.82,4.21,-0.82,1785093338572.064
-0.899,-0.266,-0.26,-6.81,4.82,-1.56,1785093338572.2449
-0.895,-0.263,-0.262,-4.33,5.28,-2.59,1785093338572.413
-0.891,-0.256,-0.262,-2.08,5.68,-3.63,1785093338572.591
-0.889,-0.252,-0.262,0.18,5.92,-4.64,1785093338572.768
-0.893,-0.252,-0.26,2.23,5.98,-5.37,1785093338572.9412
-0.902,-0.251,-0.263,3.85,5.83,-5.52,1785093338573.133
-0.91,-0.245,-0.269,4.61,5.77,-5.04,1785093338573.3062
-0.907,-0.244,-0.282,3.57,6.1,-4.18,1785093338573.662
-0.903,-0.24,-0.283,2.29,6.23,-3.57,1785093338573.834
-1.345,-0.743,-0.039,51.06,2.84,-36.01,1785093338574.2102
-1.367,-0.716,-0.122,70.68,-3.17,-36.53,1785093338574.381
-1.338,-0.647,-0.246,80.32,-8.58,-31.1,1785093338574.556
-1.245,-0.576,-0.358,73.46,-14.28,-23.41,1785093338584.448
-1.148,-0.548,-0.429,54.29,-19.96,-15.99,1785093338595.0288
-1.075,-0.557,-0.483,26.09,-25.51,-9.95,1785093338608.2307
-1.012,-0.574,-0.49,-5.43,-28.53,-3.3,1785093338613.729
-0.976,-0.615,-0.442,-29.45,-28.6,3.23,1785093338624.1018
-0.958,-0.655,-0.373,-40.22,-26.58,8.85,1785093338634.5688
-0.955,-0.67,-0.305,-39.49,-25.39,13.06,1785093338645.1199
-0.932,-0.699,-0.238,-29.42,-26.89,17.43,1785093338658.349
-0.871,-0.732,-0.235,-12.63,-31.43,19.17,1785093338663.9968
-0.8,-0.756,-0.282,8.3,-35.92,19.71,1785093338674.497
-0.766,-0.781,-0.333,27.41,-41.23,21.3,1785093338685.053
-0.772,-0.78,-0.371,40.47,-46.66,22.34,1785093338698.3289
-0.784,-0.774,-0.383,47.18,-51.15,25.27,1785093338703.9922
-0.776,-0.756,-0.382,49.62,-55.42,29.51,1785093338714.519
-0.752,-0.711,-0.386,50.08,-58.29,33.45,1785093338725.086
-0.726,-0.64,-0.375,47.03,-60.34,38.03,1785093338738.3318
-0.654,-0.621,-0.369,39.95,-64.36,42.05,1785093338744.0269
-0.531,-0.578,-0.384,27.5,-66.68,41.6,1785093338754.5522
-0.457,-0.555,-0.373,16.72,-65.22,42.39,1785093338765.102
-0.434,-0.604,-0.326,10.83,-64.94,44.92,1785093338778.375
-0.458,-0.633,-0.279,5.71,-67.72,44.1,1785093338784.0938
-0.493,-0.635,-0.279,-0.09,-71.23,43.12,1785093338794.577
-0.497,-0.623,-0.359,-6.65,-73.21,43.34,1785093338805.0198
-0.466,-0.591,-0.472,-13.7,-72.63,44.01,1785093338815.5498
-0.435,-0.537,-0.532,-22.86,-70.56,45.99,1785093338828.8372
-0.412,-0.511,-0.528,-34.3,-68.94,48.46,1785093338834.5332
-0.399,-0.543,-0.456,-45.78,-68.06,48.83,1785093338845.028
-0.399,-0.622,-0.34,-53.29,-68.33,46.85,1785093338855.592
-0.401,-0.706,-0.254,-53.13,-69.46,43.12,1785093338868.798
-0.386,-0.739,-0.268,-45.81,-69.77,39.64,1785093338874.3857
-0.346,-0.707,-0.375,-35.62,-67.35,37.26,1785093338884.954
-0.33,-0.63,-0.466,-28.63,-62.23,35.13,1785093338895.614
-0.364,-0.587,-0.502,-27.53,-56.31,31.89,1785093338908.833
-0.404,-0.604,-0.466,-31.22,-52.03,26.98,1785093338914.724
-0.44,-0.64,-0.376,-35.68,-49.47,21.45,1785093338925.004
-0.483,-0.676,-0.293,-36.1,-48.49,17.7,1785093338935.311
-0.506,-0.715,-0.287,-31.16,-47.98,16.21,1785093338948.611
-0.487,-0.729,-0.379,-22.52,-45.53,16.42,1785093338954.653
-0.469,-0.705,-0.491,-13.25,-40.38,17.76,1785093338964.8298
-0.511,-0.669,-0.543,-5.46,-34.15,18.43,1785093338975.337
-0.572,-0.653,-0.519,-1.4,-29.24,17.52,1785093338988.727
-0.619,-0.663,-0.439,0.37,-26.18,15.02,1785093338994.7698
-0.653,-0.683,-0.34,3.23,-24.93,12.45,1785093339004.648
-0.696,-0.697,-0.257,8.55,-24.96,11.29,1785093339015.1912
-0.745,-0.71,-0.201,15.75,-26.12,12.97,1785093339028.4102
-0.77,-0.724,-0.213,23.83,-27.71,15.2,1785093339034.377
-0.741,-0.704,-0.323,30.82,-27.99,17.43,1785093339044.5981
-0.706,-0.633,-0.425,32.72,-25.51,19.47,1785093339055.1482
-0.709,-0.57,-0.455,28.38,-22.55,19.93,1785093339068.4092
-0.733,-0.557,-0.43,18.89,-21.0,17.58,1785093339074.334
-0.756,-0.578,-0.367,7.66,-20.51,14.59,1785093339084.361
-0.765,-0.598,-0.293,-1.89,-20.42,11.99,1785093339094.914
-0.778,-0.617,-0.229,-7.75,-20.45,9.7,1785093339105.367
-0.789,-0.635,-0.191,-10.93,-21.45,8.24,1785093339118.634
-0.788,-0.639,-0.184,-11.02,-23.26,7.72,1785093339124.205
-0.776,-0.63,-0.231,-6.71,-24.38,6.29,1785093339134.4321
-0.757,-0.595,-0.326,-0.15,-23.26,3.42,1785093339144.835
-0.752,-0.548,-0.375,5.22,-19.38,0.18,1785093339155.2542
-0.756,-0.527,-0.346,9.52,-15.32,-2.84,1785093339165.5723
-0.766,-0.532,-0.277,13.61,-12.24,-6.41,1785093339178.8079
-0.767,-0.533,-0.21,18.31,-10.65,-8.33,1785093339184.723
-0.762,-0.534,-0.171,23.59,-9.64,-7.75,1785093339194.787
-0.761,-0.528,-0.161,27.65,-8.7,-7.23,1785093339205.075
-0.76,-0.516,-0.179,29.05,-7.93,-6.99,1785093339215.564
-0.766,-0.51,-0.198,28.32,-7.54,-6.47,1785093339228.82
-0.789,-0.502,-0.213,26.73,-8.21,-6.04,1785093339234.014
-0.803,-0.49,-0.22,24.54,-10.22,-4.61,1785093339244.3071
-0.803,-0.49,-0.22,22.77,-12.33,-3.33,1785093339254.7478
-0.798,-0.49,-0.249,20.54,-13.31,-3.17,1785093339265.439
-0.794,-0.48,-0.275,16.97,-13.55,-2.01,1785093339278.6501
-0.803,-0.466,-0.283,10.32,-14.01,0.12,1785093339284.689
-0.817,-0.457,-0.274,10.32,-14.01,0.12,1785093339294.6719
-0.822,-0.451,-0.248,0.55,-14.37,2.53,1785093339304.93
-0.823,-0.463,-0.218,-8.21,-14.22,4.0,1785093339315.391
-0.837,-0.484,-0.19,-14.83,-13.98,5.68,1785093339328.676
-0.839,-0.518,-0.168,-19.38,-15.38,9.49,1785093339334.502
-0.841,-0.531,-0.147,-19.2,-13.73,9.46,1785093339344.699
-0.862,-0.531,-0.148,-18.04,-13.03,9.77,1785093339355.0598
-0.864,-0.538,-0.148,-16.45,-13.46,11.35,1785093339365.434
-0.867,-0.55,-0.14,-10.01,-12.27,11.63,1785093339378.824
-0.866,-0.539,-0.142,-0.92,-10.77,10.56,1785093339384.792
-0.854,-0.512,-0.141,6.59,-9.28,10.16,1785093339394.63
-0.846,-0.49,-0.134,12.21,-7.63,9.22,1785093339404.9978
-0.843,-0.492,-0.129,16.24,-6.44,9.13,1785093339415.566
-0.835,-0.502,-0.114,20.05,-5.31,10.44,1785093339428.763
-0.822,-0.503,-0.101,25.3,-3.75,11.44,1785093339434.6602
-0.821,-0.494,-0.104,31.28,-2.01,11.23,1785093339444.733
-0.827,-0.478,-0.114,36.93,-0.4,11.08,1785093339455.168
-0.829,-0.467,-0.13,41.23,0.7,11.96,1785093339468.405
-0.827,-0.459,-0.151,44.53,2.53,13.21,1785093339474.2488
-0.827,-0.45,-0.171,47.49,4.94,14.65,1785093339484.347
-0.833,-0.436,-0.177,50.54,7.97,14.95,1785093339494.962
-0.848,-0.432,-0.172,52.77,10.9,16.21,1785093339505.397
-0.856,-0.436,-0.159,53.96,13.55,17.64,1785093339518.6309
-0.865,-0.443,-0.144,55.48,16.08,18.74,1785093339524.737
-0.849,-0.459,-0.149,59.27,18.22,20.48,1785093339534.9077
-0.842,-0.459,-0.184,65.49,21.12,21.64,1785093339545.383
-0.842,-0.464,-0.244,72.6,24.17,24.05,1785093339558.458
-0.851,-0.44,-0.289,78.89,28.66,23.96,1785093339564.4119
-0.878,-0.427,-0.296,84.96,33.2,23.5,1785093339574.73
-0.879,-0.454,-0.267,92.99,37.11,24.72,1785093339585.4238
-0.883,-0.509,-0.247,107.58,41.44,23.1,1785093339598.675
-0.911,-0.514,-0.256,126.22,46.57,21.73,1785093339604.552
-0.922,-0.467,-0.267,142.67,52.1,23.56,1785093339614.974
-0.917,-0.399,-0.298,153.57,57.92,25.33,1785093339628.4521
-0.901,-0.347,-0.334,155.71,64.39,26.61,1785093339634.035
-0.899,-0.333,-0.355,149.42,69.98,26.28,1785093339645.09
-0.924,-0.34,-0.368,137.39,74.28,24.45,1785093339655.5632
-0.952,-0.365,-0.365,122.53,77.97,22.95,1785093339668.708
-0.974,-0.408,-0.368,109.96,81.09,20.94,1785093339674.757
-0.985,-0.442,-0.37,101.57,83.65,19.56,1785093339685.254
-0.989,-0.463,-0.39,98.64,86.55,19.04,1785093339698.2542
-0.991,-0.46,-0.417,99.03,89.97,20.11,1785093339704.227
-0.98,-0.448,-0.447,100.62,93.57,21.21,1785093339714.7
-0.988,-0.449,-0.452,102.39,96.74,20.78,1785093339725.1023
-1.005,-0.46,-0.455,102.54,99.37,19.81,1785093339738.585
-1.018,-0.479,-0.438,101.93,102.36,17.85,1785093339744.54
-1.009,-0.498,-0.443,102.45,105.11,15.2,1785093339755.096
-0.998,-0.509,-0.464,103.27,108.07,12.15,1785093339768.238
-0.996,-0.505,-0.493,101.81,110.87,8.97,1785093339774.411
-1.004,-0.492,-0.507,96.62,113.32,5.55,1785093339784.909
-1.018,-0.496,-0.532,88.66,115.33,2.32,1785093339795.3137
-1.033,-0.518,-0.577,78.28,117.74,-0.46,1785093339808.703
-1.055,-0.552,-0.603,67.93,120.76,-2.75,1785093339814.6902
-1.07,-0.58,-0.603,59.82,124.18,-4.36,1785093339824.927
-1.09,-0.612,-0.553,56.89,127.75,-5.46,1785093339835.317
-1.086,-0.631,-0.532,58.44,130.34,-5.83,1785093339848.691
-1.076,-0.641,-0.535,61.62,133.52,-5.49,1785093339854.398
-1.072,-0.655,-0.547,64.33,136.94,-5.86,1785093339864.865
-1.078,-0.674,-0.56,65.28,140.26,-7.14,1785093339875.3281
-1.087,-0.699,-0.588,64.85,143.5,-8.76,1785093339888.8418
-1.08,-0.739,-0.635,66.01,148.78,-11.32,1785093339894.766
-1.061,-0.762,-0.661,69.95,156.41,-14.53,1785093339904.9011
-1.048,-0.777,-0.631,79.26,164.83,-16.6,1785093339918.3472
-1.063,-0.811,-0.554,94.55,170.57,-18.46,1785093339924.219
-1.104,-0.835,-0.506,110.35,173.04,-19.78,1785093339934.687
-1.12,-0.848,-0.489,119.66,173.04,-17.91,1785093339945.847
-1.112,-0.865,-0.485,123.69,175.15,-17.46,1785093339958.894
-1.095,-0.884,-0.486,121.59,176.37,-19.01,1785093339964.9248
-1.083,-0.957,-0.46,120.76,177.95,-22.77,1785093339975.403
-1.086,-1.087,-0.483,126.29,177.22,-30.46,1785093339988.842
-1.091,-1.165,-0.49,133.58,174.38,-39.58,1785093339994.4583
-1.094,-1.154,-0.485,139.65,170.48,-48.8,1785093340005.6401
-1.087,-1.088,-0.487,141.39,166.05,-57.92,1785093340018.79
-1.086,-1.011,-0.515,135.53,160.71,-66.41,1785093340024.76
-1.084,-0.92,-0.547,122.17,154.73,-73.73,1785093340035.515
-1.073,-0.871,-0.556,107.21,148.29,-81.7,1785093340048.801
-1.047,-0.841,-0.53,89.42,141.51,-91.4,1785093340054.699
-1.023,-0.879,-0.482,71.72,135.23,-101.78,1785093340065.4368
-1.02,-1.002,-0.449,59.94,128.97,-112.49,1785093340078.6262
-1.033,-1.095,-0.419,54.35,123.91,-120.85,1785093340084.596
-1.015,-1.131,-0.392,56.92,120.18,-125.16,1785093340095.369
-0.973,-1.111,-0.386,64.82,117.22,-128.48,1785093340108.403
-0.945,-1.048,-0.388,69.58,114.47,-130.83,1785093340114.389
-0.936,-1.007,-0.402,68.88,110.75,-133.76,1785093340125.333
-0.903,-0.96,-0.386,61.22,106.11,-137.24,1785093340138.5579
-0.848,-0.96,-0.38,52.46,102.45,-140.48,1785093340144.506
-0.839,-0.983,-0.387,44.04,100.34,-143.77,1785093340155.303
-0.83,-1.013,-0.403,36.87,98.61,-145.05,1785093340168.572
-0.787,-1.022,-0.384,31.16,96.62,-144.02,1785093340174.515
-0.731,-1.002,-0.367,28.6,96.16,-146.52,1785093340184.974
-0.701,-1.008,-0.38,28.5,93.69,-148.72,1785093340195.6401
-0.671,-1.011,-0.37,26.83,91.16,-148.26,1785093340208.8718
-0.644,-0.993,-0.365,23.38,89.45,-148.35,1785093340214.857
-0.597,-1.007,-0.392,17.52,87.68,-149.42,1785093340225.1467
-0.578,-1.039,-0.395,6.87,85.76,-151.65,1785093340238.837
-0.566,-1.065,-0.364,-5.34,83.8,-153.23,1785093340244.493
-0.554,-1.087,-0.345,-11.87,82.98,-154.64,1785093340254.844
-0.536,-1.083,-0.319,-11.35,82.92,-155.8,1785093340265.548
-0.495,-1.057,-0.278,-4.85,82.16,-156.07,1785093340278.825
-0.454,-1.042,-0.26,4.27,79.81,-156.83,1785093340284.3608
-0.418,-0.999,-0.257,3.69,75.75,-158.39,1785093340295.016
-0.37,-0.946,-0.281,-11.57,71.14,-160.59,1785093340305.603
-0.337,-0.91,-0.316,-41.6,67.45,-162.82,1785093340318.841
-0.339,-0.981,-0.325,-72.63,66.84,-165.59,1785093340324.537
-0.36,-1.081,-0.318,-91.56,68.3,-168.43,1785093340335.362
-0.344,-1.135,-0.296,-91.86,71.02,-167.94,1785093340348.58
-0.307,-1.114,-0.25,-76.2,72.73,-165.29,1785093340354.499
-0.267,-1.047,-0.218,-49.62,71.9,-161.41,1785093340365.032
-0.252,-0.976,-0.238,-18.37,70.53,-161.08,1785093340375.6108
-0.234,-0.89,-0.245,8.48,68.64,-164.77,1785093340388.9082
-0.207,-0.828,-0.236,27.47,65.68,-170.42,1785093340394.891
-0.183,-0.793,-0.19,37.93,63.08,-176.0,1785093340405.2888
-0.141,-0.773,-0.137,46.36,60.82,-179.75,1785093340418.7441
-0.095,-0.766,-0.12,57.16,58.63,-181.71,1785093340424.429
-0.04,-0.751,-0.128,69.28,55.7,-181.98,1785093340434.9927
0.011,-0.7,-0.111,78.04,52.25,-182.35,1785093340445.594
0.022,-0.66,-0.141,82.61,47.15,-182.32,1785093340458.8318
0.031,-0.639,-0.154,83.77,42.82,-180.3,1785093340464.808
0.042,-0.645,-0.131,83.93,38.91,-178.56,1785093340475.198
0.049,-0.665,-0.119,84.69,34.82,-176.98,1785093340488.574
0.104,-0.653,-0.11,87.13,31.19,-173.5,1785093340494.63
0.152,-0.632,-0.067,93.05,26.95,-168.77,1785093340505.0261
0.169,-0.579,-0.042,100.83,21.15,-165.93,1785093340518.43
0.214,-0.526,-0.043,109.44,15.56,-164.22,1785093340524.385
0.214,-0.526,-0.043,115.24,9.09,-163.95,1785093340534.919
0.226,-0.476,-0.036,118.41,2.75,-163.98,1785093340545.518
0.214,-0.443,-0.057,120.24,-2.32,-164.43,1785093340558.8071
0.187,-0.424,-0.048,123.29,-6.23,-164.71,1785093340564.784
0.173,-0.41,-0.025,131.05,-10.35,-164.77,1785093340575.3213
0.212,-0.411,-0.001,131.05,-10.35,-164.77,1785093340588.579
0.293,-0.379,-0.0,141.82,-15.2,-164.1,1785093340594.6792
0.379,-0.32,-0.013,152.07,-20.81,-162.45,1785093340605.2842
0.379,-0.259,0.008,157.6,-28.41,-159.31,1785093340618.546
0.35,-0.233,0.01,160.1,-36.81,-155.13,1785093340624.4622
0.334,-0.211,0.009,159.25,-45.44,-152.1,1785093340635.3018
0.355,-0.192,0.0,159.06,-53.62,-149.88,1785093340648.54
0.402,-0.17,-0.031,159.86,-60.67,-147.5,1785093340654.441
0.451,-0.147,-0.061,159.09,-66.65,-142.98,1785093340665.267
0.484,-0.136,-0.076,160.99,-71.57,-136.78,1785093340678.4949
0.5,-0.14,-0.071,166.45,-75.84,-130.25,1785093340684.4028
0.51,-0.139,-0.056,172.52,-80.69,-122.87,1785093340695.222
0.508,-0.147,-0.057,179.6,-85.15,-115.3,1785093340708.4758
0.495,-0.144,-0.041,186.41,-89.54,-108.98,1785093340714.416
0.494,-0.128,-0.041,190.83,-94.73,-104.62,1785093340725.191
0.506,-0.108,-0.06,191.96,-100.77,-102.21,1785093340738.41
0.521,-0.073,-0.067,191.2,-106.11,-101.35,1785093340744.39
0.563,-0.039,-0.07,190.92,-110.26,-100.89,1785093340755.407
0.592,-0.024,-0.089,190.16,-115.39,-99.58,1785093340768.6292
0.583,-0.045,-0.157,187.75,-121.07,-97.54,1785093340774.559
0.558,-0.074,-0.218,182.47,-125.46,-96.38,1785093340785.325
0.552,-0.103,-0.223,176.73,-126.83,-93.78,1785093340798.5898
0.553,-0.144,-0.204,172.55,-128.45,-90.52,1785093340804.5151
0.543,-0.142,-0.19,171.97,-132.24,-87.22,1785093340815.3013
0.542,-0.1,-0.198,176.31,-135.99,-82.4,1785093340828.8289
0.567,-0.062,-0.24,183.08,-138.92,-78.04,1785093340834.361
0.606,-0.03,-0.302,184.79,-142.12,-74.43,1785093340845.3591
0.625,-0.045,-0.394,178.08,-145.09,-70.56,1785093340858.5168
0.587,-0.091,-0.438,162.27,-146.7,-67.75,1785093340864.456
0.522,-0.172,-0.457,145.27,-146.98,-65.65,1785093340875.3
0.469,-0.237,-0.471,134.43,-145.79,-64.09,1785093340888.753
0.47,-0.269,-0.444,135.78,-142.89,-62.32,1785093340894.098
0.477,-0.273,-0.383,150.36,-140.9,-61.22,1785093340905.194
0.475,-0.219,-0.355,173.53,-140.08,-59.94,1785093340918.48
0.505,-0.131,-0.373,194.92,-140.2,-56.18,1785093340924.3982
0.543,-0.079,-0.401,205.3,-142.25,-51.39,1785093340934.958
0.583,-0.101,-0.515,201.45,-145.54,-48.07,1785093340948.3098
0.588,-0.167,-0.629,180.43,-146.92,-46.42,1785093340954.449
0.554,-0.236,-0.625,148.01,-145.48,-43.12,1785093340964.989
0.516,-0.306,-0.575,118.75,-144.75,-37.45,1785093340978.314
0.458,-0.358,-0.526,102.91,-145.18,-31.62,1785093340984.3672
0.383,-0.355,-0.479,99.49,-144.38,-27.13,1785093340994.901
0.364,-0.29,-0.472,105.26,-142.61,-23.96,1785093341008.237
0.423,-0.233,-0.491,117.62,-141.3,-21.7,1785093341014.0159
0.469,-0.193,-0.526,127.41,-141.79,-19.62,1785093341024.982
0.491,-0.219,-0.614,127.08,-143.74,-14.98,1785093341038.2432
0.474,-0.288,-0.726,115.36,-144.69,-11.08,1785093341044.168
0.431,-0.323,-0.749,95.0,-142.03,-6.53,1785093341054.797
0.366,-0.353,-0.685,76.88,-138.31,-1.07,1785093341065.3901
0.307,-0.388,-0.598,69.15,-134.86,2.44,1785093341078.572
0.328,-0.405,-0.556,74.01,-130.41,3.11,1785093341084.79
0.41,-0.417,-0.557,86.37,-127.9,2.56,1785093341094.8337
0.457,-0.405,-0.614,95.8,-129.55,4.09,1785093341105.3418
0.426,-0.387,-0.671,97.23,-130.92,6.93,1785093341118.5852
0.355,-0.396,-0.687,93.33,-130.1,8.0,1785093341124.4358
0.306,-0.426,-0.667,89.75,-128.06,7.84,1785093341134.5972
0.247,-0.448,-0.626,90.09,-125.0,7.23,1785093341145.222
0.209,-0.457,-0.584,94.82,-121.1,6.71,1785093341158.593
0.195,-0.488,-0.591,103.82,-118.05,6.07,1785093341164.604
0.195,-0.497,-0.611,110.63,-115.57,6.56,1785093341174.9902
0.184,-0.495,-0.628,113.56,-112.16,8.61,1785093341185.448
0.167,-0.506,-0.624,113.19,-108.28,12.79,1785093341199.036
0.15,-0.519,-0.585,110.45,-104.8,19.56,1785093341205.007
0.134,-0.537,-0.555,107.7,-102.45,27.34,1785093341215.512
0.118,-0.556,-0.539,104.77,-100.62,34.03,1785093341228.8242
0.086,-0.585,-0.556,101.47,-98.54,37.97,1785093341234.863
0.07,-0.608,-0.6,97.2,-95.55,39.89,1785093341245.313
0.076,-0.612,-0.613,92.32,-92.17,41.63,1785093341258.787
0.067,-0.602,-0.6,87.92,-89.54,44.65,1785093341264.558
0.028,-0.607,-0.576,86.7,-87.31,48.98,1785093341274.725
-0.014,-0.613,-0.528,90.7,-85.45,54.32,1785093341285.328
-0.03,-0.626,-0.505,100.47,-83.32,59.66,1785093341298.584
-0.0,-0.678,-0.568,112.49,-81.0,63.2,1785093341304.627
0.011,-0.753,-0.668,117.74,-78.59,62.62,1785093341315.0188
-0.025,-0.81,-0.789,109.01,-75.05,61.19,1785093341325.593
-0.044,-0.83,-0.89,86.76,-68.18,62.9,1785093341338.857
-0.078,-0.815,-0.813,59.36,-58.81,66.68,1785093341344.752
-0.137,-0.806,-0.624,40.65,-51.06,70.1,1785093341355.1008
-0.15,-0.834,-0.467,39.8,-45.87,72.36,1785093341365.657
-0.101,-0.863,-0.438,53.04,-44.07,72.08,1785093341378.9849
-0.074,-0.864,-0.577,69.31,-43.55,69.49,1785093341384.796
-0.078,-0.837,-0.753,74.19,-40.8,67.6,1785093341395.096
-0.099,-0.805,-0.822,62.53,-36.71,66.44,1785093341405.628
-0.149,-0.839,-0.801,44.95,-32.62,65.28,1785093341418.851
-0.207,-0.91,-0.706,33.69,-28.14,63.42,1785093341424.364
-0.219,-0.949,-0.57,35.89,-23.07,63.17,1785093341435.148
-0.186,-0.96,-0.442,54.29,-18.1,65.8,1785093341445.606
-0.131,-0.942,-0.343,79.38,-16.45,71.6,1785093341458.883
-0.108,-0.926,-0.374,98.06,-19.84,78.8,1785093341464.8691
-0.146,-0.906,-0.493,99.58,-25.12,85.48,1785093341475.0312
-0.225,-0.888,-0.602,82.34,-28.11,91.74,1785093341485.486
-0.319,-0.875,-0.666,53.5,-27.04,97.54,1785093341499.2012
-0.379,-0.911,-0.662,29.85,-22.58,103.0,1785093341504.8079
-0.377,-0.987,-0.595,25.48,-16.27,108.62,1785093341515.317
-0.328,-1.087,-0.471,46.66,-9.64,115.45,1785093341528.4941
-0.278,-1.157,-0.344,83.5,-5.37,124.76,1785093341534.433
-0.276,-1.163,-0.283,117.86,-4.33,136.91,1785093341544.78
-0.321,-1.136,-0.27,135.26,-5.46,149.6,1785093341555.438
-0.408,-1.126,-0.287,131.47,-8.51,160.77,1785093341568.642
-0.504,-1.176,-0.367,112.31,-10.25,168.31,1785093341574.584
-0.571,-1.286,-0.463,87.8,-6.9,171.45,1785093341585.09
-0.599,-1.375,-0.543,65.34,-1.13,173.25,1785093341598.4448
-0.571,-1.392,-0.603,50.11,7.84,177.07,1785093341604.398
-0.549,-1.331,-0.644,39.55,20.02,182.01,1785093341614.741
-0.557,-1.277,-0.59,29.24,32.07,188.06,1785093341625.1687
-0.559,-1.244,-0.441,19.93,40.47,191.66,1785093341638.534
-0.536,-1.241,-0.272,19.04,45.05,192.6,1785093341644.471
-0.499,-1.281,-0.144,30.79,46.08,192.21,1785093341654.977
-0.474,-1.323,-0.079,49.59,44.59,192.21,1785093341665.501
-0.46,-1.373,-0.07,70.38,39.67,196.33,1785093341678.7551
-0.401,-1.39,-0.152,90.55,34.97,198.07,1785093341684.814
-0.425,-1.272,-0.31,103.06,37.02,189.28,1785093341695.411
-0.447,-1.202,-0.49,99.89,37.32,188.85,1785093341708.698
-0.514,-1.13,-0.561,81.67,38.3,187.17,1785093341714.669
-0.602,-1.094,-0.551,57.56,39.25,183.81,1785093341725.152
-0.56,-1.112,-0.473,35.34,40.56,182.04,1785093341738.6611
-0.623,-1.1,-0.326,20.78,47.64,168.37,1785093341744.291
-0.576,-1.292,-0.2,18.74,45.26,171.27,1785093341754.8389
-0.574,-1.357,-0.088,32.78,42.79,164.89,1785093341765.507
-0.563,-1.386,-0.101,60.15,41.38,160.68,1785093341778.546
-0.601,-1.166,-0.125,75.17,44.28,154.03,1785093341784.597
-0.582,-1.111,-0.184,76.02,43.73,156.93,1785093341794.911
-0.605,-1.16,-0.215,69.31,41.35,156.65,1785093341808.424
-0.605,-1.16,-0.215,65.98,38.12,156.68,1785093341814.368
-0.636,-1.178,-0.231,63.66,34.18,153.17,1785093341824.859
-0.636,-1.143,-0.28,56.4,35.49,142.64,1785093341835.5251
-0.673,-1.061,-0.302,47.21,36.99,134.04,1785093341848.7969
-0.671,-1.006,-0.324,33.97,35.65,125.46,1785093341854.691
-0.753,-0.943,-0.323,33.97,35.65,125.46,1785093341865.2559
-0.693,-1.032,-0.296,24.11,33.63,132.69,1785093341878.497
-0.667,-1.032,-0.303,28.38,30.43,133.09,1785093341884.403
-0.697,-1.069,-0.325,43.46,20.97,130.92,1785093341894.9968
-0.755,-1.013,-0.32,77.67,15.66,123.94,1785093341905.4302
-0.738,-0.894,-0.365,105.72,20.51,115.24,1785093341918.9602
-0.716,-0.794,-0.373,109.84,32.29,108.01,1785093341924.785
-0.74,-0.666,-0.328,91.01,42.36,98.33,1785093341935.096
-0.766,-0.645,-0.267,65.28,43.06,96.22,1785093341948.4758
-0.759,-0.728,-0.241,39.61,37.87,96.8,1785093341954.609
-0.774,-0.761,-0.212,18.37,37.2,93.54,1785093341964.659
-0.792,-0.751,-0.234,9.46,36.9,91.77,1785093341975.2441
-0.801,-0.723,-0.265,2.5,37.75,90.91,1785093341988.5208
-0.806,-0.666,-0.294,-5.92,37.78,89.39,1785093341994.404
-0.805,-0.628,-0.309,-15.72,36.71,87.92,1785093342004.6133
-0.807,-0.633,-0.301,-23.83,35.34,86.89,1785093342015.1638
-0.814,-0.629,-0.29,-27.99,33.33,84.17,1785093342025.5518
-0.818,-0.6,-0.287,-30.37,31.56,82.83,1785093342040.9119
-0.815,-0.577,-0.273,-31.62,29.91,83.35,1785093342044.823
-0.817,-0.559,-0.273,-28.96,27.71,83.41,1785093342055.13
-0.819,-0.542,-0.286,-22.92,25.88,83.22,1785093342065.8318
-0.825,-0.523,-0.294,-14.62,24.2,82.77,1785093342079.0151
-0.83,-0.515,-0.288,-3.72,22.28,82.09,1785093342084.903
-0.835,-0.515,-0.282,9.55,20.14,80.42,1785093342095.1482
-0.844,-0.525,-0.287,24.2,18.37,77.15,1785093342105.669
-0.854,-0.533,-0.289,38.79,17.4,72.97,1785093342118.91
-0.866,-0.531,-0.285,52.67,16.51,69.73,1785093342125.361
-0.873,-0.514,-0.283,65.1,15.44,68.0,1785093342135.05
-0.875,-0.482,-0.278,74.62,14.19,67.23,1785093342145.576
-0.876,-0.452,-0.276,81.64,13.43,66.41,1785093342158.9917
-0.881,-0.443,-0.274,86.25,12.76,64.64,1785093342164.963
-0.884,-0.44,-0.272,88.56,11.96,61.95,1785093342175.026
-0.889,-0.427,-0.266,89.27,10.96,59.45,1785093342185.643
-0.891,-0.415,-0.267,88.81,10.1,57.22,1785093342198.902
-0.894,-0.404,-0.278,86.55,9.74,55.18,1785093342204.74
-0.9,-0.402,-0.284,82.03,9.8,52.71,1785093342214.7432
-0.903,-0.403,-0.284,77.33,9.64,49.26,1785093342225.337
-0.908,-0.406,-0.286,73.49,9.28,45.66,1785093342238.604
-0.914,-0.407,-0.282,69.61,9.0,42.21,1785093342244.3772
-0.919,-0.402,-0.274,65.49,8.36,39.43,1785093342254.4792
-0.921,-0.396,-0.274,61.1,7.63,37.2,1785093342264.97
-0.922,-0.391,-0.268,56.22,7.2,35.1,1785093342275.401
-0.919,-0.394,-0.264,52.49,6.41,32.47,1785093342288.6501
-0.916,-0.391,-0.264,48.89,5.13,30.0,1785093342294.72
-0.909,-0.38,-0.267,44.59,4.15,27.92,1785093342304.599
-0.904,-0.369,-0.272,40.74,3.63,25.45,1785093342315.1172
-0.906,-0.363,-0.275,38.09,3.11,22.61,1785093342325.549
-0.909,-0.358,-0.275,35.58,2.59,19.32,1785093342338.972
-0.91,-0.351,-0.267,32.53,1.86,16.3,1785093342344.476
-0.906,-0.348,-0.262,29.76,0.79,13.82,1785093342354.718
-0.901,-0.346,-0.254,27.28,-0.37,11.35,1785093342365.292
-0.896,-0.343,-0.256,25.27,-1.07,8.91,1785093342375.5369
-0.897,-0.337,-0.264,22.13,-1.68,6.32,1785093342388.759
-0.897,-0.334,-0.268,18.22,-2.17,4.24,1785093342394.86
-0.9,-0.331,-0.27,14.86,-2.32,2.29,1785093342404.532
-0.902,-0.329,-0.266,12.73,-2.11,0.15,1785093342414.9648
-0.901,-0.331,-0.261,11.72,-1.83,-2.01,1785093342425.28
-0.898,-0.337,-0.253,11.72,-1.74,-3.91,1785093342435.6511
-0.896,-0.337,-0.251,12.12,-1.92,-5.62,1785093342448.965
-0.896,-0.332,-0.248,12.67,-2.41,-6.81,1785093342454.6099
-0.897,-0.331,-0.252,13.46,-2.99,-7.66,1785093342464.795
-0.901,-0.333,-0.258,14.34,-3.39,-8.76,1785093342474.9
-0.902,-0.324,-0.262,14.5,-3.97,-9.34,1785093342485.307
-0.904,-0.313,-0.272,13.73,-4.36,-10.01,1785093342498.4597
-0.882,-0.308,-0.276,11.66,-4.12,-10.35,1785093342504.561
-0.921,-0.279,-0.255,9.22,-4.39,-10.86,1785093342514.448
-0.885,-0.33,-0.27,9.74,-5.86,-8.18,1785093342524.743
-0.897,-0.301,-0.27,6.9,-6.78,-10.07,1785093342535.083
-0.89,-0.287,-0.271,5.04,-7.66,-8.88,1785093342545.408
-0.888,-0.291,-0.274,2.66,-7.81,-9.46,1785093342555.693
-0.888,-0.29,-0.269,-0.79,-7.32,-10.83,1785093342568.9421
-0.887,-0.297,-0.265,-3.75,-7.08,-11.05,1785093342574.6108
-0.89,-0.296,-0.258,-6.65,-7.57,-10.83,1785093342584.611
-0.892,-0.296,-0.26,-8.91,-8.36,-10.07,1785093342594.983
-0.895,-0.294,-0.265,-11.41,-8.82,-9.22,1785093342605.4028
-0.892,-0.298,-0.266,-13.52,-9.06,-8.58,1785093342618.6309
-0.892,-0.301,-0.269,-14.74,-8.76,-8.61,1785093342624.289
-0.897,-0.297,-0.269,-15.2,-8.21,-8.58,1785093342634.304
-0.903,-0.294,-0.272,-15.2,-8.03,-8.51,1785093342644.682
-0.903,-0.294,-0.267,-15.17,-8.18,-8.18,1785093342655.019
-0.902,-0.295,-0.26,-15.26,-8.33,-7.72,1785093342665.4512
-0.903,-0.299,-0.255,-14.89,-8.36,-7.23,1785093342678.7432
-0.905,-0.301,-0.25,-14.4,-8.7,-6.53,1785093342684.084
-0.904,-0.304,-0.248,-13.82,-9.19,-6.04,1785093342694.2551
-0.903,-0.298,-0.247,-13.79,-9.25,-5.77,1785093342704.742
-0.902,-0.295,-0.243,-13.95,-9.31,-5.1,1785093342715.101
-0.902,-0.296,-0.246,-14.16,-9.34,-4.94,1785093342725.618
-0.904,-0.297,-0.247,-14.56,-9.19,-4.94,1785093342738.7468
-0.906,-0.297,-0.252,-15.2,-9.09,-4.61,1785093342744.67
-0.904,-0.298,-0.249,-15.9,-8.94,-4.27,1785093342754.2761
-0.903,-0.303,-0.244,-15.81,-8.55,-4.06,1785093342764.859
-0.898,-0.308,-0.241,-15.17,-8.09,-4.09,1785093342775.1538
-0.898,-0.311,-0.237,-14.13,-7.97,-4.27,1785093342785.5308
-0.898,-0.314,-0.236,-12.76,-7.81,-4.46,1785093342798.937
-0.899,-0.308,-0.238,-12.09,-7.72,-4.73,1785093342804.0671
-0.895,-0.305,-0.238,-11.84,-7.72,-4.61,1785093342814.343
-0.895,-0.306,-0.243,-11.69,-7.63,-4.7,1785093342824.612
-0.898,-0.306,-0.25,-11.44,-7.2,-5.34,1785093342835.3323
-0.901,-0.301,-0.253,-11.99,-6.71,-5.89,1785093342845.7751
-0.903,-0.298,-0.251,-12.73,-6.1,-6.13,1785093342858.887
-0.902,-0.304,-0.25,-13.31,-5.49,-6.41,1785093342864.604
-0.899,-0.306,-0.245,-13.58,-4.79,-6.53,1785093342874.5178
-0.902,-0.308,-0.239,-12.76,-4.06,-6.32,1785093342884.916
-0.908,-0.307,-0.234,-11.81,-3.6,-6.44,1785093342895.332
-0.916,-0.302,-0.233,-11.05,-3.48,-6.26,1785093342905.687
-0.921,-0.301,-0.232,-10.68,-3.17,-6.07,1785093342918.8809
-0.927,-0.299,-0.229,-10.41,-2.59,-6.23,1785093342924.625
-0.927,-0.3,-0.23,-10.19,-2.5,-5.92,1785093342934.676
-0.924,-0.299,-0.234,-9.77,-2.41,-5.83,1785093342945.128
-0.926,-0.297,-0.24,-9.25,-2.47,-5.92,1785093342955.395
-0.931,-0.293,-0.24,-8.76,-1.86,-6.13,1785093342965.5261
-0.928,-0.294,-0.24,-8.36,-1.53,-6.47,1785093342978.7659
-0.925,-0.29,-0.237,-8.27,-1.25,-6.38,1785093342983.8928
-0.923,-0.288,-0.234,-7.72,-0.82,-5.86,1785093342994.123
-0.922,-0.282,-0.23,-6.65,-0.37,-5.55,1785093343004.441
-0.916,-0.273,-0.228,-6.04,-0.15,-5.68,1785093343014.846
-0.909,-0.269,-0.227,-5.43,-0.18,-5.77,1785093343025.0361
-0.911,-0.27,-0.225,-5.07,-0.4,-6.23,1785093343035.376
-0.912,-0.266,-0.226,-4.73,-0.46,-6.5,1785093343045.6462
-0.913,-0.269,-0.233,-4.21,-0.43,-7.05,1785093343058.943
-0.91,-0.273,-0.231,-4.06,-0.09,-7.66,1785093343064.4438
-0.907,-0.277,-0.235,-3.72,0.06,-8.12,1785093343074.2568
-0.909,-0.276,-0.235,-3.72,0.09,-8.06,1785093343084.5881
-0.909,-0.272,-0.235,-4.43,0.21,-8.06,1785093343094.915
-0.909,-0.272,-0.235,-5.58,0.37,-7.9,1785093343105.017
-0.909,-0.265,-0.236,-7.35,-0.09,-7.45,1785093343115.352
-0.908,-0.266,-0.237,-9.49,-0.15,-7.23,1785093343128.688
-0.909,-0.268,-0.234,-10.16,0.09,-7.2,1785093343133.972
-0.907,-0.28,-0.23,-10.16,0.09,-7.2,1785093343144.274
-0.912,-0.289,-0.234,-9.19,0.49,-7.08,1785093343154.5688
-0.915,-0.287,-0.235,-7.84,0.52,-6.29,1785093343164.959
-0.912,-0.289,-0.231,-6.23,0.79,-5.22,1785093343175.2021
-0.908,-0.295,-0.225,-4.58,1.16,-4.33,1785093343185.681
-0.908,-0.304,-0.224,-2.23,1.77,-3.54,1785093343198.7742
-0.909,-0.3,-0.221,0.46,1.92,-2.5,1785093343204.15
-0.907,-0.286,-0.22,2.01,1.71,-1.31,1785093343214.217
-0.904,-0.278,-0.221,2.53,1.62,-0.24,1785093343224.3982
-0.9,-0.278,-0.223,2.32,1.56,0.15,1785093343234.724
-0.895,-0.281,-0.223,2.32,1.56,0.58,1785093343245.0603
-0.894,-0.285,-0.22,2.69,1.53,1.43,1785093343255.2021
-0.896,-0.287,-0.221,3.66,1.43,2.32,1785093343265.6829
-0.899,-0.286,-0.226,4.52,1.28,3.36,1785093343278.8657
-0.9,-0.284,-0.227,4.7,1.28,4.18,1785093343284.401
-0.902,-0.286,-0.227,4.18,1.1,5.13,1785093343294.0989
-0.906,-0.289,-0.227,3.48,0.82,6.2,1785093343304.4382
-0.905,-0.286,-0.227,2.59,0.61,7.05,1785093343314.801
-0.905,-0.288,-0.226,1.4,0.24,8.09,1785093343325.117
-0.909,-0.288,-0.226,0.24,0.0,8.97,1785093343335.2478
-0.909,-0.291,-0.224,-0.82,-0.27,9.49,1785093343348.9722
-0.91,-0.299,-0.227,-1.4,-0.46,9.98,1785093343354.1892
-0.909,-0.299,-0.229,-1.68,-0.64,10.53,1785093343364.252
-0.907,-0.294,-0.228,-2.29,-0.98,11.2,1785093343374.562
-0.906,-0.296,-0.228,-2.69,-1.16,11.63,1785093343384.9868
-0.908,-0.299,-0.226,-2.93,-1.07,11.44,1785093343395.346
-0.915,-0.301,-0.225,-2.9,-1.1,11.29,1785093343408.599
-0.915,-0.302,-0.223,-2.26,-1.4,11.29,1785093343414.3958
-0.912,-0.302,-0.222,-1.71,-1.53,11.32,1785093343424.184
-0.911,-0.302,-0.223,-1.04,-1.59,11.05,1785093343434.655
-0.909,-0.301,-0.224,-0.46,-1.95,10.77,1785093343445.055
-0.905,-0.296,-0.225,-0.34,-2.26,10.41,1785093343455.3972
-0.904,-0.299,-0.224,-0.21,-2.41,10.16,1785093343468.707
-0.901,-0.299,-0.225,-0.37,-2.78,9.83,1785093343474.2222
-0.901,-0.3,-0.223,-0.67,-2.99,9.55,1785093343484.241
