ax,ay,az,gx,gy,gz,timestamp_ms
-0.912,-0.273,-0.242,-5.43,-0.79,-4.94,1785093353977.511
-0.912,-0.27,-0.248,-5.77,-0.7,-5.22,1785093353977.854
-0.912,-0.269,-0.252,-6.23,-0.52,-5.4,1785093353978.168
-0.911,-0.266,-0.254,-6.74,-0.12,-5.55,1785093353978.485
-0.918,-0.264,-0.254,-7.11,0.21,-5.52,1785093353978.7688
-0.923,-0.265,-0.251,-7.51,0.43,-5.25,1785093353979.024
-0.924,-0.268,-0.25,-7.72,0.7,-4.55,1785093353979.276
-0.925,-0.265,-0.246,-7.75,1.22,-3.88,1785093353979.5159
-0.922,-0.267,-0.244,-8.03,1.5,-2.9,1785093353979.755
-0.92,-0.265,-0.242,-8.12,1.86,-2.2,1785093353979.9941
-0.918,-0.273,-0.238,-7.2,1.92,-1.65,1785093353980.2297
-0.915,-0.272,-0.237,-5.74,1.86,-1.19,1785093353980.464
-0.915,-0.269,-0.237,-4.52,2.14,-0.31,1785093353980.698
-0.915,-0.264,-0.236,-4.33,2.56,0.55,1785093353980.936
-0.914,-0.277,-0.232,-4.3,2.66,1.34,1785093353981.174
-0.911,-0.278,-0.227,-2.38,2.78,1.4,1785093353981.4148
-0.911,-0.271,-0.231,0.0,2.99,1.56,1785093353981.6538
-0.913,-0.276,-0.228,1.34,3.02,1.68,1785093353981.889
-0.915,-0.287,-0.222,2.87,2.99,1.86,1785093353982.1218
-0.919,-0.286,-0.22,4.97,2.75,1.62,1785093353982.358
-0.928,-0.281,-0.221,6.01,2.96,1.83,1785093353982.593
-0.928,-0.289,-0.223,6.74,2.56,1.4,1785093353982.827
-0.926,-0.284,-0.226,7.35,2.29,0.73,1785093353983.0542
-0.925,-0.281,-0.229,7.08,2.47,0.61,1785093353983.283
-0.926,-0.287,-0.227,6.56,2.26,0.06,1785093353983.51
-0.917,-0.282,-0.225,6.32,1.74,-0.43,1785093353983.7397
-0.914,-0.283,-0.221,5.65,1.59,-0.24,1785093353983.967
-0.909,-0.288,-0.22,4.91,1.16,-0.73,1785093353984.193
-0.898,-0.286,-0.219,4.64,0.76,-1.28,1785093353984.416
-0.892,-0.282,-0.219,4.24,0.31,-1.68,1785093353984.652
-0.89,-0.281,-0.217,3.23,-0.15,-2.08,1785093353984.886
-0.886,-0.278,-0.218,1.77,-0.67,-2.41,1785093353985.1147
-0.884,-0.275,-0.219,0.24,-1.19,-2.59,1785093353985.3452
-0.883,-0.277,-0.219,-1.5,-1.71,-2.47,1785093353985.5908
-0.883,-0.277,-0.22,-3.33,-2.26,-2.26,1785093353985.844
-0.882,-0.278,-0.217,-5.07,-2.62,-1.86,1785093353986.0798
-0.886,-0.278,-0.219,-6.74,-2.78,-1.46,1785093353986.311
-0.888,-0.28,-0.219,-8.33,-2.87,-0.79,1785093353986.556
-0.892,-0.284,-0.217,-9.64,-2.84,-0.09,1785093353986.7808
-0.896,-0.289,-0.221,-10.8,-2.78,0.7,1785093353987.0159
-0.899,-0.293,-0.219,-11.63,-2.53,1.56,1785093353987.236
-0.902,-0.297,-0.216,-11.78,-2.26,2.47,1785093353987.4492
-0.907,-0.299,-0.216,-11.57,-1.98,3.2,1785093353987.665
-0.912,-0.3,-0.212,-10.83,-1.59,3.94,1785093353987.885
-0.917,-0.304,-0.212,-9.64,-1.22,4.43,1785093353988.099
-0.924,-0.306,-0.211,-8.21,-0.82,4.76,1785093353988.316
-0.933,-0.31,-0.214,-5.92,-0.49,4.55,1785093353988.5508
-0.94,-0.316,-0.214,-3.02,-0.03,4.18,1785093353988.7769
-0.951,-0.315,-0.216,-0.18,0.37,3.75,1785093353989.013
-0.958,-0.312,-0.221,2.32,1.04,3.23,1785093353989.265
-0.957,-0.309,-0.227,4.24,1.89,2.75,1785093353989.524
-0.952,-0.306,-0.229,5.68,2.87,2.23,1785093353989.776
-0.954,-0.307,-0.229,6.5,3.57,1.77,1785093353990.0269
-0.958,-0.307,-0.227,7.57,3.91,0.76,1785093353990.251
-0.96,-0.306,-0.224,8.94,4.3,-0.52,1785093353990.466
-0.96,-0.306,-0.224,10.32,4.49,-1.92,1785093353990.687
-0.954,-0.3,-0.224,11.69,4.61,-3.48,1785093353990.9119
-0.95,-0.292,-0.228,12.91,4.55,-5.46,1785093353991.1301
-0.942,-0.279,-0.23,14.25,4.27,-7.69,1785093353991.3499
-0.933,-0.268,-0.233,15.75,3.91,-10.04,1785093353991.574
-0.925,-0.253,-0.242,15.75,3.91,-10.04,1785093353991.799
-0.922,-0.244,-0.25,15.84,3.75,-11.57,1785093353992.0168
-0.923,-0.248,-0.253,14.71,3.6,-13.37,1785093353992.244
-0.917,-0.251,-0.251,14.07,3.08,-15.14,1785093353992.4678
-0.91,-0.245,-0.253,13.92,2.9,-15.93,1785093353992.684
-0.901,-0.227,-0.259,12.91,2.9,-15.5,1785093353992.9158
-0.894,-0.21,-0.256,9.89,3.51,-13.92,1785093353993.124
-0.894,-0.213,-0.255,6.16,3.6,-11.78,1785093353993.333
-0.903,-0.241,-0.249,3.14,3.2,-10.35,1785093353993.546
-0.899,-0.231,-0.249,2.5,2.9,-9.7,1785093353993.752
-0.896,-0.218,-0.253,1.16,3.17,-7.08,1785093353994.0032
-0.9,-0.225,-0.252,-1.77,3.33,-4.21,1785093353994.203
-0.903,-0.232,-0.249,-4.03,3.17,-1.43,1785093353994.4329
-0.905,-0.24,-0.245,-5.1,3.2,1.01,1785093353994.6409
-0.906,-0.245,-0.241,-5.13,2.99,2.93,1785093353994.84
-0.911,-0.249,-0.239,-4.36,2.87,4.79,1785093353995.044
-0.913,-0.256,-0.237,-3.17,2.69,6.5,1785093353995.246
-0.914,-0.26,-0.233,-1.4,2.14,7.69,1785093353995.4473
-0.912,-0.263,-0.229,0.64,1.68,9.25,1785093353995.6511
-0.91,-0.263,-0.224,2.78,1.56,11.41,1785093353995.857
-0.908,-0.267,-0.217,4.73,1.43,13.73,1785093353996.062
-0.912,-0.27,-0.216,6.32,1.13,15.81,1785093353996.2659
-0.915,-0.275,-0.22,7.45,0.73,17.52,1785093353996.4958
-0.915,-0.278,-0.221,8.36,0.21,18.89,1785093353996.743
-0.916,-0.28,-0.225,9.06,-0.24,19.65,1785093353996.959
-0.919,-0.279,-0.232,9.25,-0.7,19.71,1785093353997.168
-0.918,-0.28,-0.235,8.45,-1.31,19.2,1785093353997.3918
-0.919,-0.281,-0.239,7.08,-1.74,18.65,1785093353997.613
-0.921,-0.28,-0.242,5.25,-2.04,18.13,1785093353997.8271
-0.924,-0.281,-0.245,2.66,-2.47,17.82,1785093353998.0537
-0.924,-0.285,-0.243,0.09,-3.02,17.55,1785093353998.2542
-0.925,-0.284,-0.245,-2.47,-3.57,16.72,1785093353998.459
-0.929,-0.288,-0.248,-5.16,-4.0,15.84,1785093353998.667
-0.927,-0.293,-0.249,-7.11,-4.39,15.26,1785093353998.872
-0.927,-0.292,-0.252,-8.73,-4.55,14.5,1785093353999.0752
-0.927,-0.285,-0.256,-10.25,-4.82,13.64,1785093353999.2803
-0.927,-0.286,-0.256,-11.99,-5.01,12.63,1785093353999.4922
-0.927,-0.283,-0.254,-13.4,-5.01,11.23,1785093353999.695
-0.926,-0.283,-0.257,-13.92,-5.25,9.86,1785093353999.922
-0.918,-0.28,-0.259,-14.37,-5.1,9.25,1785093354000.133
-0.918,-0.283,-0.263,-14.98,-4.82,8.27,1785093354000.35
-0.91,-0.282,-0.265,-14.68,-4.91,6.41,1785093354000.556
-0.898,-0.275,-0.264,-14.28,-4.36,5.16,1785093354000.759
-0.905,-0.278,-0.261,-14.28,-3.88,4.61,1785093354000.9531
-0.903,-0.273,-0.256,-14.22,-3.91,3.51,1785093354001.156
-0.9,-0.27,-0.255,-13.73,-3.54,3.11,1785093354001.355
-0.898,-0.269,-0.254,-13.28,-3.08,2.26,1785093354001.556
-0.895,-0.269,-0.257,-12.57,-2.93,1.46,1785093354001.759
-0.892,-0.265,-0.26,-11.81,-2.72,0.98,1785093354001.956
-0.892,-0.261,-0.262,-11.75,-2.23,0.55,1785093354002.1738
-0.892,-0.265,-0.263,-11.66,-2.14,-0.15,1785093354002.365
-0.888,-0.262,-0.262,-11.38,-1.71,-0.61,1785093354002.562
-0.89,-0.271,-0.26,-10.65,-1.31,-0.67,1785093354002.756
-0.89,-0.273,-0.259,-9.74,-0.82,-1.04,1785093354002.9448
-0.886,-0.265,-0.258,-8.67,-0.24,-1.31,1785093354003.1401
-0.885,-0.267,-0.255,-7.63,0.24,-1.4,1785093354003.332
-0.885,-0.265,-0.251,-6.68,0.79,-1.98,1785093354003.519
-0.891,-0.262,-0.247,-5.46,1.5,-2.53,1785093354003.711
-0.894,-0.264,-0.248,-4.03,1.83,-2.99,1785093354003.906
-0.894,-0.26,-0.248,-3.17,2.35,-3.78,1785093354004.096
-0.894,-0.258,-0.248,-2.47,3.08,-4.46,1785093354004.301
-0.894,-0.261,-0.249,-1.95,3.57,-5.04,1785093354004.495
-0.897,-0.266,-0.244,-1.25,4.06,-5.8,1785093354004.687
-0.901,-0.269,-0.243,-0.18,4.49,-6.07,1785093354004.875
-0.906,-0.271,-0.242,0.79,4.97,-6.13,1785093354005.0718
-0.905,-0.267,-0.239,1.59,5.4,-6.41,1785093354005.2932
-0.91,-0.269,-0.236,2.56,5.98,-6.5,1785093354005.502
-0.914,-0.269,-0.232,3.75,6.26,-6.78,1785093354005.7312
-0.911,-0.267,-0.23,4.85,6.38,-7.11,1785093354005.96
-0.909,-0.268,-0.231,5.86,6.62,-7.32,1785093354006.154
-0.91,-0.271,-0.228,6.93,6.74,-7.66,1785093354006.378
-0.909,-0.269,-0.225,8.03,6.59,-7.87,1785093354006.591
-0.907,-0.27,-0.225,9.06,6.41,-8.15,1785093354006.7708
-0.908,-0.269,-0.223,10.01,6.23,-8.55,1785093354006.961
-0.905,-0.265,-0.223,10.8,6.01,-8.94,1785093354007.152
-0.903,-0.264,-0.222,11.26,5.55,-9.34,1785093354007.339
-0.903,-0.262,-0.22,11.54,5.07,-9.8,1785093354007.52
-0.9,-0.262,-0.219,11.44,4.52,-10.16,1785093354007.712
-0.901,-0.262,-0.219,11.26,3.97,-10.28,1785093354007.904
-0.899,-0.261,-0.218,10.62,3.33,-10.38,1785093354008.086
-0.897,-0.263,-0.221,9.92,2.62,-10.28,1785093354008.276
-0.896,-0.258,-0.221,9.09,1.95,-10.53,1785093354008.467
-0.894,-0.256,-0.223,7.87,1.28,-10.74,1785093354008.653
-0.892,-0.259,-0.224,6.41,0.7,-10.56,1785093354008.842
-0.892,-0.258,-0.226,4.97,0.15,-10.35,1785093354009.032
-0.9,-0.261,-0.224,3.69,-0.27,-10.13,1785093354009.216
-0.902,-0.262,-0.22,2.78,-0.85,-10.13,1785093354009.4102
-0.905,-0.269,-0.221,3.14,-1.07,-9.64,1785093354009.5999
-0.909,-0.266,-0.227,4.46,-1.25,-9.95,1785093354009.7861
-0.914,-0.269,-0.233,5.68,-1.59,-9.77,1785093354009.967
-0.912,-0.263,-0.234,6.9,-1.86,-9.83,1785093354010.155
-0.92,-0.264,-0.233,8.42,-2.14,-9.64,1785093354010.341
-0.931,-0.267,-0.231,10.44,-2.62,-10.04,1785093354010.526
-0.935,-0.263,-0.242,14.65,-2.9,-11.29,1785093354010.7131
-0.942,-0.255,-0.25,19.17,-2.47,-12.45,1785093354010.896
-0.94,-0.257,-0.259,22.31,-2.08,-13.25,1785093354011.0872
-0.942,-0.267,-0.267,24.78,-2.01,-13.43,1785093354011.269
-0.942,-0.263,-0.278,27.22,-1.8,-13.67,1785093354011.453
-0.926,-0.258,-0.28,29.08,-1.04,-12.15,1785093354011.6323
-0.929,-0.262,-0.282,29.94,0.03,-9.28,1785093354011.811
-0.926,-0.255,-0.281,30.18,0.85,-7.2,1785093354011.991
-0.915,-0.258,-0.283,29.57,1.86,-4.0,1785093354012.1702
-0.909,-0.264,-0.279,28.29,2.84,-1.16,1785093354012.3442
-0.906,-0.269,-0.274,26.58,3.6,1.46,1785093354012.5242
-0.902,-0.28,-0.265,24.75,4.52,4.21,1785093354012.705
-0.9,-0.287,-0.254,22.71,5.37,6.93,1785093354012.88
-0.904,-0.293,-0.247,21.67,6.23,9.64,1785093354013.062
-0.91,-0.298,-0.242,21.06,6.78,12.33,1785093354013.255
-0.913,-0.303,-0.237,20.57,6.9,14.44,1785093354013.4348
-0.917,-0.304,-0.239,20.45,6.71,15.9,1785093354013.619
-0.922,-0.298,-0.241,19.71,6.44,16.54,1785093354013.8198
-0.927,-0.286,-0.244,17.46,6.01,16.36,1785093354013.998
-0.929,-0.272,-0.248,13.21,5.49,15.47,1785093354014.177
-0.928,-0.256,-0.251,6.93,5.16,13.31,1785093354014.369
-0.921,-0.269,-0.239,-8.76,3.66,6.87,1785093354014.739
-0.921,-0.295,-0.227,-14.65,2.62,5.58,1785093354014.9163
-0.881,-0.672,-0.528,-19.04,4.67,-6.87,1785093354015.2239
-0.98,-0.692,-0.481,-26.83,6.29,-7.6,1785093354015.402
-1.074,-0.716,-0.448,-24.48,5.4,-9.13,1785093354015.579
-1.174,-0.716,-0.44,-15.08,5.74,-11.41,1785093354025.3389
-1.173,-0.734,-0.348,-2.96,8.45,-13.58,1785093354038.5898
-1.18,-0.721,-0.347,12.82,7.45,-16.66,1785093354044.097
-1.129,-0.67,-0.318,22.34,6.04,-14.86,1785093354054.4797
-1.036,-0.669,-0.333,35.98,3.88,-15.63,1785093354064.9468
-0.997,-0.661,-0.375,49.32,3.78,-21.85,1785093354075.4348
-0.953,-0.624,-0.402,56.31,3.33,-28.6,1785093354088.705
-0.882,-0.58,-0.462,60.76,0.0,-34.0,1785093354094.228
-0.855,-0.539,-0.527,59.57,-2.81,-39.46,1785093354104.606
-0.87,-0.514,-0.536,49.13,-4.76,-43.73,1785093354115.0952
-0.893,-0.521,-0.493,34.64,-8.06,-45.2,1785093354125.548
-0.925,-0.543,-0.455,21.42,-12.12,-44.47,1785093354138.808
-0.963,-0.575,-0.423,12.91,-14.4,-42.05,1785093354144.4878
-0.977,-0.605,-0.399,11.99,-15.96,-38.85,1785093354155.0688
-0.942,-0.604,-0.363,17.4,-18.16,-33.63,1785093354165.6
-0.882,-0.61,-0.325,27.07,-22.13,-26.89,1785093354178.882
-0.82,-0.626,-0.287,38.06,-27.22,-20.02,1785093354184.607
-0.774,-0.656,-0.261,50.33,-32.5,-12.91,1785093354195.0989
-0.773,-0.694,-0.263,61.98,-38.12,-6.87,1785093354205.484
-0.771,-0.687,-0.314,68.91,-43.86,-0.64,1785093354218.731
-0.755,-0.638,-0.383,70.47,-48.07,7.05,1785093354224.562
-0.725,-0.6,-0.449,66.04,-50.26,15.32,1785093354234.997
-0.684,-0.582,-0.496,55.79,-51.03,23.19,1785093354245.6638
-0.63,-0.585,-0.506,41.87,-50.81,29.57,1785093354258.788
-0.566,-0.602,-0.456,27.77,-50.81,32.84,1785093354264.7769
-0.532,-0.638,-0.371,16.79,-51.97,35.25,1785093354274.981
-0.538,-0.707,-0.289,10.8,-56.09,40.25,1785093354285.553
-0.529,-0.751,-0.225,11.51,-59.63,41.87,1785093354298.818
-0.542,-0.736,-0.223,17.3,-61.34,38.58,1785093354304.6982
-0.526,-0.697,-0.325,21.3,-63.94,39.03,1785093354315.027
-0.439,-0.627,-0.47,18.95,-65.19,42.21,1785093354325.614
-0.364,-0.535,-0.529,10.01,-63.6,43.82,1785093354339.004
-0.378,-0.497,-0.52,-4.49,-62.29,43.58,1785093354344.332
-0.439,-0.515,-0.445,-22.98,-62.62,43.52,1785093354355.342
-0.485,-0.58,-0.351,-37.84,-64.24,43.55,1785093354365.736
-0.505,-0.641,-0.293,-43.89,-65.71,43.58,1785093354378.697
-0.497,-0.675,-0.298,-42.94,-66.59,44.5,1785093354384.675
-0.46,-0.673,-0.357,-39.95,-66.41,45.56,1785093354394.9949
-0.414,-0.653,-0.405,-36.9,-65.16,45.81,1785093354405.464
-0.367,-0.631,-0.429,-34.36,-64.03,44.04,1785093354418.6921
-0.339,-0.605,-0.417,-33.51,-63.02,41.17,1785093354424.621
-0.347,-0.597,-0.396,-33.08,-62.62,37.84,1785093354434.8691
-0.375,-0.588,-0.386,-33.3,-62.65,33.11,1785093354445.513
-0.414,-0.572,-0.396,-33.91,-62.47,27.99,1785093354459.012
-0.454,-0.572,-0.435,-35.16,-61.49,23.22,1785093354464.6987
-0.507,-0.588,-0.47,-37.6,-58.87,19.07,1785093354474.907
-0.556,-0.621,-0.472,-39.4,-55.02,16.08,1785093354485.559
-0.61,-0.643,-0.437,-39.09,-50.6,12.94,1785093354498.7432
-0.649,-0.668,-0.386,-37.26,-48.49,11.02,1785093354504.6191
-0.669,-0.68,-0.337,-34.03,-48.13,10.25,1785093354515.033
-0.676,-0.683,-0.311,-28.57,-48.65,10.8,1785093354525.474
-0.688,-0.673,-0.35,-22.92,-49.53,11.87,1785093354538.687
-0.689,-0.645,-0.439,-19.47,-50.17,13.03,1785093354544.624
-0.685,-0.605,-0.523,-19.07,-49.71,13.7,1785093354554.91
-0.682,-0.564,-0.546,-21.7,-48.04,13.98,1785093354565.511
-0.68,-0.548,-0.527,-25.97,-45.93,13.12,1785093354578.905
-0.688,-0.561,-0.478,-30.46,-44.07,10.99,1785093354584.315
-0.703,-0.581,-0.431,-34.18,-43.09,9.06,1785093354594.8801
-0.7,-0.591,-0.408,-37.17,-41.93,8.21,1785093354605.28
-0.69,-0.584,-0.387,-38.76,-40.01,7.69,1785093354615.732
-0.674,-0.579,-0.39,-38.91,-38.91,7.2,1785093354628.9668
-0.656,-0.573,-0.439,-38.33,-37.23,5.16,1785093354634.825
-0.651,-0.561,-0.481,-36.99,-33.69,1.92,1785093354644.9148
-0.651,-0.561,-0.481,-35.49,-30.27,-1.8,1785093354655.42
-0.659,-0.547,-0.472,-34.82,-27.41,-5.68,1785093354665.945
-0.671,-0.534,-0.43,-32.32,-25.36,-8.15,1785093354679.136
-0.688,-0.525,-0.37,-25.61,-24.38,-9.28,1785093354684.9922
-0.706,-0.517,-0.323,-25.61,-24.38,-9.28,1785093354695.029
-0.735,-0.5,-0.31,-16.02,-23.83,-10.07,1785093354705.539
-0.747,-0.499,-0.315,-6.01,-23.77,-11.23,1785093354718.842
-0.751,-0.503,-0.344,0.49,-23.96,-13.46,1785093354724.671
-0.769,-0.505,-0.399,1.16,-24.11,-14.44,1785093354734.6758
-0.773,-0.484,-0.427,-2.75,-22.4,-12.12,1785093354745.255
-0.799,-0.448,-0.424,-7.45,-17.98,-9.74,1785093354755.606
-0.822,-0.453,-0.402,-11.9,-15.63,-6.2,1785093354768.885
-0.817,-0.491,-0.348,-12.97,-13.49,-4.06,1785093354774.7
-0.802,-0.544,-0.297,-9.55,-11.2,-3.27,1785093354784.7139
-0.79,-0.58,-0.257,-4.27,-9.28,-2.69,1785093354795.006
-0.791,-0.579,-0.23,1.31,-7.97,-1.16,1785093354805.0571
-0.79,-0.555,-0.215,6.68,-7.66,2.66,1785093354815.582
-0.782,-0.541,-0.207,13.67,-7.9,5.71,1785093354828.83
-0.786,-0.541,-0.205,24.66,-7.84,5.83,1785093354834.5117
-0.791,-0.541,-0.21,38.06,-8.88,4.64,1785093354844.4932
-0.788,-0.527,-0.221,50.36,-10.53,2.93,1785093354855.0232
-0.786,-0.506,-0.243,57.99,-11.81,1.1,1785093354865.525
-0.789,-0.492,-0.249,60.15,-12.7,0.4,1785093354879.1309
-0.788,-0.488,-0.253,58.29,-13.73,0.24,1785093354884.479
-0.784,-0.479,-0.257,53.68,-14.4,0.15,1785093354894.758
-0.784,-0.47,-0.265,46.54,-15.84,1.37,1785093354909.098
-0.782,-0.462,-0.261,37.78,-17.33,2.99,1785093354915.479
-0.784,-0.456,-0.25,29.18,-18.04,4.27,1785093354929.162
-0.772,-0.461,-0.243,21.58,-19.5,6.81,1785093354934.5789
-0.773,-0.487,-0.248,17.58,-22.03,9.74,1785093354944.833
-0.784,-0.533,-0.261,19.14,-25.15,13.76,1785093354955.473
-0.793,-0.572,-0.279,26.37,-27.13,17.0,1785093354968.694
-0.786,-0.63,-0.324,37.32,-29.76,20.51,1785093354974.5942
-0.785,-0.636,-0.356,48.86,-31.56,23.19,1785093354984.54
-0.801,-0.599,-0.386,63.11,-26.67,24.02,1785093354995.411
-0.813,-0.549,-0.389,74.22,-16.57,24.23,1785093355008.7039
-0.813,-0.503,-0.351,80.54,-4.21,24.81,1785093355014.802
-0.804,-0.475,-0.297,84.99,7.81,25.61,1785093355024.657
-0.793,-0.441,-0.265,87.92,17.94,25.67,1785093355035.262
-0.789,-0.414,-0.238,88.11,26.55,23.22,1785093355045.7712
-0.786,-0.412,-0.232,86.25,33.33,19.44,1785093355059.0852
-0.786,-0.406,-0.255,82.37,40.53,14.34,1785093355064.821
-0.815,-0.413,-0.272,75.99,48.46,9.06,1785093355075.1018
-0.845,-0.477,-0.302,69.12,54.6,8.88,1785093355085.772
-0.876,-0.506,-0.318,62.72,58.9,9.34,1785093355098.904
-0.908,-0.508,-0.303,59.82,61.89,12.76,1785093355104.414
-0.914,-0.523,-0.317,63.26,65.65,18.86,1785093355115.0178
-0.918,-0.509,-0.336,66.65,69.64,24.38,1785093355125.5369
-0.914,-0.489,-0.361,70.35,74.19,29.33,1785093355138.9128
-0.919,-0.493,-0.394,74.04,78.98,33.75,1785093355144.706
-0.929,-0.503,-0.433,75.99,83.68,37.57,1785093355154.999
-0.944,-0.499,-0.444,77.24,89.05,41.14,1785093355165.2522
-0.965,-0.479,-0.427,80.51,94.52,44.77,1785093355178.828
-0.981,-0.458,-0.411,85.67,98.88,48.43,1785093355184.8901
-0.985,-0.446,-0.408,92.56,101.78,51.42,1785093355195.061
-0.979,-0.445,-0.439,101.08,103.79,53.22,1785093355205.843
-0.969,-0.422,-0.472,107.88,104.92,54.14,1785093355218.925
-0.967,-0.374,-0.499,110.48,104.59,54.75,1785093355224.8071
-0.963,-0.307,-0.535,107.36,102.94,56.06,1785093355235.7812
-0.965,-0.243,-0.57,98.61,101.63,57.37,1785093355249.1301
-0.973,-0.228,-0.602,87.13,101.66,56.49,1785093355255.015
-0.987,-0.255,-0.613,74.65,102.79,51.91,1785093355265.514
-0.994,-0.302,-0.615,64.46,104.68,45.66,1785093355278.6829
-0.993,-0.367,-0.618,58.05,107.27,40.16,1785093355284.668
-1.003,-0.429,-0.624,54.63,110.02,35.31,1785093355295.0981
-1.013,-0.482,-0.639,52.25,112.55,32.62,1785093355305.954
-1.025,-0.513,-0.66,48.77,114.9,32.35,1785093355319.061
-1.045,-0.528,-0.673,43.43,117.92,33.78,1785093355324.9778
-1.067,-0.548,-0.668,38.88,121.43,36.44,1785093355335.51
-1.081,-0.544,-0.638,36.65,125.46,38.21,1785093355348.5762
-1.053,-0.561,-0.621,40.04,131.02,39.61,1785093355354.732
-1.08,-0.53,-0.622,45.66,136.05,37.6,1785093355365.3372
-1.086,-0.531,-0.623,50.48,136.66,38.79,1785093355375.915
-1.068,-0.557,-0.646,55.94,139.93,36.99,1785093355389.062
-1.064,-0.566,-0.672,59.48,144.63,33.72,1785093355395.137
-1.07,-0.583,-0.686,61.59,146.43,31.56,1785093355405.594
-1.083,-0.599,-0.678,64.76,148.78,27.34,1785093355418.7979
-1.083,-0.63,-0.665,70.99,152.47,21.91,1785093355424.735
-1.073,-0.647,-0.647,79.2,156.25,16.51,1785093355435.235
-1.057,-0.654,-0.652,86.79,159.03,11.72,1785093355445.868
-1.056,-0.645,-0.635,92.2,160.74,7.54,1785093355458.9382
-1.056,-0.647,-0.624,95.55,160.13,4.21,1785093355464.926
-1.041,-0.661,-0.642,95.92,159.43,0.09,1785093355475.323
-1.026,-0.681,-0.667,94.55,159.09,-5.19,1785093355485.9353
-1.019,-0.692,-0.669,92.44,158.57,-10.65,1785093355499.2168
-1.008,-0.709,-0.652,91.16,158.54,-16.08,1785093355505.1091
-0.991,-0.724,-0.638,91.19,158.64,-22.0,1785093355515.5369
-0.967,-0.718,-0.615,90.33,157.84,-26.98,1785093355529.533
-0.943,-0.717,-0.63,87.56,156.25,-31.95,1785093355534.548
-0.93,-0.726,-0.662,81.55,154.91,-37.23,1785093355545.3499
-0.923,-0.732,-0.656,73.31,153.9,-42.73,1785093355558.546
-0.909,-0.746,-0.636,66.23,152.96,-47.91,1785093355564.5671
-0.891,-0.769,-0.631,62.53,152.23,-52.67,1785093355574.999
-0.878,-0.776,-0.605,60.61,151.52,-55.91,1785093355585.67
-0.861,-0.77,-0.58,59.76,149.88,-58.2,1785093355599.003
-0.825,-0.765,-0.589,58.2,147.86,-60.3,1785093355604.886
-0.798,-0.763,-0.613,52.58,145.7,-61.59,1785093355615.254
-0.803,-0.789,-0.677,43.12,143.99,-61.95,1785093355628.609
-0.785,-0.844,-0.755,29.88,144.9,-62.38,1785093355634.552
-0.744,-0.88,-0.75,12.09,147.1,-64.27,1785093355645.025
-0.726,-0.918,-0.705,-3.94,146.79,-66.41,1785093355655.606
-0.718,-0.94,-0.652,-13.76,144.9,-67.93,1785093355668.875
-0.68,-0.934,-0.627,-16.85,142.03,-68.61,1785093355674.835
-0.66,-0.891,-0.617,-15.02,139.41,-68.85,1785093355685.272
-0.654,-0.831,-0.613,-8.58,136.91,-70.47,1785093355695.842
-0.626,-0.764,-0.632,-0.82,133.76,-73.46,1785093355719.541
-0.593,-0.707,-0.643,7.32,132.88,-79.35,1785093355720.468
-0.592,-0.673,-0.627,15.41,132.39,-85.45,1785093355725.065
-0.549,-0.677,-0.636,23.16,129.52,-88.63,1785093355738.4287
-0.493,-0.673,-0.629,30.24,128.42,-91.49,1785093355744.115
-0.456,-0.687,-0.63,37.17,127.35,-92.1,1785093355754.823
-0.428,-0.718,-0.65,42.42,126.07,-91.83,1785093355765.617
-0.415,-0.741,-0.656,44.13,124.7,-91.28,1785093355778.808
-0.393,-0.749,-0.628,44.62,123.84,-90.58,1785093355784.491
-0.348,-0.733,-0.602,44.83,122.9,-89.51,1785093355795.234
-0.314,-0.704,-0.595,45.96,122.23,-88.2,1785093355808.715
-0.299,-0.682,-0.563,48.19,120.79,-85.3,1785093355814.651
-0.257,-0.685,-0.557,49.99,117.62,-84.23,1785093355825.248
-0.215,-0.693,-0.545,49.78,114.81,-85.39,1785093355835.801
-0.187,-0.713,-0.517,50.75,111.82,-86.61,1785093355849.1562
-0.173,-0.734,-0.5,53.16,108.25,-87.19,1785093355854.995
-0.152,-0.761,-0.478,57.34,105.23,-87.22,1785093355865.448
-0.142,-0.772,-0.456,62.5,101.72,-88.53,1785093355878.9329
-0.116,-0.78,-0.457,68.09,98.3,-89.11,1785093355884.655
-0.07,-0.785,-0.445,74.25,94.55,-90.06,1785093355894.85
-0.013,-0.788,-0.446,80.9,90.4,-92.01,1785093355905.542
0.019,-0.781,-0.429,85.94,86.0,-93.97,1785093355918.803
0.041,-0.773,-0.408,88.9,81.06,-95.25,1785093355924.725
0.041,-0.773,-0.408,91.22,76.14,-96.32,1785093355934.85
0.045,-0.785,-0.391,91.28,71.63,-97.48,1785093355945.629
0.043,-0.784,-0.371,88.05,67.81,-99.03,1785093355958.864
0.07,-0.763,-0.349,83.68,64.49,-100.65,1785093355964.823
0.104,-0.745,-0.303,82.06,60.09,-102.51,1785093355975.331
0.138,-0.737,-0.254,82.06,60.09,-102.51,1785093355985.846
0.167,-0.731,-0.241,84.05,55.36,-104.43,1785093355999.183
0.186,-0.735,-0.247,86.61,51.64,-106.23,1785093356005.008
0.199,-0.743,-0.249,86.98,48.34,-108.04,1785093356015.6008
0.215,-0.754,-0.226,84.96,45.08,-110.14,1785093356028.8398
0.244,-0.76,-0.199,82.89,40.99,-112.25,1785093356034.83
0.252,-0.761,-0.168,81.24,36.68,-112.89,1785093356045.068
0.265,-0.762,-0.157,80.32,32.11,-112.03,1785093356055.903
0.288,-0.751,-0.149,79.84,27.53,-111.51,1785093356069.55
0.305,-0.722,-0.142,79.23,24.05,-112.37,1785093356074.719
0.313,-0.705,-0.135,78.86,20.78,-113.38,1785093356085.622
0.315,-0.693,-0.1,77.82,17.15,-114.14,1785093356098.9631
0.329,-0.685,-0.096,76.27,12.91,-114.66,1785093356104.827
0.353,-0.679,-0.102,74.71,9.67,-114.9,1785093356115.12
0.373,-0.677,-0.091,74.04,6.41,-114.69,1785093356125.777
0.4,-0.664,-0.098,74.04,2.35,-114.81,1785093356139.013
0.419,-0.641,-0.094,73.0,-1.25,-114.02,1785093356145.209
0.457,-0.642,-0.081,72.27,-4.79,-112.83,1785093356155.242
0.477,-0.628,-0.056,72.05,-9.49,-112.25,1785093356165.7952
0.469,-0.609,-0.023,73.06,-14.13,-110.05,1785093356178.892
0.478,-0.598,-0.018,75.2,-19.26,-108.43,1785093356184.663
0.496,-0.589,-0.012,77.67,-23.71,-108.31,1785093356195.452
0.518,-0.587,-0.037,81.18,-27.74,-109.47,1785093356208.7622
0.494,-0.595,-0.08,82.52,-29.11,-109.62,1785093356214.7908
0.541,-0.654,-0.097,86.28,-30.21,-110.6,1785093356225.2002
0.526,-0.644,-0.097,94.18,-31.01,-114.05,1785093356235.713
0.514,-0.576,-0.078,102.11,-32.84,-112.7,1785093356249.3599
0.537,-0.509,-0.053,109.2,-36.68,-109.38,1785093356254.6848
0.572,-0.504,-0.044,119.72,-41.44,-107.94,1785093356265.9058
0.587,-0.486,-0.082,128.94,-46.57,-109.1,1785093356279.152
0.611,-0.465,-0.132,133.34,-48.22,-108.55,1785093356285.107
0.646,-0.424,-0.161,128.76,-50.42,-107.18,1785093356295.629
0.651,-0.395,-0.147,117.22,-53.41,-103.64,1785093356309.273
0.646,-0.406,-0.138,107.52,-56.09,-100.34,1785093356314.813
0.667,-0.402,-0.131,102.91,-57.68,-98.18,1785093356325.757
0.69,-0.408,-0.125,101.96,-59.18,-95.95,1785093356338.917
0.705,-0.413,-0.112,101.26,-61.13,-94.12,1785093356344.934
0.705,-0.422,-0.132,100.28,-63.39,-90.79,1785093356355.373
0.701,-0.424,-0.141,99.89,-64.85,-86.89,1785093356365.917
0.708,-0.433,-0.155,100.13,-65.52,-85.21,1785093356379.078
0.71,-0.429,-0.16,98.03,-65.86,-85.45,1785093356385.577
0.721,-0.431,-0.156,95.25,-66.41,-86.06,1785093356395.5059
0.726,-0.438,-0.156,93.69,-68.0,-86.89,1785093356408.661
0.725,-0.428,-0.163,90.43,-69.89,-87.44,1785093356414.712
0.707,-0.425,-0.176,85.51,-72.18,-87.37,1785093356424.856
0.683,-0.431,-0.197,80.57,-74.37,-87.22,1785093356435.321
0.687,-0.413,-0.228,75.84,-75.81,-86.89,1785093356448.8298
0.728,-0.384,-0.252,72.85,-75.53,-86.76,1785093356454.571
0.749,-0.364,-0.251,71.05,-75.23,-85.97,1785093356464.9292
0.745,-0.367,-0.227,72.42,-75.53,-83.93,1785093356475.3862
0.753,-0.361,-0.236,77.88,-76.02,-82.46,1785093356489.097
0.809,-0.319,-0.27,83.41,-75.08,-80.9,1785093356494.72
0.871,-0.276,-0.267,87.31,-73.85,-77.79,1785093356505.117
0.851,-0.245,-0.26,88.11,-74.56,-73.06,1785093356515.475
0.798,-0.233,-0.252,86.55,-75.66,-68.79,1785093356528.7449
0.726,-0.236,-0.252,84.6,-76.88,-66.53,1785093356534.6719
0.68,-0.229,-0.256,80.36,-77.85,-65.25,1785093356544.9119
0.658,-0.229,-0.272,75.23,-78.8,-64.7,1785093356555.421
0.654,-0.229,-0.287,70.93,-79.2,-64.3,1785093356568.678
0.666,-0.212,-0.298,69.52,-79.04,-63.91,1785093356574.6309
0.699,-0.189,-0.303,70.28,-79.29,-62.2,1785093356584.9011
0.716,-0.177,-0.301,73.4,-80.23,-61.25,1785093356595.4111
0.719,-0.178,-0.313,78.22,-82.22,-61.28,1785093356608.5032
0.715,-0.185,-0.323,84.32,-84.29,-61.86,1785093356614.409
0.68,-0.193,-0.32,90.88,-86.61,-62.32,1785093356624.845
0.645,-0.201,-0.329,97.42,-89.6,-62.53,1785093356635.4238
0.605,-0.197,-0.339,103.55,-92.62,-63.54,1785093356648.6887
0.6,-0.185,-0.362,109.74,-94.82,-65.28,1785093356654.6062
0.653,-0.158,-0.411,114.93,-96.47,-68.76,1785093356665.277
0.696,-0.115,-0.471,118.02,-97.99,-70.04,1785093356675.773
0.704,-0.094,-0.487,120.3,-98.54,-67.35,1785093356689.019
0.662,-0.098,-0.496,120.46,-99.7,-65.07,1785093356695.0159
0.63,-0.101,-0.485,114.93,-100.01,-62.14,1785093356705.761
0.603,-0.117,-0.429,107.82,-100.44,-60.55,1785093356718.817
0.59,-0.152,-0.38,105.5,-101.63,-61.4,1785093356724.7942
0.618,-0.174,-0.377,109.1,-102.42,-62.99,1785093356735.541
0.636,-0.156,-0.4,115.7,-102.69,-62.72,1785093356748.7932
0.644,-0.106,-0.467,122.32,-102.66,-60.3,1785093356754.724
0.657,-0.05,-0.517,125.34,-101.78,-56.12,1785093356765.716
0.671,-0.035,-0.533,126.01,-101.54,-51.58,1785093356778.749
0.657,-0.082,-0.542,125.0,-101.75,-47.88,1785093356784.771
0.619,-0.121,-0.545,119.57,-100.71,-46.02,1785093356795.46
0.6,-0.15,-0.515,109.9,-99.19,-44.74,1785093356808.674
0.575,-0.212,-0.444,101.38,-98.48,-44.53,1785093356814.7122
0.542,-0.266,-0.409,98.64,-99.22,-45.66,1785093356825.093
0.541,-0.259,-0.423,100.13,-98.06,-46.11,1785093356835.7197
0.583,-0.193,-0.476,104.34,-95.98,-43.37,1785093356848.885
0.654,-0.111,-0.49,110.78,-94.64,-37.14,1785093356854.887
0.688,-0.093,-0.444,121.28,-95.86,-31.59,1785093356865.47
0.636,-0.133,-0.465,131.23,-99.28,-27.74,1785093356878.6711
0.58,-0.182,-0.515,130.92,-101.57,-23.1,1785093356884.643
0.527,-0.224,-0.515,121.59,-102.79,-19.99,1785093356895.318
0.475,-0.281,-0.493,109.68,-102.42,-17.85,1785093356908.5781
0.438,-0.317,-0.474,98.33,-101.2,-16.66,1785093356914.5012
0.444,-0.321,-0.455,90.85,-99.46,-14.86,1785093356925.0613
0.467,-0.3,-0.467,88.9,-99.4,-12.54,1785093356935.3499
0.479,-0.268,-0.495,89.54,-100.59,-9.52,1785093356948.724
0.462,-0.273,-0.53,92.14,-102.08,-6.38,1785093356954.914
0.445,-0.299,-0.607,93.08,-102.82,-2.72,1785093356965.099
0.425,-0.322,-0.668,89.88,-100.65,0.67,1785093356975.617
0.385,-0.329,-0.656,83.86,-96.32,3.81,1785093356988.846
0.351,-0.357,-0.595,81.51,-91.07,6.81,1785093356994.772
0.37,-0.402,-0.531,88.2,-86.12,8.61,1785093357004.742
0.411,-0.436,-0.486,101.84,-83.01,10.01,1785093357015.441
0.415,-0.458,-0.455,116.64,-82.34,12.54,1785093357028.96
0.384,-0.468,-0.45,126.96,-83.16,16.21,1785093357034.741
0.357,-0.482,-0.482,130.71,-83.71,19.93,1785093357045.136
0.324,-0.51,-0.514,130.44,-82.03,22.89,1785093357055.792
0.293,-0.537,-0.509,130.65,-78.49,25.06,1785093357069.062
0.287,-0.582,-0.483,138.95,-74.13,26.18,1785093357074.916
0.334,-0.642,-0.493,158.33,-70.71,27.62,1785093357085.5479
0.397,-0.654,-0.562,180.15,-69.46,31.8,1785093357098.874
0.392,-0.64,-0.627,195.1,-67.32,38.67,1785093357104.64
0.341,-0.639,-0.649,198.61,-63.3,45.47,1785093357115.306
0.306,-0.648,-0.623,190.71,-58.02,50.6,1785093357126.076
0.296,-0.69,-0.56,180.24,-52.1,53.44,1785093357139.084
0.31,-0.732,-0.493,173.96,-47.55,54.54,1785093357145.11
0.331,-0.749,-0.454,169.38,-46.17,56.31,1785093357155.5269
0.315,-0.777,-0.416,164.16,-46.54,58.81,1785093357168.767
0.25,-0.804,-0.386,156.22,-47.24,61.53,1785093357174.7188
0.188,-0.839,-0.404,147.47,-46.75,64.58,1785093357185.004
0.129,-0.877,-0.422,141.03,-43.95,66.41,1785093357195.782
0.106,-0.892,-0.437,137.97,-38.42,68.3,1785093357209.1729
0.106,-0.892,-0.437,137.64,-31.95,71.44,1785093357214.978
0.139,-0.907,-0.457,136.08,-27.1,74.83,1785093357225.575
0.155,-0.917,-0.454,130.86,-23.71,78.95,1785093357238.838
0.122,-0.914,-0.416,122.78,-21.33,83.29,1785093357244.7878
0.092,-0.924,-0.396,111.0,-18.8,86.73,1785093357255.317
0.071,-0.934,-0.359,111.0,-18.8,86.73,1785093357265.934
0.038,-0.942,-0.277,99.15,-15.53,89.39,1785093357279.144
0.006,-0.972,-0.223,93.66,-12.54,91.01,1785093357285.501
0.021,-1.004,-0.218,93.87,-9.22,91.56,1785093357295.233
0.04,-1.01,-0.214,93.84,-6.56,92.04,1785093357305.955
0.031,-1.007,-0.222,90.3,-6.1,93.81,1785093357318.9868
-0.006,-1.04,-0.258,84.05,-6.47,95.22,1785093357324.5042
-0.073,-1.107,-0.203,81.21,-4.97,93.97,1785093357334.794
-0.152,-1.191,-0.1,92.38,-2.93,91.28,1785093357345.376
-0.191,-1.232,-0.042,120.33,-0.12,89.51,1785093357355.9849
-0.167,-1.221,-0.021,157.51,5.19,88.93,1785093357369.2742
-0.112,-1.174,-0.065,191.02,10.19,88.44,1785093357375.114
-0.056,-1.133,-0.192,207.46,14.07,87.8,1785093357385.567
-0.019,-1.112,-0.3,198.95,19.29,85.82,1785093357398.9902
-0.03,-1.086,-0.321,169.47,25.51,83.1,1785093357404.778
-0.055,-1.079,-0.253,134.01,32.93,82.09,1785093357415.399
-0.067,-1.071,-0.158,107.18,40.86,82.61,1785093357426.1729
-0.072,-1.055,-0.003,95.52,49.26,84.48,1785093357439.2122
-0.11,-1.095,0.151,104.07,54.93,86.03,1785093357445.203
-0.145,-1.157,0.219,129.06,58.38,87.31,1785093357455.53
-0.16,-1.178,0.235,158.45,62.72,90.15,1785093357468.8398
-0.2,-1.156,0.203,178.41,66.93,95.58,1785093357474.725
-0.269,-1.122,0.134,181.65,72.12,104.8,1785093357485.598
-0.316,-1.103,0.086,167.97,78.19,115.45,1785093357498.652
-0.323,-1.125,0.071,143.28,85.06,123.26,1785093357504.5603
-0.31,-1.148,0.105,113.83,93.39,128.18,1785093357515.35
-0.29,-1.153,0.17,82.13,101.02,133.95,1785093357528.547
-0.298,-1.187,0.26,53.9,106.85,139.84,1785093357534.395
-0.354,-1.235,0.357,28.87,108.68,143.96,1785093357545.3281
-0.432,-1.27,0.417,7.57,107.67,147.43,1785093357555.9092
-0.489,-1.286,0.458,-8.76,104.92,152.04,1785093357569.2
-0.518,-1.289,0.48,-16.91,100.47,155.86,1785093357575.0698
-0.52,-1.281,0.443,-16.54,95.37,157.9,1785093357585.684
-0.505,-1.246,0.318,-13.95,90.21,159.06,1785093357599.0652
-0.482,-1.224,0.166,-15.38,87.53,160.07,1785093357604.843
-0.482,-1.189,0.054,-27.74,86.49,159.95,1785093357615.51
-0.468,-1.167,0.015,-50.81,86.28,162.02,1785093357628.665
-0.485,-1.179,0.083,-76.48,86.18,157.2,1785093357634.718
-0.572,-1.291,0.164,-97.78,83.74,147.07,1785093357645.191
-0.631,-1.412,0.226,-112.89,79.56,141.18,1785093357655.854
-0.632,-1.416,0.287,-114.23,77.36,139.13,1785093357669.196
-0.608,-1.347,0.303,-99.61,76.11,138.43,1785093357675.148
-0.594,-1.277,0.277,-79.68,71.75,136.48,1785093357685.496
-0.602,-1.219,0.247,-58.47,65.92,132.05,1785093357699.008
-0.58,-1.195,0.199,-34.76,60.91,127.54,1785093357704.8582
-0.621,-1.111,0.132,-11.69,57.77,113.9,1785093357715.358
-0.641,-1.093,0.072,5.1,53.9,104.65,1785093357726.0361
-0.674,-1.106,0.027,12.42,51.21,101.93,1785093357739.249
-0.662,-1.074,0.009,14.92,50.87,103.67,1785093357744.7651
-0.657,-1.012,-0.009,16.08,52.71,103.49,1785093357755.356
-0.65,-0.955,-0.028,11.08,54.69,103.21,1785093357768.796
-0.65,-0.902,-0.019,-2.66,55.76,102.27,1785093357774.755
-0.652,-0.899,-0.001,-19.53,55.54,101.69,1785093357785.1892
-0.663,-0.917,0.016,-35.34,55.45,100.56,1785093357795.676
-0.669,-0.928,0.032,-47.61,55.48,101.08,1785093357809.312
-0.66,-0.912,0.019,-55.02,55.36,102.3,1785093357814.849
-0.653,-0.863,-0.0,-59.57,55.64,102.45,1785093357825.6729
-0.651,-0.83,-0.014,-61.86,55.6,102.48,1785093357838.7917
-0.651,-0.824,-0.018,-60.79,55.39,102.05,1785093357844.7603
-0.657,-0.846,-0.023,-54.96,54.99,100.83,1785093357855.247
-0.666,-0.867,-0.022,-45.53,54.6,99.7,1785093357865.778
-0.67,-0.878,-0.024,-33.08,54.2,99.4,1785093357878.942
-0.672,-0.886,-0.034,-19.9,53.87,100.5,1785093357885.079
-0.682,-0.871,-0.047,-8.94,53.68,101.23,1785093357895.409
-0.691,-0.836,-0.054,-0.7,53.8,101.6,1785093357905.877
-0.695,-0.786,-0.054,5.19,53.68,102.11,1785093357919.0242
-0.705,-0.727,-0.053,9.4,52.8,101.84,1785093357925.026
-0.715,-0.683,-0.048,13.95,50.87,99.61,1785093357935.095
-0.73,-0.676,-0.049,20.26,48.01,93.91,1785093357945.929
-0.745,-0.693,-0.061,27.04,44.95,86.64,1785093357959.147
-0.755,-0.709,-0.068,33.97,41.96,79.71,1785093357965.3188
-0.765,-0.721,-0.081,41.9,39.09,73.73,1785093357975.357
-0.774,-0.724,-0.098,49.68,36.41,69.31,1785093357985.865
-0.782,-0.719,-0.123,55.48,34.21,66.32,1785093357999.043
-0.792,-0.703,-0.144,59.05,32.84,63.88,1785093358005.3198
-0.8,-0.679,-0.158,60.15,31.59,61.86,1785093358015.4712
-0.809,-0.653,-0.171,58.96,30.46,60.27,1785093358025.8738
-0.819,-0.625,-0.177,55.51,29.54,59.18,1785093358039.134
-0.82,-0.593,-0.182,49.9,28.5,58.63,1785093358045.101
-0.823,-0.563,-0.186,42.36,27.83,58.63,1785093358055.3337
-0.826,-0.543,-0.19,34.49,26.92,58.14,1785093358065.939
-0.835,-0.522,-0.185,26.28,25.97,57.34,1785093358079.218
-0.84,-0.505,-0.175,18.62,24.35,57.62,1785093358085.094
-0.844,-0.489,-0.168,12.42,22.19,58.29,1785093358095.348
-0.85,-0.469,-0.164,7.17,19.93,58.6,1785093358105.8293
-0.86,-0.458,-0.162,3.14,17.18,58.96,1785093358119.085
-0.864,-0.45,-0.171,0.37,14.37,58.72,1785093358124.9932
-0.877,-0.445,-0.178,-2.23,11.6,58.23,1785093358135.0542
-0.89,-0.45,-0.185,-3.97,8.33,58.53,1785093358145.3838
-0.901,-0.447,-0.202,-5.25,5.34,58.75,1785093358155.764
-0.913,-0.443,-0.218,-6.62,2.96,58.78,1785093358169.197
-0.919,-0.439,-0.229,-7.72,0.55,59.02,1785093358174.345
-0.927,-0.427,-0.239,-8.58,-1.56,58.53,1785093358184.553
-0.937,-0.419,-0.245,-9.16,-3.75,57.56,1785093358195.141
-0.944,-0.422,-0.255,-7.9,-6.1,56.0,1785093358205.446
-0.952,-0.417,-0.263,-7.02,-7.26,53.8,1785093358215.816
-0.953,-0.394,-0.271,-8.64,-8.33,52.43,1785093358229.0308
-0.957,-0.388,-0.267,-12.24,-10.35,51.61,1785093358234.7678
-0.958,-0.411,-0.265,-12.91,-11.51,49.04,1785093358245.2732
-0.964,-0.421,-0.274,-10.04,-10.53,43.24,1785093358255.893
-0.963,-0.428,-0.283,-5.1,-9.61,38.48,1785093358268.9841
-0.965,-0.436,-0.296,3.75,-9.06,33.91,1785093358274.5889
-0.966,-0.402,-0.311,15.32,-7.57,28.5,1785093358284.668
-0.96,-0.37,-0.319,25.39,-5.13,24.51,1785093358295.265
-0.957,-0.333,-0.311,32.04,-2.17,21.12,1785093358305.5461
-0.941,-0.306,-0.31,36.01,0.58,17.94,1785093358318.868
-0.939,-0.307,-0.301,36.19,2.99,14.86,1785093358324.645
-0.921,-0.29,-0.295,35.31,4.85,10.96,1785093358334.544
-0.907,-0.273,-0.281,32.2,7.42,8.82,1785093358345.1719
-0.92,-0.296,-0.274,27.5,9.0,6.13,1785093358355.5598
-0.908,-0.29,-0.27,22.95,10.04,3.14,1785093358368.8108
-0.92,-0.3,-0.27,17.3,11.38,1.86,1785093358374.728
-0.931,-0.299,-0.264,10.32,11.87,-1.37,1785093358384.725
-0.923,-0.299,-0.255,3.75,12.48,-3.94,1785093358395.156
-0.924,-0.307,-0.248,-1.62,13.28,-5.83,1785093358405.529
-0.925,-0.313,-0.235,-4.85,14.65,-8.55,1785093358415.7231
-0.933,-0.304,-0.237,-8.39,13.37,-10.77,1785093358429.154
-0.929,-0.299,-0.232,-12.21,12.15,-11.66,1785093358435.169
-0.93,-0.3,-0.232,-14.1,13.31,-11.93,1785093358445.381
-0.928,-0.3,-0.23,-15.38,14.13,-12.48,1785093358455.6602
-0.924,-0.3,-0.227,-16.33,14.19,-12.97,1785093358469.2832
-0.926,-0.293,-0.222,-16.97,14.13,-13.46,1785093358474.918
-0.924,-0.296,-0.215,-16.48,13.7,-13.28,1785093358485.259
-0.922,-0.299,-0.208,-13.28,13.76,-13.4,1785093358496.027
-0.922,-0.299,-0.208,-9.19,13.64,-13.67,1785093358509.042
-0.927,-0.292,-0.208,-5.43,12.48,-13.09,1785093358514.959
-0.919,-0.287,-0.208,-1.56,11.75,-12.57,1785093358524.986
-0.916,-0.281,-0.208,2.81,11.26,-12.09,1785093358535.368
-0.914,-0.278,-0.206,2.81,11.26,-12.09,1785093358545.9731
-0.911,-0.275,-0.203,7.39,10.62,-12.18,1785093358559.188
-0.911,-0.256,-0.206,10.59,10.13,-12.21,1785093358565.1572
-0.907,-0.247,-0.209,11.72,9.19,-11.32,1785093358575.0542
-0.903,-0.236,-0.207,11.6,8.12,-11.08,1785093358585.616
-0.9,-0.234,-0.207,10.93,7.2,-10.5,1785093358598.9731
-0.902,-0.237,-0.205,10.1,6.29,-9.61,1785093358604.4521
-0.904,-0.239,-0.205,9.7,5.28,-9.06,1785093358614.655
-0.904,-0.227,-0.213,9.28,4.18,-8.21,1785093358624.8372
-0.908,-0.219,-0.221,7.48,3.11,-6.99,1785093358635.184
-0.91,-0.233,-0.224,5.62,2.01,-5.74,1785093358645.463
-0.911,-0.237,-0.227,4.52,0.95,-4.58,1785093358655.749
-0.912,-0.241,-0.231,3.69,0.06,-3.05,1785093358668.961
-0.912,-0.257,-0.231,3.94,-0.79,-1.4,1785093358674.5059
-0.911,-0.277,-0.229,6.5,-1.65,0.27,1785093358684.387
-0.913,-0.279,-0.229,10.62,-2.26,1.59,1785093358694.7808
-0.912,-0.28,-0.229,14.74,-2.5,3.05,1785093358705.145
-0.909,-0.284,-0.226,18.8,-2.62,4.55,1785093358715.5452
-0.905,-0.286,-0.223,22.98,-3.11,5.74,1785093358725.937
-0.904,-0.284,-0.221,26.67,-3.57,6.71,1785093358739.228
-0.901,-0.282,-0.219,29.91,-3.91,7.42,1785093358744.821
-0.9,-0.284,-0.219,32.87,-4.24,7.9,1785093358754.878
-0.902,-0.281,-0.221,35.31,-4.58,8.15,1785093358765.2312
-0.901,-0.285,-0.224,37.08,-4.43,8.15,1785093358775.469
-0.902,-0.287,-0.228,37.97,-4.36,7.81,1785093358788.861
-0.904,-0.287,-0.226,37.93,-4.49,7.39,1785093358794.545
-0.908,-0.291,-0.223,37.39,-4.61,7.08,1785093358804.537
-0.912,-0.295,-0.223,36.26,-4.43,6.68,1785093358814.822
-0.908,-0.301,-0.224,35.16,-4.49,6.78,1785093358825.305
-0.912,-0.302,-0.22,34.03,-3.63,6.13,1785093358835.53
-0.914,-0.308,-0.227,32.2,-4.06,6.56,1785093358848.986
-0.908,-0.32,-0.227,30.58,-4.43,6.99,1785093358854.615
-0.91,-0.315,-0.23,29.76,-3.75,6.38,1785093358864.6519
-0.92,-0.33,-0.231,28.75,-3.23,6.5,1785093358874.9949
-0.915,-0.319,-0.235,27.65,-3.02,6.38,1785093358885.344
-0.911,-0.323,-0.235,25.85,-2.78,6.99,1785093358895.794
-0.908,-0.337,-0.234,24.93,-2.5,6.9,1785093358909.006
-0.901,-0.331,-0.235,24.69,-2.23,6.68,1785093358914.659
-0.9,-0.334,-0.234,24.08,-1.95,6.47,1785093358924.601
-0.898,-0.331,-0.232,23.83,-1.86,5.68,1785093358934.882
