ax,ay,az,gx,gy,gz,timestamp_ms
-0.905,-0.298,-0.209,-6.9,-2.53,-1.13,1785093368134.6519
-0.901,-0.297,-0.207,-6.5,-2.96,-1.19,1785093368134.9531
-0.897,-0.306,-0.205,-5.22,-3.3,-0.89,1785093368135.2397
-0.899,-0.3,-0.207,-4.0,-3.54,-0.95,1785093368135.5278
-0.902,-0.302,-0.206,-3.33,-3.88,-1.34,1785093368135.814
-0.897,-0.309,-0.209,-2.38,-4.03,-1.19,1785093368136.102
-0.9,-0.305,-0.215,-1.77,-4.06,-1.4,1785093368136.3862
-0.901,-0.3,-0.217,-1.59,-4.18,-1.68,1785093368136.719
-0.906,-0.296,-0.218,-1.89,-4.24,-2.23,1785093368137.0298
-0.91,-0.296,-0.224,-2.35,-4.39,-2.5,1785093368137.337
-0.916,-0.301,-0.221,-3.75,-4.09,-2.59,1785093368137.613
-0.913,-0.316,-0.221,-4.03,-4.21,-1.89,1785093368137.917
-0.914,-0.301,-0.225,-4.27,-3.54,-2.32,1785093368138.201
-0.912,-0.313,-0.225,-4.97,-3.14,-1.77,1785093368138.456
-0.908,-0.301,-0.226,-5.65,-2.75,-1.28,1785093368138.701
-0.911,-0.284,-0.226,-7.08,-2.23,-1.8,1785093368138.951
-0.911,-0.29,-0.22,-9.03,-2.2,-2.17,1785093368139.201
-0.907,-0.309,-0.218,-9.86,-2.26,-2.14,1785093368139.446
-0.909,-0.3,-0.216,-9.49,-1.98,-2.53,1785093368139.6868
-0.91,-0.29,-0.218,-9.49,-1.86,-2.66,1785093368139.937
-0.911,-0.302,-0.217,-10.07,-1.8,-2.66,1785093368140.1912
-0.91,-0.308,-0.217,-9.61,-1.77,-2.29,1785093368140.439
-0.912,-0.291,-0.221,-9.25,-1.71,-2.75,1785093368140.687
-0.916,-0.281,-0.219,-10.47,-1.77,-3.11,1785093368140.939
-0.915,-0.285,-0.217,-12.27,-1.98,-3.33,1785093368141.186
-0.913,-0.295,-0.218,-13.52,-1.95,-3.08,1785093368141.4358
-0.917,-0.289,-0.224,-14.31,-1.83,-3.23,1785093368141.686
-0.913,-0.291,-0.222,-15.11,-2.04,-2.87,1785093368141.9368
-0.912,-0.294,-0.218,-15.96,-1.89,-2.47,1785093368142.184
-0.915,-0.289,-0.214,-16.85,-2.08,-2.53,1785093368142.436
-0.912,-0.291,-0.21,-17.27,-2.29,-2.62,1785093368142.689
-0.911,-0.299,-0.208,-17.12,-2.47,-1.89,1785093368142.939
-0.915,-0.285,-0.209,-16.79,-2.62,-2.41,1785093368143.1958
-0.909,-0.291,-0.205,-16.27,-2.84,-2.17,1785093368143.448
-0.909,-0.291,-0.207,-15.5,-2.78,-2.01,1785093368143.7
-0.909,-0.289,-0.207,-14.5,-2.84,-1.59,1785093368143.95
-0.909,-0.286,-0.209,-13.4,-2.87,-1.37,1785093368144.202
-0.909,-0.283,-0.209,-12.85,-2.93,-1.46,1785093368144.4531
-0.911,-0.284,-0.208,-12.48,-2.99,-1.37,1785093368144.695
-0.913,-0.286,-0.207,-12.24,-3.08,-1.4,1785093368144.926
-0.913,-0.288,-0.206,-11.63,-3.39,-1.19,1785093368145.159
-0.915,-0.29,-0.205,-10.74,-3.48,-1.1,1785093368145.395
-0.917,-0.286,-0.206,-10.16,-3.51,-0.98,1785093368145.622
-0.917,-0.287,-0.21,-9.55,-3.63,-0.85,1785093368145.8518
-0.918,-0.285,-0.211,-9.58,-3.75,-0.67,1785093368146.097
-0.919,-0.283,-0.212,-9.83,-3.85,-0.18,1785093368146.338
-0.922,-0.28,-0.21,-10.04,-4.0,0.34,1785093368146.582
-0.925,-0.281,-0.216,-10.32,-4.12,0.95,1785093368146.829
-0.925,-0.287,-0.216,-10.53,-4.3,1.31,1785093368147.0798
-0.926,-0.287,-0.215,-10.77,-4.43,1.71,1785093368147.32
-0.926,-0.287,-0.215,-10.93,-4.49,2.11,1785093368147.5588
-0.927,-0.29,-0.213,-10.9,-4.73,2.2,1785093368147.795
-0.927,-0.293,-0.213,-10.93,-5.07,1.83,1785093368148.02
-0.924,-0.288,-0.213,-11.2,-5.46,1.34,1785093368148.252
-0.93,-0.289,-0.215,-11.69,-5.77,0.95,1785093368148.4868
-0.924,-0.283,-0.215,-11.69,-5.77,0.95,1785093368148.766
-0.932,-0.286,-0.215,-12.45,-6.04,0.73,1785093368149.037
-0.924,-0.284,-0.218,-13.09,-6.59,0.12,1785093368149.3142
-0.917,-0.287,-0.223,-13.43,-6.59,0.09,1785093368149.568
-0.915,-0.288,-0.221,-14.34,-6.5,-0.27,1785093368149.7979
-0.91,-0.285,-0.219,-14.86,-6.9,-0.73,1785093368150.0317
-0.91,-0.278,-0.216,-15.17,-7.32,-1.1,1785093368150.2678
-0.908,-0.273,-0.216,-16.08,-7.69,-1.77,1785093368150.498
-0.905,-0.282,-0.215,-17.03,-7.87,-1.77,1785093368150.72
-0.9,-0.282,-0.215,-17.61,-8.06,-1.83,1785093368150.938
-0.9,-0.278,-0.218,-18.37,-8.0,-2.26,1785093368151.159
-0.897,-0.278,-0.22,-19.23,-8.21,-2.26,1785093368151.375
-0.897,-0.275,-0.222,-20.11,-8.24,-2.29,1785093368151.599
-0.894,-0.28,-0.222,-20.78,-8.09,-1.74,1785093368151.821
-0.896,-0.277,-0.22,-21.49,-7.69,-1.19,1785093368152.0332
-0.896,-0.275,-0.219,-22.19,-7.29,-0.98,1785093368152.2507
-0.895,-0.282,-0.22,-22.83,-6.9,-0.43,1785093368152.469
-0.9,-0.282,-0.218,-23.13,-6.5,-0.03,1785093368152.683
-0.9,-0.282,-0.217,-23.19,-5.89,0.46,1785093368152.905
-0.902,-0.286,-0.219,-22.95,-5.25,1.01,1785093368153.126
-0.908,-0.286,-0.215,-22.22,-4.58,1.56,1785093368153.346
-0.912,-0.288,-0.214,-21.33,-3.81,2.17,1785093368153.565
-0.909,-0.288,-0.215,-20.05,-3.05,2.47,1785093368153.7878
-0.91,-0.291,-0.216,-18.34,-2.5,2.59,1785093368154.01
-0.909,-0.291,-0.214,-16.27,-1.59,2.47,1785093368154.222
-0.908,-0.291,-0.21,-14.04,-0.79,2.2,1785093368154.44
-0.912,-0.293,-0.206,-11.6,-0.27,2.14,1785093368154.6628
-0.914,-0.295,-0.204,-8.76,0.15,1.83,1785093368154.878
-0.914,-0.292,-0.201,-5.8,0.58,1.43,1785093368155.0999
-0.919,-0.291,-0.201,-2.99,0.89,1.07,1785093368155.32
-0.919,-0.292,-0.201,-0.24,0.89,0.58,1785093368155.53
-0.922,-0.287,-0.202,2.2,0.98,-0.09,1785093368155.751
-0.926,-0.287,-0.206,4.06,0.98,-0.7,1785093368155.972
-0.926,-0.288,-0.207,5.34,0.76,-1.53,1785093368156.208
-0.926,-0.283,-0.21,6.2,0.58,-1.95,1785093368156.42
-0.931,-0.279,-0.214,6.1,0.49,-2.29,1785093368156.631
-0.932,-0.274,-0.213,5.04,0.43,-2.53,1785093368156.854
-0.933,-0.276,-0.218,3.54,0.21,-2.69,1785093368157.0508
-0.935,-0.276,-0.219,2.29,-0.15,-2.78,1785093368157.263
-0.934,-0.276,-0.222,0.92,-0.43,-3.02,1785093368157.4841
-0.934,-0.273,-0.225,-0.37,-0.61,-3.02,1785093368157.68
-0.935,-0.272,-0.227,-1.53,-0.79,-2.93,1785093368157.8838
-0.933,-0.27,-0.227,-2.47,-0.95,-2.69,1785093368158.088
-0.935,-0.27,-0.228,-3.36,-1.01,-2.44,1785093368158.2878
-0.936,-0.269,-0.228,-4.12,-1.13,-2.17,1785093368158.498
-0.932,-0.267,-0.23,-4.46,-1.13,-1.92,1785093368158.719
-0.928,-0.261,-0.233,-4.79,-0.98,-1.71,1785093368158.9172
-0.929,-0.259,-0.237,-5.74,-0.73,-1.43,1785093368159.1191
-0.927,-0.258,-0.238,-6.87,-0.52,-1.5,1785093368159.3289
-0.927,-0.259,-0.239,-7.75,-0.49,-1.56,1785093368159.5242
-0.929,-0.259,-0.241,-8.67,-0.37,-1.65,1785093368159.731
-0.929,-0.258,-0.244,-9.34,-0.31,-1.59,1785093368159.938
-0.929,-0.256,-0.248,-10.38,0.31,-1.68,1785093368160.147
-0.929,-0.265,-0.247,-11.05,0.64,-1.4,1785093368160.348
-0.923,-0.259,-0.25,-11.17,1.01,-1.22,1785093368160.5498
-0.922,-0.256,-0.248,-11.57,1.65,-0.95,1785093368160.7559
-0.926,-0.259,-0.242,-11.81,2.01,-0.73,1785093368160.9722
-0.931,-0.261,-0.237,-11.38,2.35,-0.76,1785093368161.181
-0.931,-0.259,-0.237,-10.38,2.78,-0.61,1785093368161.387
-0.932,-0.257,-0.237,-9.77,3.27,-0.34,1785093368161.587
-0.93,-0.258,-0.237,-9.03,3.75,-0.31,1785093368161.789
-0.925,-0.259,-0.238,-8.3,4.15,-0.46,1785093368161.991
-0.924,-0.259,-0.238,-7.63,4.61,-0.27,1785093368162.1902
-0.921,-0.26,-0.237,-6.74,5.01,0.06,1785093368162.3909
-0.919,-0.262,-0.235,-5.65,5.49,0.15,1785093368162.593
-0.918,-0.261,-0.231,-4.61,6.01,0.34,1785093368162.7969
-0.916,-0.261,-0.231,-3.08,6.29,0.61,1785093368162.998
-0.916,-0.261,-0.23,-1.53,6.5,0.79,1785093368163.2012
-0.915,-0.261,-0.23,0.03,6.74,1.04,1785093368163.403
-0.911,-0.26,-0.229,1.56,6.93,1.19,1785093368163.5981
-0.913,-0.258,-0.227,2.72,7.02,1.46,1785093368163.7969
-0.915,-0.258,-0.23,3.57,6.87,1.77,1785093368164.0151
-0.912,-0.254,-0.233,3.81,6.93,2.01,1785093368164.212
-0.913,-0.253,-0.233,3.6,6.93,2.17,1785093368164.4402
-0.91,-0.253,-0.235,3.17,6.9,2.53,1785093368164.662
-0.91,-0.253,-0.231,2.26,6.84,2.72,1785093368164.875
-0.912,-0.258,-0.229,1.5,6.62,3.05,1785093368165.088
-0.913,-0.259,-0.227,0.89,6.35,3.33,1785093368165.307
-0.914,-0.258,-0.226,0.34,6.23,3.69,1785093368165.516
-0.915,-0.258,-0.227,0.12,5.98,4.21,1785093368165.7239
-0.914,-0.26,-0.227,0.15,5.46,4.43,1785093368165.944
-0.914,-0.261,-0.228,0.06,5.22,4.46,1785093368166.158
-0.914,-0.261,-0.23,0.18,4.97,4.73,1785093368166.3462
-0.911,-0.261,-0.23,0.15,4.7,4.79,1785093368166.541
-0.911,-0.262,-0.228,0.18,4.3,4.94,1785093368166.734
-0.911,-0.264,-0.227,0.15,4.03,5.01,1785093368166.919
-0.91,-0.265,-0.227,0.15,3.75,4.91,1785093368167.113
-0.912,-0.265,-0.228,0.15,3.33,4.94,1785093368167.307
-0.909,-0.264,-0.227,0.0,3.14,4.88,1785093368167.4958
-0.906,-0.264,-0.226,-0.06,2.99,4.7,1785093368167.689
-0.905,-0.263,-0.225,0.06,2.5,4.61,1785093368167.9092
-0.908,-0.263,-0.223,0.03,2.08,4.52,1785093368168.094
-0.908,-0.262,-0.226,0.15,1.71,4.39,1785093368168.286
-0.907,-0.265,-0.229,0.15,1.28,4.09,1785093368168.479
-0.907,-0.266,-0.23,0.06,0.82,3.97,1785093368168.67
-0.908,-0.262,-0.234,-0.21,0.43,3.91,1785093368168.8618
-0.908,-0.262,-0.235,-0.61,0.03,3.78,1785093368169.056
-0.907,-0.265,-0.236,-0.95,-0.27,3.69,1785093368169.251
-0.908,-0.266,-0.235,-1.37,-0.61,3.6,1785093368169.44
-0.907,-0.266,-0.235,-1.65,-1.01,3.6,1785093368169.6328
-0.905,-0.265,-0.236,-1.92,-1.19,3.54,1785093368169.824
-0.903,-0.266,-0.237,-2.04,-1.4,3.42,1785093368170.0083
-0.9,-0.265,-0.24,-2.08,-1.53,3.27,1785093368170.2012
-0.896,-0.265,-0.239,-2.26,-1.65,2.96,1785093368170.388
-0.892,-0.263,-0.239,-2.32,-1.65,2.47,1785093368170.567
-0.896,-0.263,-0.237,-2.08,-1.71,2.14,1785093368170.753
-0.902,-0.26,-0.236,-1.83,-1.83,1.83,1785093368170.94
-0.907,-0.262,-0.233,-1.59,-1.89,1.62,1785093368171.1208
-0.911,-0.265,-0.237,-1.07,-2.08,1.25,1785093368171.3103
-0.911,-0.266,-0.239,-0.67,-2.04,0.95,1785093368171.499
-0.914,-0.264,-0.245,-0.4,-2.14,0.89,1785093368171.684
-0.916,-0.265,-0.246,-0.15,-2.11,0.92,1785093368171.8772
-0.916,-0.266,-0.246,0.0,-2.17,0.79,1785093368172.077
-0.915,-0.266,-0.245,0.31,-2.11,0.67,1785093368172.258
-0.913,-0.266,-0.245,0.67,-2.04,0.61,1785093368172.446
-0.911,-0.267,-0.243,0.98,-1.92,0.49,1785093368172.649
-0.912,-0.267,-0.244,1.46,-2.04,0.12,1785093368172.8289
-0.911,-0.266,-0.243,1.86,-2.2,-0.31,1785093368173.0042
-0.911,-0.263,-0.242,2.17,-2.2,-0.61,1785093368173.1829
-0.913,-0.258,-0.242,2.59,-2.38,-1.31,1785093368173.538
-0.911,-0.253,-0.246,2.62,-2.47,-1.92,1785093368173.719
-1.382,-0.696,-0.317,-122.93,-27.01,-19.07,1785093368174.133
-1.371,-0.724,-0.257,-124.12,-24.96,-31.43,1785093368174.319
-1.333,-0.782,-0.16,-98.12,-20.63,-48.55,1785093368175.3289
-1.322,-0.816,-0.074,-55.73,-19.07,-64.79,1785093368185.8462
-1.308,-0.781,-0.016,-15.87,-20.33,-74.43,1785093368199.148
-1.292,-0.765,-0.003,16.48,-23.16,-76.42,1785093368204.763
-1.264,-0.743,-0.046,38.82,-27.44,-73.67,1785093368215.319
-1.227,-0.706,-0.107,52.71,-32.32,-67.96,1785093368225.898
-1.182,-0.654,-0.195,60.06,-36.99,-60.06,1785093368239.105
-1.119,-0.601,-0.247,60.46,-41.14,-48.55,1785093368244.781
-1.05,-0.586,-0.273,59.63,-45.11,-37.23,1785093368255.31
-1.005,-0.584,-0.303,59.57,-49.41,-28.84,1785093368265.908
-0.965,-0.56,-0.319,56.28,-53.77,-20.6,1785093368279.124
-0.923,-0.531,-0.346,51.06,-57.53,-11.26,1785093368284.925
-0.867,-0.528,-0.365,45.59,-60.52,-2.87,1785093368295.263
-0.8,-0.539,-0.392,41.2,-64.09,3.66,1785093368305.675
-0.707,-0.549,-0.44,39.92,-65.98,8.79,1785093368319.009
-0.631,-0.531,-0.468,39.12,-66.13,12.21,1785093368324.7449
-0.571,-0.522,-0.465,34.82,-67.45,17.55,1785093368335.1582
-0.495,-0.548,-0.431,28.35,-68.85,21.03,1785093368345.685
-0.441,-0.566,-0.402,22.8,-70.5,19.96,1785093368359.0012
-0.4,-0.566,-0.409,19.07,-73.64,20.05,1785093368364.838
-0.36,-0.539,-0.434,16.88,-76.75,20.51,1785093368375.146
-0.346,-0.501,-0.478,15.56,-78.25,19.32,1785093368385.718
-0.351,-0.477,-0.544,12.42,-78.62,18.04,1785093368399.225
-0.372,-0.463,-0.59,6.32,-77.36,17.73,1785093368405.256
-0.392,-0.474,-0.589,0.21,-75.05,19.07,1785093368415.178
-0.397,-0.498,-0.558,-3.14,-72.63,20.23,1785093368425.623
-0.379,-0.518,-0.505,-3.36,-70.68,20.48,1785093368436.073
-0.349,-0.528,-0.456,-1.25,-69.83,20.45,1785093368449.577
-0.338,-0.537,-0.422,1.95,-69.95,20.94,1785093368454.834
-0.349,-0.561,-0.416,4.58,-69.83,20.54,1785093368465.615
-0.365,-0.579,-0.434,5.98,-69.64,18.86,1785093368475.689
-0.38,-0.582,-0.479,7.02,-69.19,17.12,1785093368488.9321
-0.397,-0.565,-0.523,7.39,-67.96,15.56,1785093368494.8079
-0.425,-0.538,-0.574,6.23,-66.65,14.44,1785093368504.969
-0.459,-0.515,-0.619,1.65,-64.61,13.95,1785093368515.381
-0.495,-0.501,-0.611,-5.55,-61.65,14.74,1785093368525.9268
-0.529,-0.521,-0.574,-13.4,-59.42,15.96,1785093368539.092
-0.552,-0.559,-0.524,-20.72,-57.83,16.51,1785093368544.7349
-0.575,-0.589,-0.447,-25.51,-56.92,17.76,1785093368555.182
-0.586,-0.624,-0.394,-26.49,-57.65,19.32,1785093368565.8538
-0.599,-0.636,-0.388,-24.6,-59.11,20.42,1785093368579.158
-0.631,-0.642,-0.409,-20.87,-59.72,21.94,1785093368585.315
-0.674,-0.644,-0.441,-17.3,-59.88,22.61,1785093368595.3113
-0.711,-0.629,-0.475,-16.85,-59.51,23.1,1785093368605.7642
-0.732,-0.601,-0.516,-20.2,-57.8,24.32,1785093368619.252
-0.749,-0.57,-0.528,-26.28,-54.08,25.54,1785093368625.07
-0.755,-0.557,-0.498,-34.49,-49.93,26.4,1785093368635.319
-0.745,-0.553,-0.438,-43.61,-45.9,26.31,1785093368646.004
-0.74,-0.558,-0.376,-50.72,-41.54,25.42,1785093368659.092
-0.737,-0.573,-0.325,-55.09,-36.99,24.87,1785093368664.8208
-0.736,-0.593,-0.285,-56.28,-33.02,23.8,1785093368675.2498
-0.735,-0.618,-0.258,-54.02,-29.94,22.25,1785093368685.87
-0.736,-0.642,-0.238,-47.85,-27.44,19.99,1785093368698.932
-0.736,-0.656,-0.224,-37.45,-25.12,16.85,1785093368704.9548
-0.738,-0.645,-0.224,-24.32,-23.62,13.95,1785093368715.018
-0.74,-0.608,-0.236,-11.66,-21.94,11.54,1785093368725.85
-0.741,-0.569,-0.265,-1.95,-19.41,9.64,1785093368739.1611
-0.751,-0.533,-0.277,4.15,-15.53,7.48,1785093368744.719
-0.77,-0.506,-0.265,6.96,-11.63,5.37,1785093368754.729
-0.785,-0.493,-0.238,6.62,-8.51,3.91,1785093368765.1921
-0.785,-0.493,-0.238,4.24,-6.41,3.51,1785093368775.299
-0.787,-0.498,-0.209,2.84,-4.36,4.09,1785093368785.633
-0.786,-0.523,-0.179,5.19,-2.66,4.55,1785093368795.963
-0.787,-0.558,-0.15,11.02,-1.5,5.28,1785093368809.293
-0.794,-0.578,-0.143,11.02,-1.5,5.28,1785093368814.81
-0.804,-0.579,-0.153,17.73,-0.79,6.26,1785093368824.893
-0.806,-0.578,-0.165,24.38,-0.24,6.93,1785093368835.246
-0.804,-0.573,-0.182,30.61,0.21,7.05,1785093368845.6167
-0.802,-0.56,-0.189,35.95,1.1,6.9,1785093368855.953
-0.801,-0.539,-0.192,40.47,2.26,7.2,1785093368869.303
-0.806,-0.527,-0.2,43.37,3.69,7.57,1785093368874.916
-0.814,-0.527,-0.199,43.76,5.49,8.21,1785093368884.9949
-0.818,-0.53,-0.194,43.31,6.99,9.49,1785093368895.967
-0.817,-0.531,-0.196,42.88,8.64,11.17,1785093368905.594
-0.815,-0.523,-0.201,42.63,10.59,13.06,1785093368919.044
-0.807,-0.513,-0.213,41.81,12.39,15.14,1785093368924.9502
-0.801,-0.51,-0.224,41.66,14.59,16.69,1785093368934.955
-0.813,-0.496,-0.248,42.63,16.79,16.72,1785093368945.92
-0.834,-0.469,-0.263,44.65,19.01,17.73,1785093368959.0762
-0.841,-0.44,-0.251,48.77,21.7,20.36,1785093368964.7998
-0.847,-0.418,-0.238,56.92,25.18,21.94,1785093368975.269
-0.864,-0.403,-0.24,68.21,27.71,23.16,1785093368985.792
-0.877,-0.387,-0.263,79.13,30.46,24.99,1785093368999.089
-0.878,-0.373,-0.298,88.35,35.58,27.13,1785093369004.952
-0.89,-0.378,-0.328,96.71,42.36,27.99,1785093369015.274
-0.908,-0.394,-0.34,104.68,47.76,29.51,1785093369025.909
-0.914,-0.412,-0.346,114.51,52.74,31.4,1785093369039.177
-0.912,-0.403,-0.363,125.68,58.75,33.27,1785093369045.079
-0.926,-0.375,-0.38,135.01,64.06,36.84,1785093369055.62
-0.943,-0.348,-0.4,139.53,68.61,41.38,1785093369068.883
-0.961,-0.321,-0.426,138.68,73.43,43.98,1785093369074.775
-0.977,-0.312,-0.444,134.13,77.79,44.95,1785093369085.2961
-0.993,-0.322,-0.451,128.48,81.76,44.43,1785093369095.9622
-1.011,-0.339,-0.434,123.66,85.42,43.12,1785093369109.312
-1.021,-0.364,-0.415,120.37,88.63,41.93,1785093369114.905
-1.031,-0.399,-0.401,119.63,91.16,40.5,1785093369125.824
-1.035,-0.424,-0.401,120.24,92.99,40.01,1785093369138.9739
-1.038,-0.429,-0.395,121.74,94.73,40.5,1785093369144.533
-1.037,-0.397,-0.402,121.59,95.58,42.02,1785093369155.2498
-1.032,-0.355,-0.419,118.72,97.2,43.95,1785093369166.0203
-1.036,-0.321,-0.421,112.89,100.38,44.16,1785093369179.3079
-1.018,-0.31,-0.373,105.23,104.01,42.27,1785093369185.7332
-1.011,-0.326,-0.351,98.82,106.14,38.67,1785093369195.909
-0.995,-0.359,-0.337,92.62,107.64,35.98,1785093369209.131
-1.006,-0.375,-0.308,89.3,109.68,32.04,1785093369214.8499
-1.006,-0.42,-0.296,89.72,110.72,32.69,1785093369225.644
-0.981,-0.46,-0.314,89.75,112.16,32.93,1785093369238.809
-0.965,-0.469,-0.34,89.11,113.96,31.1,1785093369244.848
-0.962,-0.47,-0.362,89.08,115.27,29.85,1785093369255.31
-0.973,-0.466,-0.399,87.56,116.31,28.32,1785093369265.7002
-0.978,-0.475,-0.431,83.53,117.25,28.6,1785093369279.234
-0.993,-0.479,-0.453,75.5,116.89,29.18,1785093369285.1091
-0.997,-0.488,-0.461,64.91,116.31,29.36,1785093369295.637
-0.995,-0.523,-0.485,55.39,116.52,27.89,1785093369308.907
-1.004,-0.564,-0.508,47.85,117.44,25.91,1785093369314.906
-1.01,-0.596,-0.508,43.67,118.99,23.68,1785093369325.2
-0.995,-0.626,-0.501,43.89,121.07,20.02,1785093369335.9038
-0.968,-0.641,-0.497,45.87,123.66,16.3,1785093369349.507
-0.95,-0.666,-0.499,50.11,125.8,12.79,1785093369355.173
-0.95,-0.696,-0.512,55.48,127.75,9.37,1785093369365.4631
-0.951,-0.715,-0.534,60.24,129.58,6.47,1785093369378.864
-0.955,-0.72,-0.545,64.03,132.02,3.17,1785093369384.47
-0.964,-0.725,-0.53,66.68,134.43,-0.24,1785093369394.956
-0.971,-0.732,-0.534,68.61,136.3,-3.94,1785093369405.5947
-0.96,-0.746,-0.552,70.41,138.8,-8.0,1785093369418.835
-0.95,-0.759,-0.539,74.19,141.15,-12.85,1785093369424.86
-0.94,-0.76,-0.517,80.29,141.91,-17.46,1785093369435.2498
-0.918,-0.759,-0.517,87.65,141.67,-21.06,1785093369445.885
-0.911,-0.757,-0.532,93.11,141.09,-24.54,1785093369459.1648
-0.916,-0.748,-0.54,92.44,139.13,-27.92,1785093369465.093
-0.922,-0.748,-0.572,85.24,136.3,-31.07,1785093369475.5552
-0.915,-0.756,-0.606,71.84,134.04,-34.33,1785093369489.6792
-0.894,-0.779,-0.634,55.45,131.99,-37.69,1785093369494.4739
-0.877,-0.815,-0.66,38.76,130.89,-41.05,1785093369505.3179
-0.858,-0.861,-0.656,22.83,130.99,-44.37,1785093369516.0142
-0.842,-0.913,-0.617,9.28,131.05,-47.58,1785093369529.252
-0.837,-0.965,-0.587,-1.5,130.74,-50.63,1785093369535.0762
-0.815,-0.994,-0.577,-9.92,130.41,-52.77,1785093369545.618
-0.783,-0.965,-0.584,-13.58,130.44,-52.49,1785093369556.0059
-0.763,-0.881,-0.57,-11.57,130.34,-49.47,1785093369569.279
-0.752,-0.765,-0.551,-5.37,128.39,-46.33,1785093369575.173
-0.738,-0.682,-0.556,4.24,125.95,-46.05,1785093369585.534
-0.725,-0.65,-0.579,13.82,124.0,-48.8,1785093369598.887
-0.694,-0.671,-0.635,20.39,122.65,-54.69,1785093369604.754
-0.674,-0.717,-0.662,24.87,123.11,-63.05,1785093369615.2917
-0.666,-0.746,-0.65,29.42,124.12,-70.28,1785093369625.9258
-0.654,-0.759,-0.634,35.0,125.13,-73.61,1785093369639.081
-0.632,-0.762,-0.598,42.45,125.49,-74.86,1785093369644.991
-0.597,-0.753,-0.568,50.9,123.94,-76.54,1785093369655.816
-0.564,-0.766,-0.591,57.56,121.65,-79.07,1785093369668.842
-0.541,-0.783,-0.62,58.99,119.97,-82.28,1785093369674.416
-0.529,-0.795,-0.641,55.54,118.84,-84.66,1785093369685.28
-0.514,-0.801,-0.634,50.72,117.77,-84.23,1785093369695.7869
-0.492,-0.802,-0.604,47.4,116.03,-82.37,1785093369709.0881
-0.477,-0.811,-0.561,47.09,113.41,-80.57,1785093369715.179
-0.445,-0.819,-0.547,49.62,110.17,-80.48,1785093369725.61
-0.409,-0.829,-0.558,53.04,107.79,-82.22,1785093369738.698
-0.392,-0.819,-0.549,54.57,105.62,-85.06,1785093369744.601
-0.379,-0.784,-0.509,51.85,102.05,-86.52,1785093369755.34
-0.349,-0.779,-0.479,47.24,98.18,-88.75,1785093369765.864
-0.287,-0.775,-0.478,37.93,93.75,-92.17,1785093369779.26
-0.234,-0.743,-0.449,19.14,88.81,-94.91,1785093369785.055
-0.225,-0.743,-0.422,-5.43,83.13,-97.02,1785093369795.901
-0.234,-0.806,-0.455,-27.1,78.25,-100.22,1785093369805.99
-0.233,-0.85,-0.477,-41.78,76.54,-103.43,1785093369819.28
-0.216,-0.886,-0.477,-44.34,76.75,-104.77,1785093369825.585
-0.208,-0.882,-0.46,-35.55,76.39,-105.69,1785093369836.0588
-0.171,-0.854,-0.454,-21.7,74.8,-105.14,1785093369848.833
-0.126,-0.806,-0.447,-9.28,72.39,-104.71,1785093369854.774
-0.091,-0.78,-0.433,0.37,69.86,-104.53,1785093369865.1099
-0.071,-0.787,-0.438,8.76,67.11,-104.34,1785093369875.644
-0.056,-0.79,-0.459,15.05,64.3,-103.31,1785093369888.944
-0.053,-0.798,-0.483,22.34,62.9,-102.33,1785093369894.853
-0.034,-0.786,-0.512,31.01,62.11,-101.08,1785093369905.426
-0.005,-0.764,-0.509,41.17,61.71,-100.77,1785093369916.045
0.039,-0.74,-0.48,50.94,61.49,-101.26,1785093369929.5208
0.082,-0.725,-0.46,60.43,60.09,-102.08,1785093369934.8328
0.104,-0.719,-0.472,67.57,57.19,-102.73,1785093369945.555
0.12,-0.711,-0.487,70.25,54.75,-103.34,1785093369959.021
0.13,-0.726,-0.492,70.86,52.89,-103.7,1785093369964.885
0.143,-0.742,-0.478,71.11,50.48,-103.55,1785093369975.336
0.162,-0.757,-0.468,74.4,49.35,-103.58,1785093369986.1782
0.19,-0.766,-0.462,80.84,48.49,-103.67,1785093369999.336
0.219,-0.744,-0.445,85.63,44.98,-102.05,1785093370005.412
0.232,-0.731,-0.453,88.29,41.96,-99.77,1785093370015.736
0.252,-0.729,-0.463,87.01,39.98,-97.81,1785093370028.9668
0.278,-0.721,-0.454,81.45,37.66,-97.81,1785093370034.8853
0.298,-0.734,-0.429,75.56,36.87,-98.15,1785093370045.1082
0.298,-0.734,-0.429,71.84,35.92,-97.93,1785093370055.593
0.305,-0.762,-0.386,70.96,34.24,-97.42,1785093370068.88
0.315,-0.769,-0.366,71.2,32.04,-96.5,1785093370074.953
0.345,-0.763,-0.353,71.63,29.3,-96.29,1785093370085.138
0.37,-0.748,-0.331,71.63,29.3,-96.29,1785093370095.749
0.407,-0.734,-0.338,72.94,25.85,-96.47,1785093370109.0823
0.445,-0.729,-0.372,73.95,23.5,-96.96,1785093370114.951
0.457,-0.725,-0.362,70.93,21.73,-96.59,1785093370125.314
0.432,-0.745,-0.328,68.21,19.04,-95.68,1785093370135.9702
0.394,-0.768,-0.278,68.09,16.72,-94.97,1785093370148.986
0.384,-0.763,-0.245,69.46,13.92,-94.67,1785093370154.5432
0.414,-0.739,-0.229,70.13,10.86,-94.73,1785093370165.0933
0.443,-0.711,-0.225,70.74,8.06,-95.16,1785093370175.526
0.477,-0.703,-0.259,71.93,5.83,-96.19,1785093370185.985
0.493,-0.694,-0.256,71.05,3.72,-98.76,1785093370199.256
0.496,-0.698,-0.236,69.34,1.34,-100.44,1785093370205.1
0.498,-0.707,-0.202,68.33,-1.43,-101.05,1785093370215.343
0.479,-0.712,-0.135,68.3,-5.71,-101.02,1785093370225.989
0.458,-0.715,-0.081,70.01,-10.68,-101.54,1785093370239.275
0.449,-0.712,-0.042,71.9,-15.87,-104.53,1785093370245.522
0.456,-0.709,-0.038,73.4,-21.24,-109.81,1785093370255.859
0.476,-0.681,-0.067,71.38,-26.7,-115.57,1785093370269.0088
0.506,-0.642,-0.098,67.2,-31.8,-119.48,1785093370274.913
0.566,-0.634,-0.118,66.23,-36.13,-123.42,1785093370285.404
0.592,-0.631,-0.138,68.3,-40.01,-127.26,1785093370296.0022
0.583,-0.647,-0.122,69.25,-44.25,-127.41,1785093370309.126
0.575,-0.684,-0.097,72.15,-49.2,-124.88,1785093370315.1492
0.574,-0.716,-0.087,78.16,-52.46,-121.98,1785093370326.1702
0.549,-0.698,-0.08,82.22,-53.68,-120.12,1785093370339.003
0.558,-0.638,-0.024,83.35,-54.81,-117.89,1785093370344.654
0.593,-0.597,-0.003,90.58,-58.14,-118.26,1785093370355.4758
0.584,-0.539,-0.017,98.21,-61.1,-120.91,1785093370365.9893
0.583,-0.499,-0.036,99.86,-64.33,-123.11,1785093370379.394
0.59,-0.494,-0.04,96.1,-68.21,-125.03,1785093370385.719
0.618,-0.521,-0.045,90.49,-72.15,-126.16,1785093370395.831
0.633,-0.533,-0.047,84.38,-75.56,-126.13,1785093370409.1047
0.629,-0.53,-0.055,78.49,-78.74,-124.42,1785093370415.1868
0.646,-0.511,-0.081,74.19,-81.42,-124.03,1785093370425.555
0.638,-0.486,-0.098,71.14,-83.83,-124.24,1785093370436.1921
0.616,-0.462,-0.097,70.38,-85.63,-123.36,1785093370449.517
0.607,-0.434,-0.098,72.48,-87.47,-122.53,1785093370455.3489
0.591,-0.41,-0.091,77.73,-88.96,-121.34,1785093370465.727
0.596,-0.393,-0.079,87.25,-89.82,-119.85,1785093370479.2378
0.629,-0.365,-0.092,98.7,-91.83,-118.29,1785093370485.2668
0.661,-0.342,-0.126,107.97,-94.06,-115.57,1785093370496.064
0.637,-0.346,-0.154,111.3,-96.96,-113.04,1785093370508.935
0.59,-0.352,-0.165,107.82,-100.04,-110.97,1785093370514.9282
0.55,-0.348,-0.151,100.83,-102.3,-109.87,1785093370525.6582
0.511,-0.328,-0.12,96.1,-104.65,-108.86,1785093370538.961
0.489,-0.305,-0.099,100.62,-107.0,-107.91,1785093370545.0881
0.47,-0.269,-0.07,113.13,-109.13,-107.64,1785093370556.009
0.449,-0.24,-0.055,130.8,-111.39,-107.39,1785093370569.255
0.45,-0.207,-0.079,145.24,-115.76,-107.06,1785093370575.1848
0.439,-0.193,-0.139,149.42,-122.32,-106.39,1785093370586.2039
0.378,-0.217,-0.191,141.88,-129.06,-105.32,1785093370599.4958
0.297,-0.256,-0.244,127.05,-134.43,-104.95,1785093370605.438
0.257,-0.267,-0.266,110.48,-137.52,-105.66,1785093370618.8481
0.251,-0.257,-0.25,101.6,-139.44,-108.07,1785093370625.147
0.259,-0.244,-0.219,108.22,-142.16,-111.82,1785093370635.883
0.245,-0.235,-0.221,130.01,-146.09,-115.82,1785093370649.123
0.236,-0.209,-0.27,159.86,-150.88,-119.69,1785093370655.018
0.249,-0.15,-0.332,183.97,-157.32,-121.52,1785093370666.062
0.238,-0.101,-0.369,193.64,-165.14,-120.61,1785093370679.343
0.192,-0.116,-0.392,188.88,-173.1,-118.14,1785093370685.3992
0.129,-0.168,-0.393,174.6,-179.45,-113.99,1785093370698.7378
0.08,-0.237,-0.417,159.22,-183.72,-109.62,1785093370704.479
0.046,-0.265,-0.424,146.06,-186.19,-106.69,1785093370715.699
0.02,-0.258,-0.434,139.29,-187.54,-103.46,1785093370729.154
0.037,-0.235,-0.496,138.31,-187.57,-99.25,1785093370734.8962
0.073,-0.174,-0.476,137.58,-188.57,-96.07,1785093370745.832
0.048,-0.143,-0.439,139.16,-191.35,-91.59,1785093370758.98
-0.007,-0.151,-0.444,142.83,-193.55,-85.39,1785093370764.6567
-0.062,-0.171,-0.443,145.91,-194.28,-80.29,1785093370775.697
-0.097,-0.227,-0.459,149.27,-194.56,-76.66,1785093370789.148
-0.126,-0.273,-0.484,149.42,-193.33,-74.1,1785093370794.912
-0.138,-0.309,-0.478,146.92,-190.98,-70.99,1785093370805.876
-0.159,-0.362,-0.485,146.0,-189.43,-67.66,1785093370818.7917
-0.188,-0.38,-0.469,144.99,-188.18,-61.68,1785093370824.888
-0.245,-0.395,-0.448,145.21,-187.11,-54.23,1785093370835.6008
-0.292,-0.388,-0.44,145.15,-185.77,-46.45,1785093370848.991
-0.28,-0.402,-0.472,149.45,-184.15,-39.77,1785093370854.825
-0.247,-0.462,-0.595,158.09,-182.87,-35.04,1785093370865.73
-0.236,-0.511,-0.729,164.25,-181.34,-30.34,1785093370878.8372
-0.246,-0.528,-0.834,162.88,-178.9,-23.53,1785093370884.793
-0.263,-0.539,-0.846,154.48,-174.14,-15.32,1785093370895.529
-0.265,-0.57,-0.769,145.12,-168.89,-7.93,1785093370908.969
-0.268,-0.618,-0.626,140.11,-165.17,-0.43,1785093370914.716
-0.302,-0.695,-0.528,144.84,-162.69,7.08,1785093370925.439
-0.326,-0.748,-0.553,154.97,-162.21,14.62,1785093370935.704
-0.351,-0.758,-0.67,159.46,-163.7,23.9,1785093370949.061
-0.404,-0.748,-0.89,150.55,-164.31,33.78,1785093370955.0212
-0.459,-0.72,-1.037,124.55,-160.77,43.34,1785093370966.007
-0.5,-0.73,-1.008,94.64,-154.0,51.85,1785093370979.233
-0.516,-0.828,-0.9,83.71,-145.94,56.55,1785093370985.3618
-0.509,-0.938,-0.804,100.16,-138.25,59.57,1785093370995.769
-0.499,-1.005,-0.752,134.62,-132.51,63.26,1785093371008.894
-0.496,-1.033,-0.832,166.54,-128.15,67.72,1785093371015.0552
-0.546,-1.051,-0.942,177.77,-121.43,71.08,1785093371025.7039
-0.666,-1.098,-1.05,167.42,-111.15,70.65,1785093371038.9531
-0.801,-1.112,-1.086,142.64,-98.36,72.05,1785093371045.311
-0.822,-1.149,-1.052,121.43,-83.22,78.55,1785093371055.5278
-0.759,-1.245,-0.948,118.81,-67.9,84.02,1785093371066.224
-0.658,-1.351,-0.878,130.41,-58.11,90.61,1785093371079.3972
-0.6,-1.315,-0.886,140.84,-48.95,97.29,1785093371085.403
-0.543,-1.245,-0.991,138.86,-41.26,110.66,1785093371096.021
-0.528,-1.2,-1.084,116.92,-35.52,125.43,1785093371109.14
-0.546,-1.176,-1.102,82.98,-30.27,133.73,1785093371115.218
-0.554,-1.229,-1.058,57.71,-20.02,130.68,1785093371125.7842
-0.573,-1.271,-0.962,46.94,-8.64,121.28,1785093371139.0022
-0.574,-1.356,-0.822,59.02,2.04,114.66,1785093371144.9119
-0.586,-1.402,-0.669,91.74,13.64,108.77,1785093371155.266
-0.592,-1.4,-0.522,132.76,22.16,109.23,1785093371166.151
-0.585,-1.357,-0.424,169.5,25.61,116.98,1785093371179.303
-0.568,-1.375,-0.396,195.29,22.25,135.75,1785093371185.191
-0.398,-1.451,-0.453,208.26,17.0,155.28,1785093371195.978
-0.466,-1.316,-0.502,209.36,28.57,145.94,1785093371209.406
-0.578,-1.375,-0.64,191.63,36.26,155.19,1785093371215.2961
-0.573,-1.396,-0.783,135.65,22.74,176.43,1785093371226.062
-0.624,-1.176,-0.743,74.86,28.35,179.33,1785093371239.162
-0.631,-1.132,-0.717,31.16,40.83,193.79,1785093371245.208
-0.528,-1.192,-0.623,-4.61,34.58,206.31,1785093371255.5369
-0.593,-1.111,-0.511,-13.15,30.7,197.15,1785093371266.232
-0.154,-1.601,-0.246,2.47,25.3,199.41,1785093371279.5652
-0.502,-2.022,-0.247,116.37,-18.77,230.08,1785093371285.698
-0.678,-1.306,-0.345,245.74,12.91,178.47,1785093371296.0022
-0.508,-0.978,-0.444,317.58,52.37,138.22,1785093371309.231
-0.436,-0.847,-0.306,325.39,89.21,113.5,1785093371315.04
-0.419,-0.799,-0.222,286.84,103.37,90.98,1785093371325.98
-0.419,-0.799,-0.222,214.09,98.88,87.74,1785093371339.149
-0.499,-0.867,-0.212,126.9,89.57,95.37,1785093371345.566
-0.58,-0.922,-0.264,48.83,93.42,98.82,1785093371355.5952
-0.526,-0.94,-0.214,1.89,102.33,103.09,1785093371368.8699
-0.503,-1.003,-0.168,-23.29,103.52,104.56,1785093371374.749
-0.487,-1.018,-0.188,-23.29,103.52,104.56,1785093371385.453
-0.56,-0.96,-0.145,-31.1,103.18,98.36,1785093371396.1711
-0.589,-1.06,-0.091,-10.83,101.26,97.2,1785093371409.198
-0.616,-1.161,-0.072,27.92,100.92,97.63,1785093371415.146
-0.576,-1.077,-0.076,66.53,99.22,102.45,1785093371425.797
-0.579,-0.882,-0.07,95.95,101.38,102.63,1785093371439.057
-0.597,-0.78,-0.096,104.68,101.23,107.15,1785093371445.099
-0.585,-0.721,-0.09,91.34,99.34,107.33,1785093371455.7449
-0.612,-0.702,-0.079,74.86,102.54,99.52,1785093371469.001
-0.655,-0.771,-0.103,60.85,101.6,97.11,1785093371474.909
-0.692,-0.818,-0.112,48.52,97.05,99.06,1785093371485.398
-0.688,-0.846,-0.14,43.55,94.58,104.13,1785093371496.052
-0.678,-0.842,-0.167,44.16,95.31,107.52,1785093371509.42
-0.706,-0.805,-0.193,45.78,97.08,106.05,1785093371515.262
-0.742,-0.773,-0.212,43.98,97.23,103.76,1785093371525.837
-0.754,-0.743,-0.22,38.27,97.26,101.9,1785093371538.97
-0.764,-0.701,-0.215,31.89,97.14,99.22,1785093371544.5918
-0.774,-0.673,-0.231,26.86,96.1,98.7,1785093371555.1428
-0.779,-0.655,-0.259,22.13,94.88,101.14,1785093371565.914
-0.78,-0.64,-0.267,19.44,94.94,103.27,1785093371579.243
-0.788,-0.636,-0.273,19.81,95.19,105.04,1785093371585.259
-0.809,-0.641,-0.281,21.12,94.85,105.59,1785093371595.6118
-0.833,-0.636,-0.28,22.86,94.58,104.25,1785093371608.8252
-0.836,-0.624,-0.271,27.59,94.24,102.15,1785093371614.969
-0.827,-0.617,-0.257,36.77,93.05,100.86,1785093371625.073
-0.822,-0.622,-0.266,48.65,90.73,100.96,1785093371635.8818
-0.837,-0.643,-0.286,60.09,88.41,101.05,1785093371649.2031
-0.854,-0.65,-0.279,68.7,85.6,99.22,1785093371655.07
-0.856,-0.641,-0.277,75.72,81.88,97.66,1785093371665.314
-0.85,-0.615,-0.272,82.37,78.04,97.05,1785093371675.91
-0.851,-0.587,-0.274,89.75,74.07,95.92,1785093371689.149
-0.86,-0.564,-0.282,97.72,69.8,94.18,1785093371695.235
-0.868,-0.558,-0.288,104.4,64.97,91.68,1785093371705.7559
-0.874,-0.558,-0.286,109.56,59.91,87.31,1785093371718.6829
-0.867,-0.555,-0.288,113.86,54.38,82.31,1785093371724.594
-0.86,-0.547,-0.294,117.19,49.04,77.76,1785093371735.321
-0.857,-0.531,-0.307,118.08,43.55,73.92,1785093371745.889
-0.849,-0.506,-0.329,115.57,37.32,70.47,1785093371759.156
-0.839,-0.479,-0.359,110.14,30.95,67.45,1785093371765.281
-0.833,-0.448,-0.378,101.41,25.51,64.24,1785093371775.615
-0.831,-0.424,-0.388,89.42,20.84,61.34,1785093371786.203
-0.83,-0.4,-0.387,74.8,16.45,59.11,1785093371799.4438
-0.835,-0.377,-0.374,59.08,12.45,58.2,1785093371805.3901
-0.848,-0.37,-0.357,43.7,9.31,58.05,1785093371815.4822
-0.862,-0.373,-0.343,29.33,7.14,57.59,1785093371826.134
-0.877,-0.371,-0.328,15.2,5.43,57.13,1785093371839.201
-0.883,-0.365,-0.308,1.89,3.78,57.37,1785093371844.96
-0.882,-0.369,-0.296,-9.67,2.38,57.77,1785093371854.9448
-0.876,-0.38,-0.286,-19.44,1.53,57.41,1785093371865.448
-0.873,-0.389,-0.271,-26.92,1.07,57.07,1785093371875.9119
-0.871,-0.397,-0.255,-31.16,0.61,57.04,1785093371889.032
-0.874,-0.405,-0.243,-32.17,0.18,57.22,1785093371895.008
-0.878,-0.415,-0.235,-30.12,-0.18,56.7,1785093371905.1367
-0.881,-0.422,-0.231,-25.33,-0.7,55.57,1785093371915.561
-0.883,-0.427,-0.231,-17.82,-0.85,54.38,1785093371926.108
-0.885,-0.421,-0.241,-8.91,-0.7,52.95,1785093371939.304
-0.885,-0.409,-0.251,0.58,0.18,51.0,1785093371945.172
-0.886,-0.403,-0.258,10.9,1.13,49.07,1785093371955.1602
-0.889,-0.396,-0.259,21.7,1.8,47.03,1785093371965.3462
-0.893,-0.392,-0.26,32.17,2.01,44.34,1785093371975.957
-0.898,-0.386,-0.262,40.89,1.71,41.38,1785093371989.2322
-0.9,-0.378,-0.264,47.09,1.22,38.36,1785093371994.947
-0.899,-0.373,-0.263,51.79,0.21,35.34,1785093372005.2668
-0.9,-0.367,-0.265,55.39,-0.79,31.89,1785093372015.646
-0.897,-0.366,-0.276,58.35,-1.74,27.89,1785093372026.1482
-0.876,-0.386,-0.293,61.77,-2.26,22.95,1785093372039.354
-0.882,-0.382,-0.304,65.37,-2.93,15.75,1785093372045.143
-0.884,-0.416,-0.316,71.9,-3.94,12.73,1785093372055.307
-0.892,-0.433,-0.342,78.49,-5.65,10.56,1785093372065.823
-0.874,-0.395,-0.342,81.51,-7.02,6.53,1785093372076.117
-0.874,-0.355,-0.341,81.18,-6.68,1.04,1785093372089.3801
-0.879,-0.334,-0.324,76.69,-6.2,-4.33,1785093372095.092
-0.877,-0.329,-0.313,70.16,-5.28,-8.45,1785093372105.093
-0.887,-0.313,-0.304,60.61,-4.73,-11.2,1785093372115.596
-0.886,-0.296,-0.303,48.4,-4.33,-12.48,1785093372126.1748
-0.884,-0.296,-0.308,35.13,-4.12,-13.73,1785093372139.315
-0.877,-0.304,-0.306,23.19,-4.46,-15.44,1785093372145.08
-0.878,-0.316,-0.302,14.98,-4.0,-18.22,1785093372155.212
-0.889,-0.325,-0.3,10.13,-3.42,-21.0,1785093372165.728
-0.896,-0.328,-0.297,6.59,-3.14,-22.37,1785093372176.0981
-0.899,-0.328,-0.296,4.12,-3.3,-22.61,1785093372189.3098
-0.899,-0.327,-0.298,2.81,-3.97,-21.94,1785093372194.947
-0.896,-0.322,-0.304,2.62,-4.49,-21.03,1785093372204.787
-0.895,-0.316,-0.312,3.2,-4.64,-20.02,1785093372215.374
-0.892,-0.304,-0.318,3.97,-4.52,-19.07,1785093372225.7139
-0.888,-0.299,-0.322,5.07,-4.49,-18.16,1785093372236.1072
-0.884,-0.296,-0.324,6.62,-4.55,-17.12,1785093372249.3792
-0.882,-0.291,-0.327,8.76,-4.79,-15.9,1785093372254.978
-0.884,-0.284,-0.326,11.02,-5.01,-14.37,1785093372265.013
-0.881,-0.282,-0.332,13.7,-5.22,-12.82,1785093372275.63
-0.879,-0.297,-0.336,18.28,-5.25,-11.75,1785093372286.1272
-0.875,-0.349,-0.331,27.65,-5.01,-11.99,1785093372299.205
-0.864,-0.431,-0.331,44.37,-4.03,-14.07,1785093372305.037
-0.859,-0.493,-0.328,67.75,-3.2,-15.96,1785093372315.3237
-0.867,-0.503,-0.324,94.52,-2.96,-16.02,1785093372325.713
-0.88,-0.483,-0.318,120.85,-2.99,-14.71,1785093372338.874
-0.887,-0.458,-0.305,142.98,-3.54,-12.73,1785093372345.439
-0.888,-0.432,-0.294,160.68,-3.88,-12.05,1785093372355.405
-0.887,-0.402,-0.293,173.5,-3.69,-13.15,1785093372365.792
-0.884,-0.386,-0.306,179.94,-3.11,-15.53,1785093372379.0532
-0.882,-0.379,-0.319,177.8,-2.62,-18.13,1785093372384.875
-0.874,-0.385,-0.323,167.64,-2.66,-19.62,1785093372395.052
-0.868,-0.399,-0.323,152.59,-2.44,-20.84,1785093372405.77
-0.866,-0.421,-0.318,134.65,-1.46,-20.54,1785093372418.981
-0.849,-0.42,-0.321,113.86,-0.18,-19.56,1785093372424.848
-0.846,-0.391,-0.306,88.75,-1.68,-18.74,1785093372435.1628
-0.832,-0.394,-0.278,66.62,0.15,-17.3,1785093372445.582
-0.833,-0.402,-0.263,46.85,2.26,-15.63,1785093372455.938
-0.836,-0.392,-0.254,25.94,1.04,-12.36,1785093372469.217
-0.824,-0.375,-0.249,5.58,-0.92,-9.34,1785093372474.7012
-0.824,-0.382,-0.245,-11.2,-0.49,-6.65,1785093372484.917
-0.821,-0.402,-0.239,-24.14,-0.4,-3.85,1785093372495.156
-0.824,-0.414,-0.231,-33.63,-0.24,-1.56,1785093372505.706
-0.819,-0.419,-0.22,-40.44,-0.52,2.62,1785093372516.114
-0.814,-0.415,-0.209,-45.17,-0.55,6.44,1785093372529.196
-0.813,-0.417,-0.201,-47.91,-0.43,10.07,1785093372534.858
-0.823,-0.42,-0.194,-49.2,0.06,13.09,1785093372545.174
-0.836,-0.418,-0.184,-49.41,0.46,15.96,1785093372555.5032
-0.846,-0.419,-0.18,-49.47,0.7,18.95,1785093372566.186
-0.853,-0.418,-0.178,-49.47,1.1,21.7,1785093372579.277
-0.862,-0.419,-0.177,-49.47,1.53,24.08,1785093372585.3188
-0.868,-0.424,-0.18,-49.53,2.01,26.09,1785093372595.425
-0.876,-0.427,-0.184,-49.47,2.9,27.86,1785093372605.812
-0.879,-0.426,-0.176,-48.62,4.27,29.11,1785093372619.0322
-0.879,-0.426,-0.176,-46.94,5.31,29.51,1785093372624.825
-0.883,-0.429,-0.161,-44.5,6.04,29.36,1785093372634.826
-0.888,-0.433,-0.143,-41.6,6.13,28.93,1785093372645.335
-0.893,-0.426,-0.131,-39.77,5.83,28.6,1785093372656.1
-0.895,-0.406,-0.124,-39.77,5.83,28.6,1785093372669.131
-0.893,-0.391,-0.131,-38.67,5.25,27.8,1785093372674.977
-0.897,-0.4,-0.148,-37.9,4.64,25.67,1785093372685.106
-0.897,-0.424,-0.158,-36.53,4.7,22.49,1785093372695.4592
-0.901,-0.443,-0.172,-32.38,4.76,18.43,1785093372705.861
-0.903,-0.44,-0.183,-27.41,4.36,14.77,1785093372719.1948
-0.902,-0.429,-0.189,-23.47,3.66,12.02,1785093372725.085
-0.896,-0.412,-0.197,-21.7,2.26,9.13,1785093372734.9607
-0.888,-0.395,-0.196,-21.55,0.79,6.5,1785093372745.497
-0.889,-0.379,-0.193,-21.39,-0.37,4.52,1785093372755.851
-0.894,-0.369,-0.187,-20.23,-1.53,2.78,1785093372768.9778
-0.893,-0.364,-0.184,-17.3,-3.14,0.4,1785093372774.83
-0.887,-0.352,-0.19,-13.86,-5.1,-2.32,1785093372784.7832
-0.885,-0.346,-0.204,-12.15,-6.62,-4.55,1785093372795.028
-0.887,-0.346,-0.213,-12.3,-7.51,-6.26,1785093372805.585
-0.889,-0.342,-0.222,-13.82,-8.06,-7.66,1785093372815.947
-0.889,-0.341,-0.23,-16.14,-8.36,-8.33,1785093372829.1477
-0.887,-0.341,-0.239,-19.44,-8.45,-8.67,1785093372834.6692
-0.887,-0.339,-0.245,-23.56,-8.21,-8.58,1785093372844.852
-0.888,-0.338,-0.245,-27.95,-7.75,-7.72,1785093372855.254
-0.886,-0.337,-0.242,-32.47,-7.2,-6.71,1785093372865.595
-0.884,-0.333,-0.235,-36.68,-6.93,-5.07,1785093372875.8599
-0.886,-0.331,-0.23,-39.77,-6.74,-3.17,1785093372889.266
-0.891,-0.327,-0.23,-41.84,-6.38,-1.59,1785093372894.998
-0.896,-0.321,-0.233,-43.15,-6.04,-0.03,1785093372904.9358
-0.902,-0.322,-0.24,-43.79,-5.77,1.31,1785093372915.191
-0.908,-0.321,-0.247,-43.73,-5.58,2.5,1785093372925.8772
-0.915,-0.325,-0.251,-42.39,-5.25,3.57,1785093372935.894
-0.925,-0.327,-0.259,-40.31,-5.13,4.33,1785093372949.2412
-0.934,-0.325,-0.277,-38.54,-5.01,5.19,1785093372955.0898
-0.945,-0.32,-0.289,-36.74,-4.46,6.16,1785093372964.9402
-0.952,-0.314,-0.297,-34.58,-3.51,7.32,1785093372975.3977
-0.957,-0.312,-0.297,-31.71,-2.01,8.12,1785093372985.8
-0.958,-0.319,-0.287,-26.98,-0.49,8.79,1785093372996.022
-0.95,-0.332,-0.276,-20.11,0.73,9.25,1785093373009.516
-0.944,-0.34,-0.261,-11.02,1.34,9.74,1785093373015.131
-0.921,-0.345,-0.262,-0.61,1.77,10.77,1785093373025.399
-0.922,-0.321,-0.264,9.37,0.85,11.66,1785093373035.49
-0.901,-0.335,-0.28,20.6,0.27,14.37,1785093373045.933
-0.884,-0.326,-0.309,28.38,-0.46,14.13,1785093373059.156
-0.877,-0.278,-0.332,29.79,-2.04,12.67,1785093373065.278
-0.871,-0.269,-0.352,26.95,-2.2,11.93,1785093373075.113
-0.874,-0.266,-0.352,20.02,-2.04,10.38,1785093373085.7449
-0.873,-0.265,-0.35,11.9,-1.53,9.25,1785093373095.9868
