ax,ay,az,gx,gy,gz,timestamp_ms
-0.866,-0.251,-0.391,-7.93,0.58,0.49,1785104005412.697
-0.866,-0.252,-0.393,-7.05,0.64,0.64,1785104005413.027
-0.865,-0.252,-0.397,-6.2,0.76,0.85,1785104005413.322
-0.87,-0.247,-0.395,-5.55,1.01,0.95,1785104005413.608
-0.868,-0.247,-0.394,-5.62,0.98,1.16,1785104005413.908
-0.865,-0.245,-0.398,-5.86,1.1,1.16,1785104005414.208
-0.868,-0.246,-0.403,-6.53,1.37,1.22,1785104005414.503
-0.869,-0.246,-0.401,-8.15,1.68,1.25,1785104005414.8071
-0.866,-0.252,-0.401,-9.37,1.98,1.28,1785104005415.1108
-0.866,-0.252,-0.401,-9.86,2.2,0.95,1785104005415.409
-0.864,-0.258,-0.399,-9.46,2.32,0.58,1785104005415.6968
-0.864,-0.265,-0.396,-8.82,2.53,0.43,1785104005415.993
-0.863,-0.268,-0.4,-8.12,2.81,0.24,1785104005416.2878
-0.863,-0.266,-0.401,-7.48,3.27,0.03,1785104005416.57
-0.862,-0.265,-0.399,-7.48,3.27,0.03,1785104005416.8708
-0.861,-0.262,-0.39,-7.02,3.45,-0.27,1785104005417.169
-0.859,-0.261,-0.388,-6.59,3.57,-0.7,1785104005417.4622
-0.856,-0.265,-0.387,-5.62,3.81,-1.43,1785104005417.737
-0.859,-0.269,-0.387,-4.15,4.0,-2.38,1785104005418.023
-0.864,-0.268,-0.382,-2.53,3.81,-3.51,1785104005418.3118
-0.864,-0.266,-0.382,-0.67,3.51,-4.24,1785104005418.623
-0.87,-0.264,-0.387,0.85,3.11,-4.97,1785104005418.9583
-0.86,-0.25,-0.397,1.95,3.42,-4.85,1785104005419.281
-0.859,-0.27,-0.384,3.45,4.27,-4.91,1785104005419.5369
-0.87,-0.262,-0.382,0.79,2.78,-7.11,1785104005419.876
-0.863,-0.265,-0.379,1.43,3.36,-7.32,1785104005420.159
-0.868,-0.259,-0.382,2.69,3.36,-7.57,1785104005420.414
-0.868,-0.253,-0.377,3.23,2.93,-7.93,1785104005420.66
-0.866,-0.252,-0.372,3.39,2.72,-8.3,1785104005420.9102
-0.865,-0.252,-0.364,3.48,2.53,-8.42,1785104005421.1619
-0.866,-0.256,-0.361,5.07,2.04,-9.25,1785104005421.407
-0.871,-0.257,-0.366,7.32,1.59,-10.28,1785104005421.664
-0.878,-0.251,-0.371,9.34,0.85,-10.68,1785104005421.934
-0.882,-0.24,-0.377,10.16,0.27,-10.16,1785104005422.2058
-0.881,-0.228,-0.379,9.74,-0.4,-9.58,1785104005422.508
-0.88,-0.221,-0.384,8.55,-1.01,-8.82,1785104005422.806
-0.883,-0.216,-0.382,5.95,-1.46,-7.69,1785104005423.0608
-0.882,-0.215,-0.382,2.69,-1.86,-6.32,1785104005423.304
-0.875,-0.217,-0.383,-0.18,-2.2,-4.97,1785104005423.558
-0.87,-0.217,-0.389,-2.9,-2.23,-3.94,1785104005423.84
-0.866,-0.217,-0.389,-5.89,-2.2,-2.69,1785104005424.1
-0.861,-0.225,-0.39,-8.48,-2.26,-1.4,1785104005424.352
-0.856,-0.231,-0.386,-10.04,-2.59,0.09,1785104005424.629
-0.85,-0.237,-0.388,-10.68,-2.75,1.68,1785104005424.9001
-0.844,-0.241,-0.391,-11.29,-2.96,3.14,1785104005425.152
-0.839,-0.245,-0.394,-11.35,-2.9,4.0,1785104005425.4148
-0.835,-0.249,-0.393,-11.57,-2.78,4.67,1785104005425.687
-0.836,-0.25,-0.388,-11.51,-2.59,5.4,1785104005425.951
-0.836,-0.25,-0.388,-10.9,-2.62,5.92,1785104005426.2048
-0.837,-0.251,-0.392,-10.38,-2.59,6.38,1785104005426.478
-0.839,-0.251,-0.395,-9.8,-2.5,6.65,1785104005426.74
-0.843,-0.252,-0.399,-9.0,-2.38,6.68,1785104005426.9968
-0.85,-0.258,-0.404,-8.09,-2.17,6.87,1785104005427.253
-0.852,-0.258,-0.396,-7.29,-1.89,7.08,1785104005427.519
-0.853,-0.261,-0.394,-5.92,-1.71,7.11,1785104005427.747
-0.855,-0.261,-0.393,-4.79,-1.56,6.9,1785104005427.9858
-0.857,-0.259,-0.393,-3.69,-1.43,6.44,1785104005428.224
-0.861,-0.258,-0.398,-2.66,-1.31,5.89,1785104005428.4602
-0.867,-0.26,-0.401,-1.53,-1.31,5.43,1785104005428.6877
-0.87,-0.262,-0.401,-0.24,-1.34,5.04,1785104005428.921
-0.874,-0.262,-0.399,0.85,-1.5,4.82,1785104005429.159
-0.874,-0.258,-0.404,1.53,-1.74,4.24,1785104005429.391
-0.873,-0.253,-0.405,1.68,-2.01,3.75,1785104005429.625
-0.873,-0.248,-0.408,1.04,-2.14,3.51,1785104005429.864
-0.87,-0.245,-0.414,-0.21,-2.17,3.02,1785104005430.098
-0.867,-0.244,-0.413,-1.56,-2.17,2.56,1785104005430.332
-0.865,-0.247,-0.412,-2.84,-1.98,2.01,1785104005430.572
-0.864,-0.249,-0.412,-3.94,-1.8,1.83,1785104005430.846
-0.861,-0.25,-0.411,-4.76,-1.77,1.65,1785104005431.0999
-0.858,-0.25,-0.411,-5.4,-1.65,1.77,1785104005431.333
-0.857,-0.249,-0.411,-6.01,-1.5,1.83,1785104005431.5671
-0.855,-0.246,-0.412,-6.65,-1.25,1.83,1785104005431.825
-0.854,-0.244,-0.411,-6.93,-1.01,2.08,1785104005432.076
-0.853,-0.249,-0.406,-7.05,-0.73,2.17,1785104005432.316
-0.856,-0.253,-0.406,-6.87,-0.55,2.26,1785104005432.5493
-0.859,-0.257,-0.4,-6.26,-0.61,2.23,1785104005432.776
-0.858,-0.254,-0.396,-5.19,-0.73,2.44,1785104005433.011
-0.856,-0.255,-0.4,-4.0,-0.76,2.56,1785104005433.232
-0.854,-0.256,-0.399,-2.99,-0.49,2.26,1785104005433.441
-0.853,-0.255,-0.396,-1.86,-0.31,2.2,1785104005433.661
-0.857,-0.256,-0.396,-0.43,-0.09,1.98,1785104005433.8801
-0.862,-0.255,-0.394,0.92,-0.03,1.74,1785104005434.0989
-0.866,-0.252,-0.393,1.86,-0.06,1.31,1785104005434.314
-0.869,-0.252,-0.393,2.32,-0.24,0.98,1785104005434.536
-0.869,-0.25,-0.394,2.66,-0.37,0.67,1785104005434.7588
-0.871,-0.247,-0.397,2.72,-0.31,0.34,1785104005434.972
-0.868,-0.247,-0.395,2.41,-0.34,0.15,1785104005435.194
-0.866,-0.249,-0.396,2.2,-0.43,0.06,1785104005435.4119
-0.867,-0.247,-0.397,2.17,-0.37,0.18,1785104005435.628
-0.869,-0.246,-0.395,1.83,-0.64,0.37,1785104005435.8652
-0.866,-0.246,-0.392,1.5,-0.61,0.31,1785104005436.089
-0.865,-0.244,-0.391,0.98,-0.67,0.18,1785104005436.32
-0.864,-0.242,-0.391,0.52,-0.92,0.34,1785104005436.542
-0.864,-0.24,-0.392,0.03,-0.82,0.49,1785104005436.7612
-0.863,-0.239,-0.395,-0.64,-0.85,0.61,1785104005436.99
-0.865,-0.24,-0.395,-1.34,-0.89,0.52,1785104005437.207
-0.868,-0.243,-0.393,-1.56,-0.76,0.21,1785104005437.428
-0.868,-0.241,-0.392,-1.71,-0.95,0.34,1785104005437.6472
-0.868,-0.24,-0.393,-1.92,-1.16,0.49,1785104005437.8628
-0.868,-0.242,-0.395,-2.26,-1.28,0.61,1785104005438.085
-0.868,-0.242,-0.397,-2.44,-1.28,0.7,1785104005438.3052
-0.866,-0.24,-0.399,-2.56,-1.34,0.92,1785104005438.564
-0.865,-0.238,-0.394,-2.38,-1.46,1.13,1785104005438.7861
-0.864,-0.241,-0.393,-2.08,-1.65,0.98,1785104005439.0159
-0.865,-0.244,-0.396,-1.89,-1.77,0.61,1785104005439.225
-0.866,-0.243,-0.399,-2.2,-1.68,0.61,1785104005439.43
-0.868,-0.242,-0.402,-2.72,-1.71,0.52,1785104005439.6501
-0.869,-0.243,-0.406,-2.93,-1.53,0.15,1785104005439.8652
-0.865,-0.241,-0.406,-2.96,-1.46,0.09,1785104005440.068
-0.864,-0.239,-0.403,-2.72,-1.59,0.21,1785104005440.2812
-0.863,-0.242,-0.403,-2.47,-1.62,0.12,1785104005440.4932
-0.864,-0.246,-0.404,-2.38,-1.62,-0.31,1785104005440.701
-0.862,-0.244,-0.4,-2.32,-1.74,-0.46,1785104005440.9038
-0.861,-0.242,-0.4,-1.98,-1.71,-0.55,1785104005441.109
-0.86,-0.236,-0.4,-2.2,-1.74,-0.49,1785104005441.313
-0.86,-0.232,-0.401,-2.59,-1.71,-0.64,1785104005441.533
-0.859,-0.231,-0.401,-3.17,-1.5,-0.52,1785104005441.741
-0.86,-0.234,-0.402,-3.78,-1.37,-0.55,1785104005441.949
-0.861,-0.236,-0.397,-4.49,-1.46,-0.67,1785104005442.1482
-0.863,-0.238,-0.394,-4.64,-1.46,-0.58,1785104005442.354
-0.862,-0.235,-0.396,-4.55,-1.59,-0.24,1785104005442.5752
-0.864,-0.233,-0.399,-4.67,-1.53,0.15,1785104005442.826
-0.866,-0.235,-0.4,-4.85,-1.37,0.27,1785104005443.052
-0.868,-0.241,-0.397,-4.67,-1.28,0.37,1785104005443.308
-0.87,-0.242,-0.394,-4.36,-1.4,0.43,1785104005443.531
-0.868,-0.238,-0.391,-3.88,-1.53,0.64,1785104005443.737
-0.867,-0.239,-0.393,-3.48,-1.68,0.61,1785104005443.9458
-0.867,-0.236,-0.395,-3.75,-1.65,0.4,1785104005444.155
-0.865,-0.237,-0.396,-4.18,-1.62,0.09,1785104005444.358
-0.864,-0.237,-0.393,-4.43,-1.53,-0.27,1785104005444.57
-0.869,-0.239,-0.394,-4.3,-1.56,-0.7,1785104005444.777
-0.865,-0.24,-0.389,-4.24,-1.74,-1.01,1785104005444.976
-0.865,-0.237,-0.39,-3.78,-1.77,-1.34,1785104005445.185
-0.864,-0.237,-0.388,-3.81,-1.77,-1.56,1785104005445.3982
-0.865,-0.234,-0.386,-3.97,-1.8,-1.83,1785104005445.604
-0.864,-0.232,-0.39,-4.03,-1.77,-1.89,1785104005445.8152
-0.866,-0.232,-0.393,-4.09,-1.74,-1.98,1785104005446.029
-0.869,-0.231,-0.393,-4.3,-1.68,-2.01,1785104005446.24
-0.869,-0.231,-0.393,-4.09,-1.68,-2.2,1785104005446.441
-0.868,-0.232,-0.393,-3.88,-1.56,-2.17,1785104005446.6519
-0.87,-0.233,-0.392,-3.66,-1.46,-2.08,1785104005446.878
-0.87,-0.234,-0.39,-3.11,-1.62,-1.92,1785104005447.074
-0.871,-0.231,-0.387,-3.11,-1.62,-1.92,1785104005447.273
-0.87,-0.228,-0.392,-2.66,-1.71,-1.74,1785104005447.474
-0.87,-0.229,-0.396,-2.78,-1.62,-1.92,1785104005447.665
-0.871,-0.228,-0.393,-2.93,-1.5,-2.04,1785104005447.863
-0.87,-0.228,-0.393,-2.96,-1.56,-1.92,1785104005448.065
-0.871,-0.228,-0.396,-2.84,-1.65,-2.11,1785104005448.262
-0.87,-0.228,-0.398,-2.72,-1.43,-2.35,1785104005448.462
-0.87,-0.225,-0.4,-2.99,-1.37,-2.38,1785104005448.66
-0.87,-0.228,-0.401,-3.08,-1.31,-2.44,1785104005448.8489
-0.87,-0.231,-0.399,-3.05,-1.07,-2.5,1785104005449.0503
-0.87,-0.228,-0.397,-2.96,-1.01,-2.44,1785104005449.2522
-0.867,-0.226,-0.397,-2.47,-1.19,-2.56,1785104005449.445
-0.867,-0.226,-0.399,-2.35,-1.19,-2.41,1785104005449.6428
-0.867,-0.225,-0.401,-2.32,-0.89,-2.26,1785104005449.845
-0.868,-0.226,-0.401,-2.04,-0.73,-2.26,1785104005450.043
-0.869,-0.228,-0.4,-1.77,-0.67,-2.08,1785104005450.232
-0.868,-0.225,-0.401,-1.37,-0.4,-1.95,1785104005450.431
-0.869,-0.222,-0.401,-1.28,-0.37,-1.62,1785104005450.628
-0.868,-0.221,-0.4,-1.56,-0.34,-1.5,1785104005450.825
-0.868,-0.223,-0.399,-1.68,-0.15,-1.4,1785104005451.0278
-0.869,-0.222,-0.397,-1.74,0.12,-1.31,1785104005451.227
-0.868,-0.224,-0.396,-1.62,0.15,-0.95,1785104005451.4229
-0.866,-0.224,-0.395,-1.37,0.09,-0.7,1785104005451.618
-0.864,-0.223,-0.395,-1.37,-0.03,-0.67,1785104005451.8179
-0.861,-0.222,-0.394,-1.5,0.09,-0.55,1785104005452.0112
-0.863,-0.222,-0.395,-1.62,0.15,-0.43,1785104005452.207
-0.864,-0.223,-0.395,-1.65,0.27,-0.46,1785104005452.4119
-0.867,-0.226,-0.392,-1.59,0.37,-0.55,1785104005452.616
-0.871,-0.225,-0.391,-1.53,0.49,-0.46,1785104005452.8032
-0.874,-0.223,-0.389,-1.22,0.37,-0.27,1785104005453.003
-0.875,-0.223,-0.388,-1.04,0.31,-0.06,1785104005453.1838
-0.873,-0.227,-0.389,-1.13,-0.03,0.34,1785104005453.5479
-0.872,-0.226,-0.388,-1.19,-0.15,0.64,1785104005453.731
-0.906,-0.292,-0.252,-2.53,9.89,15.32,1785104005454.1772
-0.909,-0.295,-0.262,1.77,8.94,14.34,1785104005454.362
-0.91,-0.298,-0.271,5.49,8.21,13.76,1785104005457.574
-0.909,-0.287,-0.28,8.27,8.09,13.4,1785104005467.99
-0.902,-0.276,-0.286,9.64,8.27,13.82,1785104005478.465
-0.899,-0.271,-0.29,10.01,9.06,14.4,1785104005491.7659
-0.894,-0.274,-0.286,10.13,10.25,15.29,1785104005497.3572
-0.888,-0.28,-0.283,11.44,11.44,16.3,1785104005508.1038
-0.893,-0.292,-0.283,14.34,12.57,17.18,1785104005521.3398
-0.893,-0.292,-0.279,17.88,13.31,18.4,1785104005526.992
-0.892,-0.297,-0.277,22.43,13.92,19.32,1785104005537.861
-0.895,-0.299,-0.284,27.13,14.4,19.62,1785104005548.4731
-0.896,-0.302,-0.291,31.56,14.71,19.62,1785104005561.707
-0.895,-0.304,-0.304,36.26,15.2,18.83,1785104005567.4949
-0.894,-0.3,-0.316,41.75,15.72,18.28,1785104005578.1802
-0.898,-0.306,-0.339,47.73,16.33,17.3,1785104005591.5178
-0.909,-0.327,-0.365,54.17,17.7,15.63,1785104005597.187
-0.922,-0.333,-0.365,61.86,19.47,14.56,1785104005607.9968
-0.918,-0.339,-0.365,71.81,20.78,14.16,1785104005618.5952
-0.913,-0.334,-0.364,83.04,21.58,13.58,1785104005631.894
-0.899,-0.333,-0.392,94.09,22.1,13.31,1785104005637.433
-0.889,-0.348,-0.469,104.74,23.93,11.41,1785104005648.271
-0.89,-0.355,-0.508,116.67,27.56,8.67,1785104005662.47
-0.891,-0.36,-0.498,130.13,30.73,6.78,1785104005667.2031
-0.897,-0.36,-0.502,143.59,33.69,5.55,1785104005677.903
-0.903,-0.371,-0.519,156.93,37.29,4.82,1785104005688.7158
-0.899,-0.387,-0.557,169.56,41.63,3.91,1785104005701.994
-0.901,-0.403,-0.577,183.39,47.27,3.3,1785104005707.674
-0.906,-0.413,-0.563,198.92,53.01,2.81,1785104005718.397
-0.895,-0.438,-0.554,213.63,57.19,2.56,1785104005731.6921
-0.89,-0.481,-0.584,227.52,62.11,2.01,1785104005737.3938
-0.885,-0.495,-0.574,239.84,67.42,1.86,1785104005748.092
-0.877,-0.504,-0.56,246.93,71.05,2.96,1785104005758.793
-0.881,-0.529,-0.581,246.89,74.86,2.78,1785104005772.0671
-0.903,-0.584,-0.599,242.56,79.87,0.31,1785104005777.8672
-0.919,-0.632,-0.569,235.85,83.59,-1.71,1785104005788.5562
-0.932,-0.669,-0.569,228.22,85.82,-3.23,1785104005801.9167
-0.94,-0.69,-0.613,219.24,88.32,-5.13,1785104005807.5002
-0.986,-0.688,-0.569,208.84,90.49,-8.61,1785104005818.4053
-0.949,-0.725,-0.591,200.78,88.5,-13.67,1785104005831.63
-0.949,-0.71,-0.669,182.32,88.99,-23.71,1785104005837.3152
-0.971,-0.75,-0.632,156.53,95.89,-29.73,1785104005848.323
-1.003,-0.817,-0.505,136.23,99.92,-35.89,1785104005861.645
-0.988,-0.874,-0.476,128.39,99.12,-42.79,1785104005867.5588
-1.024,-0.891,-0.388,126.19,98.45,-50.23,1785104005878.314
-1.008,-0.904,-0.333,130.22,93.84,-55.76,1785104005891.634
-1.062,-0.887,-0.296,131.35,90.98,-64.33,1785104005897.0781
-1.097,-0.912,-0.292,132.69,87.59,-71.63,1785104005908.305
-1.126,-0.903,-0.26,133.27,83.74,-79.78,1785104005921.587
-1.124,-0.893,-0.236,133.34,79.01,-88.02,1785104005927.553
-1.111,-0.881,-0.292,131.6,74.59,-98.06,1785104005938.287
-1.103,-0.895,-0.308,128.79,72.39,-107.52,1785104005951.533
-1.089,-0.905,-0.262,126.38,69.34,-114.66,1785104005957.278
-1.063,-0.921,-0.209,126.8,65.95,-119.75,1785104005968.363
-1.032,-0.931,-0.203,131.53,61.19,-124.03,1785104005981.728
-1.003,-0.899,-0.186,132.08,56.12,-128.12,1785104005989.2852
-0.953,-0.932,-0.164,129.12,51.76,-132.39,1785104005998.688
-0.924,-0.964,-0.177,122.47,47.15,-138.55,1785104006011.955
-0.9,-0.972,-0.184,113.35,44.4,-143.56,1785104006017.904
-0.88,-0.96,-0.146,100.86,42.24,-147.8,1785104006028.928
-0.91,-0.965,-0.089,85.76,40.65,-150.67,1785104006042.2158
-0.892,-1.0,-0.08,76.08,37.51,-152.53,1785104006048.104
-0.884,-0.975,-0.091,64.64,34.64,-157.17,1785104006059.0972
-0.883,-0.972,-0.027,54.38,34.06,-158.12,1785104006072.552
-0.843,-1.003,-0.024,53.65,29.54,-158.76,1785104006078.092
-0.814,-0.955,-0.068,52.52,25.48,-162.08,1785104006089.0132
-0.819,-0.933,-0.023,47.76,24.72,-162.45,1785104006102.134
-0.759,-0.99,-0.019,52.46,21.06,-161.23,1785104006108.042
-0.733,-0.942,-0.007,49.41,18.19,-163.24,1785104006118.649
-0.723,-0.977,0.07,43.7,18.01,-161.05,1785104006132.134
-0.683,-1.048,0.126,47.3,13.28,-159.34,1785104006137.972
-0.633,-1.023,0.098,50.17,6.99,-159.95,1785104006148.677
-0.602,-0.972,0.096,44.01,3.97,-158.67,1785104006161.956
-0.56,-0.993,0.101,34.3,0.31,-157.2,1785104006167.861
-0.533,-1.044,0.101,24.99,-4.64,-157.96,1785104006178.401
-0.474,-1.1,0.037,20.14,-10.44,-158.67,1785104006191.654
-0.409,-1.106,-0.035,7.57,-13.09,-161.17,1785104006197.666
-0.386,-1.137,-0.036,-12.02,-11.87,-163.61,1785104006208.277
-0.362,-1.206,0.011,-27.47,-11.08,-166.17,1785104006221.8271
-0.362,-1.206,0.011,-33.97,-11.14,-169.8,1785104006227.701
-0.35,-1.266,0.085,-31.86,-12.21,-173.1,1785104006238.092
-0.37,-1.296,0.133,-24.05,-14.28,-175.66,1785104006249.017
-0.395,-1.302,0.166,-11.26,-17.91,-177.16,1785104006262.309
-0.406,-1.304,0.21,-11.26,-17.91,-177.16,1785104006268.211
-0.411,-1.309,0.201,5.74,-22.34,-178.96,1785104006278.844
-0.402,-1.28,0.189,24.35,-26.76,-180.33,1785104006292.531
-0.361,-1.228,0.156,42.21,-31.98,-180.82,1785104006298.089
-0.307,-1.173,0.116,56.18,-35.77,-181.28,1785104006308.854
-0.266,-1.134,0.119,63.75,-38.03,-181.77,1785104006322.285
-0.24,-1.095,0.138,66.53,-40.16,-182.41,1785104006328.0388
-0.216,-1.08,0.121,67.84,-42.42,-181.92,1785104006339.1711
-0.186,-1.078,0.092,68.24,-43.43,-181.86,1785104006352.041
-0.154,-1.1,0.062,69.58,-43.28,-181.8,1785104006358.009
-0.131,-1.108,0.082,73.09,-42.18,-180.7,1785104006368.75
-0.123,-1.09,0.135,80.6,-43.15,-177.95,1785104006381.9958
-0.102,-1.047,0.182,92.53,-46.17,-174.17,1785104006387.931
-0.053,-0.979,0.218,106.48,-50.39,-169.62,1785104006398.7883
0.015,-0.908,0.213,118.63,-56.22,-163.52,1785104006412.04
0.077,-0.851,0.196,125.16,-59.76,-158.64,1785104006417.982
0.11,-0.817,0.184,125.28,-60.79,-155.86,1785104006431.6978
0.127,-0.807,0.178,122.29,-61.04,-151.98,1785104006437.202
0.119,-0.8,0.194,120.0,-61.8,-146.43,1785104006448.3242
0.099,-0.772,0.229,119.33,-61.89,-141.51,1785104006461.7158
0.105,-0.749,0.257,119.39,-62.47,-137.24,1785104006467.628
0.145,-0.716,0.267,119.42,-64.12,-131.05,1785104006478.6638
0.17,-0.656,0.28,120.7,-64.94,-124.55,1785104006491.949
0.174,-0.615,0.283,123.14,-66.47,-118.66,1785104006497.859
0.192,-0.589,0.291,124.97,-68.15,-113.83,1785104006508.903
0.2,-0.592,0.286,128.18,-69.73,-109.56,1785104006522.2349
0.19,-0.587,0.319,132.24,-72.57,-104.37,1785104006528.179
0.179,-0.563,0.339,136.81,-75.87,-100.41,1785104006541.5908
0.195,-0.569,0.336,143.41,-80.84,-96.62,1785104006547.612
0.229,-0.548,0.336,150.91,-84.66,-94.79,1785104006558.389
0.241,-0.526,0.332,158.42,-89.63,-92.56,1785104006573.58
0.243,-0.519,0.318,166.33,-95.1,-90.49,1785104006577.4321
0.223,-0.508,0.322,171.64,-99.8,-89.33,1785104006588.371
0.202,-0.497,0.333,174.75,-105.2,-88.17,1785104006601.529
0.212,-0.495,0.358,178.69,-112.19,-88.11,1785104006607.5598
0.247,-0.509,0.359,183.69,-119.94,-87.68,1785104006618.577
0.273,-0.522,0.328,187.63,-127.38,-85.97,1785104006631.797
0.288,-0.517,0.303,189.92,-134.71,-85.21,1785104006637.7102
0.315,-0.492,0.286,190.95,-142.7,-83.83,1785104006648.763
0.314,-0.459,0.272,191.38,-150.03,-82.95,1785104006662.014
0.299,-0.419,0.254,190.28,-157.84,-83.74,1785104006667.9812
0.311,-0.365,0.243,187.26,-163.91,-85.3,1785104006681.4102
0.318,-0.337,0.243,182.59,-169.65,-85.7,1785104006687.36
0.298,-0.321,0.252,179.11,-174.9,-86.18,1785104006698.432
0.282,-0.326,0.243,178.62,-180.24,-85.57,1785104006711.717
0.292,-0.329,0.214,180.46,-185.37,-84.84,1785104006717.569
0.296,-0.313,0.181,182.44,-189.98,-83.19,1785104006728.606
0.31,-0.262,0.156,181.98,-193.64,-80.08,1785104006741.8828
0.351,-0.198,0.13,177.89,-195.68,-77.33,1785104006747.803
0.378,-0.155,0.121,172.03,-196.54,-74.04,1785104006758.825
0.348,-0.139,0.124,168.13,-197.03,-69.52,1785104006772.226
0.314,-0.147,0.122,166.91,-198.07,-64.49,1785104006778.13
0.301,-0.162,0.103,169.47,-199.41,-60.18,1785104006791.488
0.283,-0.159,0.106,175.66,-200.26,-55.82,1785104006797.43
0.24,-0.175,0.082,183.97,-202.31,-51.45,1785104006808.4868
0.216,-0.2,0.032,190.98,-205.66,-47.43,1785104006821.77
0.207,-0.194,0.01,197.36,-207.59,-43.43,1785104006827.6519
0.207,-0.181,-0.007,203.19,-208.53,-38.3,1785104006838.6921
0.19,-0.162,-0.022,207.31,-208.32,-33.17,1785104006851.9722
0.161,-0.161,-0.064,209.2,-207.71,-27.28,1785104006858.6572
0.132,-0.141,-0.106,207.25,-205.33,-21.7,1785104006868.9458
0.103,-0.128,-0.149,204.41,-202.52,-16.51,1785104006882.1938
0.066,-0.156,-0.208,200.96,-199.87,-11.35,1785104006888.204
0.033,-0.169,-0.226,196.42,-195.5,-5.58,1785104006901.5999
-0.003,-0.154,-0.213,196.91,-188.6,0.18,1785104006907.237
-0.057,-0.148,-0.208,202.12,-183.94,7.66,1785104006918.282
-0.099,-0.114,-0.217,208.93,-179.39,16.39,1785104006931.5532
-0.088,-0.048,-0.251,217.87,-173.35,26.89,1785104006937.5579
-0.027,0.012,-0.271,226.97,-166.57,40.25,1785104006948.5837
0.061,0.0,-0.318,232.67,-159.03,53.35,1785104006961.813
0.11,-0.043,-0.334,229.38,-150.64,66.9,1785104006967.7498
0.112,-0.121,-0.321,219.37,-140.63,87.07,1785104006978.5442
0.125,-0.172,-0.327,210.33,-130.07,105.44,1785104006992.068
0.104,-0.167,-0.303,204.23,-118.32,122.35,1785104006998.0103
0.043,-0.167,-0.288,199.96,-105.78,139.9,1785104007011.625
-0.01,-0.157,-0.285,192.6,-92.87,156.29,1785104007017.5427
-0.063,-0.173,-0.286,184.58,-79.81,171.33,1785104007028.648
-0.154,-0.254,-0.332,177.59,-66.74,185.09,1785104007042.009
-0.231,-0.347,-0.403,169.23,-53.93,198.19,1785104007047.884
-0.265,-0.421,-0.367,163.09,-41.47,212.5,1785104007058.798
-0.307,-0.512,-0.251,163.79,-31.01,228.58,1785104007072.316
-0.353,-0.608,-0.15,169.71,-24.14,246.22,1785104007078.227
-0.407,-0.691,-0.032,182.38,-20.26,266.82,1785104007091.5898
-0.476,-0.866,-0.083,200.45,-18.13,286.32,1785104007097.534
-0.534,-0.996,-0.185,208.9,-14.86,298.65,1785104007108.5552
-0.538,-1.024,-0.252,202.34,-9.4,310.86,1785104007121.799
-0.565,-1.027,-0.313,182.5,1.77,322.76,1785104007127.408
-0.683,-1.016,-0.275,146.49,11.35,332.74,1785104007138.768
-0.847,-1.1,-0.235,103.64,17.52,338.66,1785104007151.925
-1.017,-1.256,-0.227,60.27,20.36,337.78,1785104007157.955
-1.091,-1.475,-0.201,26.37,20.66,335.06,1785104007168.687
-1.086,-1.699,-0.193,7.78,17.12,330.73,1785104007181.8691
-1.082,-1.82,-0.17,0.58,11.41,324.84,1785104007187.7793
-1.091,-1.831,-0.099,-0.03,2.17,320.6,1785104007198.23
-1.106,-1.809,-0.077,-1.62,-7.29,313.79,1785104007208.8918
-1.147,-1.811,-0.115,-12.73,-13.58,304.42,1785104007222.182
-1.164,-1.841,-0.126,-28.23,-15.38,294.69,1785104007228.0222
-1.197,-1.921,-0.15,-34.7,-20.57,286.11,1785104007238.964
-1.22,-1.904,-0.232,-26.37,-28.23,276.44,1785104007251.999
-1.25,-1.775,-0.386,-5.22,-35.98,264.26,1785104007258.2778
-1.272,-1.57,-0.479,7.51,-41.11,251.01,1785104007268.5493
-1.297,-1.443,-0.453,1.01,-41.99,239.69,1785104007281.797
-1.289,-1.41,-0.372,-18.86,-39.7,230.69,1785104007287.747
-1.233,-1.441,-0.35,-38.0,-34.36,226.42,1785104007298.512
-1.196,-1.468,-0.361,-51.94,-28.72,227.27,1785104007311.748
-1.235,-1.391,-0.383,-60.91,-23.41,225.68,1785104007317.671
-1.264,-1.274,-0.416,-66.01,-20.75,223.0,1785104007328.393
-1.248,-1.144,-0.407,-70.96,-19.17,217.72,1785104007341.6838
-1.271,-1.085,-0.385,-72.51,-17.85,209.14,1785104007347.6018
-1.285,-1.09,-0.347,-64.09,-18.71,199.29,1785104007358.3848
-1.268,-1.086,-0.31,-43.61,-18.89,187.57,1785104007371.614
-1.207,-1.084,-0.274,-19.65,-19.23,180.91,1785104007377.595
-1.163,-1.067,-0.278,3.05,-20.63,179.69,1785104007388.256
-1.195,-1.006,-0.334,19.53,-13.09,179.27,1785104007398.957
-1.174,-0.936,-0.357,22.43,-0.79,176.31,1785104007412.231
-1.144,-0.947,-0.332,21.15,9.7,174.23,1785104007418.188
-1.157,-0.934,-0.299,26.0,20.29,169.53,1785104007428.792
-1.123,-0.898,-0.307,35.04,29.91,165.5,1785104007442.146
-1.075,-0.844,-0.306,43.89,39.61,160.92,1785104007447.9626
-1.071,-0.807,-0.236,51.91,48.34,156.56,1785104007458.8853
-1.098,-0.826,-0.167,65.77,54.87,153.87,1785104007472.467
-1.106,-0.847,-0.13,86.73,59.76,155.67,1785104007477.938
-1.107,-0.878,-0.123,113.5,63.26,158.3,1785104007489.607
-1.115,-0.926,-0.134,141.58,67.29,159.4,1785104007502.2878
-1.115,-0.926,-0.134,165.14,72.24,159.49,1785104007508.1511
-1.117,-0.92,-0.136,183.36,77.64,158.97,1785104007521.4773
-1.078,-0.885,-0.154,201.73,85.15,154.79,1785104007527.193
-1.074,-0.849,-0.199,216.5,94.85,155.8,1785104007538.6428
-1.049,-0.783,-0.277,225.9,102.3,152.32,1785104007551.752
-1.051,-0.664,-0.269,225.9,102.3,152.32,1785104007557.702
-1.06,-0.643,-0.285,238.04,104.83,145.7,1785104007568.9119
-1.089,-0.566,-0.259,240.36,109.2,137.79,1785104007582.1729
-1.112,-0.546,-0.192,241.34,114.96,138.52,1785104007588.2493
-1.094,-0.509,-0.148,241.07,118.02,136.54,1785104007601.7659
-1.066,-0.404,-0.098,233.41,120.09,131.41,1785104007607.708
-1.043,-0.339,-0.076,219.61,124.21,128.88,1785104007619.17
-1.06,-0.318,-0.082,197.88,128.85,121.68,1785104007632.4238
-1.105,-0.363,-0.072,170.42,133.7,111.48,1785104007638.2249
-1.134,-0.443,-0.029,144.35,137.58,102.85,1785104007651.831
-1.142,-0.52,0.025,131.35,138.22,97.51,1785104007657.87
-1.132,-0.569,0.065,135.78,134.43,94.85,1785104007668.706
-1.112,-0.588,0.071,154.21,126.8,92.17,1785104007682.1858
-1.1,-0.577,0.04,178.08,117.59,88.69,1785104007688.1
-1.093,-0.548,-0.0,199.19,108.49,84.63,1785104007701.517
-1.083,-0.511,-0.021,213.35,100.41,79.44,1785104007707.5698
-1.066,-0.479,-0.018,221.81,92.62,73.46,1785104007718.408
-1.046,-0.435,0.006,226.14,84.41,67.69,1785104007731.667
-1.016,-0.359,0.023,225.71,75.69,62.69,1785104007737.5889
-0.966,-0.298,-0.012,218.57,68.73,57.16,1785104007748.39
-0.94,-0.281,-0.066,201.48,65.07,47.12,1785104007761.8098
-0.942,-0.309,-0.076,175.02,62.87,34.91,1785104007767.565
-0.95,-0.37,-0.044,147.22,60.27,24.35,1785104007778.375
-0.956,-0.429,-0.004,127.66,56.12,16.36,1785104007791.6802
-0.95,-0.452,0.002,117.95,49.84,10.1,1785104007797.713
-0.941,-0.451,-0.016,113.74,42.97,5.62,1785104007808.286
-0.934,-0.432,-0.036,109.13,36.53,2.41,1785104007818.856
-0.928,-0.411,-0.055,103.09,31.04,0.18,1785104007832.139
-0.912,-0.392,-0.068,96.5,26.31,-2.2,1785104007838.045
-0.895,-0.377,-0.077,90.03,21.73,-4.79,1785104007848.3782
-0.874,-0.366,-0.088,83.62,18.04,-6.99,1785104007858.948
-0.857,-0.366,-0.109,76.94,14.83,-9.25,1785104007872.3508
-0.854,-0.359,-0.119,69.92,12.12,-11.26,1785104007878.102
-0.854,-0.351,-0.131,62.56,9.89,-12.51,1785104007888.569
-0.849,-0.349,-0.15,55.09,8.39,-13.46,1785104007901.511
-0.842,-0.364,-0.176,48.4,7.45,-14.95,1785104007907.804
-0.842,-0.367,-0.183,41.72,6.84,-15.93,1785104007917.912
-0.832,-0.358,-0.171,36.13,6.29,-15.81,1785104007928.472
-0.823,-0.36,-0.18,33.02,5.37,-16.27,1785104007941.741
-0.832,-0.362,-0.188,30.03,4.61,-15.84,1785104007947.639
-0.845,-0.38,-0.183,27.77,3.78,-12.79,1785104007957.966
-0.86,-0.369,-0.18,28.87,2.9,-10.38,1785104007968.446
-0.864,-0.352,-0.19,31.89,1.83,-7.84,1785104007978.9263
-0.847,-0.343,-0.209,34.61,0.46,-5.49,1785104007992.3142
-0.836,-0.337,-0.229,37.6,-0.76,-3.51,1785104007998.001
-0.839,-0.329,-0.248,39.06,-1.8,-1.77,1785104008008.1038
-0.843,-0.319,-0.268,38.0,-1.92,-0.55,1785104008018.584
-0.835,-0.323,-0.275,35.1,-0.46,0.73,1785104008031.873
-0.827,-0.344,-0.28,31.59,1.43,1.25,1785104008037.676
-0.833,-0.373,-0.278,30.09,2.87,1.34,1785104008047.772
-0.845,-0.394,-0.269,31.62,3.2,2.14,1785104008058.2312
-0.853,-0.399,-0.261,35.95,2.23,3.08,1785104008068.71
-0.85,-0.386,-0.268,41.78,0.52,4.55,1785104008081.9998
-0.848,-0.366,-0.289,45.9,-1.37,5.62,1785104008087.874
-0.854,-0.349,-0.31,45.23,-2.72,6.01,1785104008097.924
-0.855,-0.339,-0.319,39.83,-3.42,5.95,1785104008108.403
-0.853,-0.335,-0.314,32.26,-3.63,6.07,1785104008118.842
-0.851,-0.335,-0.306,23.99,-4.3,6.65,1785104008132.105
-0.851,-0.335,-0.294,15.93,-5.16,6.9,1785104008138.044
-0.858,-0.334,-0.284,7.72,-6.2,6.81,1785104008147.944
-0.863,-0.336,-0.282,-0.4,-7.35,6.93,1785104008158.334
-0.871,-0.335,-0.278,-8.15,-8.24,7.02,1785104008168.673
-0.879,-0.336,-0.289,-15.53,-8.67,7.14,1785104008181.921
-0.884,-0.344,-0.305,-22.68,-8.0,6.9,1785104008187.726
-0.885,-0.354,-0.306,-28.93,-6.9,6.04,1785104008197.872
-0.881,-0.373,-0.292,-32.07,-5.98,5.25,1785104008208.3508
-0.872,-0.39,-0.28,-30.55,-5.58,4.61,1785104008218.823
-0.875,-0.408,-0.268,-24.96,-5.74,4.15,1785104008232.3252
-0.874,-0.412,-0.259,-17.49,-6.38,4.76,1785104008237.893
-0.872,-0.412,-0.264,-8.76,-7.08,5.25,1785104008247.879
-0.87,-0.408,-0.282,-0.52,-7.32,5.55,1785104008258.293
-0.866,-0.403,-0.294,6.26,-7.42,5.46,1785104008268.626
-0.861,-0.404,-0.305,12.27,-7.48,5.07,1785104008281.9421
-0.855,-0.401,-0.311,16.82,-7.32,5.16,1785104008287.455
-0.849,-0.391,-0.316,20.05,-7.45,5.68,1785104008297.902
-0.846,-0.379,-0.328,21.15,-7.14,6.01,1785104008308.0608
-0.846,-0.373,-0.331,18.77,-6.16,5.68,1785104008318.827
-0.845,-0.376,-0.324,14.28,-5.13,5.31,1785104008332.108
-0.846,-0.383,-0.317,9.98,-4.18,5.07,1785104008337.761
-0.844,-0.385,-0.316,6.1,-3.33,4.55,1785104008347.814
-0.851,-0.372,-0.328,1.65,-2.78,1.89,1785104008358.2021
-0.853,-0.375,-0.297,-5.74,-2.5,2.41,1785104008368.633
-0.854,-0.447,-0.266,-7.87,-0.7,7.32,1785104008378.932
-0.898,-0.43,-0.246,-0.73,-1.65,4.97,1785104008392.446
-0.891,-0.403,-0.264,6.16,-3.78,3.72,1785104008397.988
-0.874,-0.4,-0.255,8.09,-6.13,3.88,1785104008407.885
-0.888,-0.389,-0.242,7.66,-7.48,2.11,1785104008418.22
-0.887,-0.395,-0.233,6.87,-6.53,1.19,1785104008428.6147
-0.885,-0.408,-0.223,6.84,-5.1,-0.24,1785104008441.938
-0.886,-0.433,-0.2,10.9,-4.27,-1.1,1785104008447.631
-0.896,-0.454,-0.194,21.03,-4.64,-1.98,1785104008457.797
-0.9,-0.449,-0.204,34.67,-6.71,-1.86,1785104008468.194
-0.894,-0.428,-0.232,47.12,-9.43,-1.68,1785104008478.6938
-0.882,-0.394,-0.263,53.44,-10.62,-1.71,1785104008491.988
-0.876,-0.361,-0.275,52.67,-10.25,-1.25,1785104008497.8728
-0.868,-0.34,-0.266,46.54,-10.04,-0.24,1785104008508.147
-0.866,-0.326,-0.256,37.78,-9.06,-0.46,1785104008518.563
-0.857,-0.341,-0.244,28.08,-8.06,0.06,1785104008531.809
-0.847,-0.372,-0.242,21.15,-7.78,-0.21,1785104008537.688
-0.865,-0.38,-0.229,17.58,-8.51,-1.89,1785104008547.617
-0.879,-0.408,-0.209,17.88,-10.1,-2.59,1785104008558.388
-0.887,-0.439,-0.205,22.61,-12.36,-2.81,1785104008568.9048
-0.898,-0.435,-0.2,29.02,-14.01,-2.38,1785104008582.201
-0.897,-0.433,-0.212,34.85,-15.59,-1.43,1785104008588.0508
-0.894,-0.423,-0.218,38.36,-16.54,-1.56,1785104008598.36
-0.897,-0.419,-0.221,39.67,-17.09,-1.8,1785104008608.895
-0.891,-0.411,-0.22,38.33,-17.3,-1.13,1785104008622.1418
-0.885,-0.393,-0.221,34.42,-17.06,-0.85,1785104008628.0242
-0.878,-0.384,-0.239,27.83,-16.14,-0.89,1785104008638.335
-0.867,-0.378,-0.235,18.68,-14.01,-1.01,1785104008648.874
-0.871,-0.373,-0.227,9.77,-13.28,-2.75,1785104008662.164
-0.866,-0.387,-0.22,2.29,-12.63,-2.47,1785104008667.9639
-0.869,-0.387,-0.228,-4.7,-12.27,-2.08,1785104008678.1067
-0.875,-0.378,-0.215,-10.8,-11.17,-1.8,1785104008688.77
-0.882,-0.382,-0.199,-15.78,-10.77,-1.89,1785104008701.913
-0.883,-0.39,-0.19,-20.33,-10.62,-1.83,1785104008707.8618
-0.881,-0.395,-0.189,-24.84,-10.19,-1.89,1785104008718.087
-0.883,-0.4,-0.183,-29.6,-9.28,-2.35,1785104008728.545
-0.883,-0.404,-0.178,-33.85,-8.67,-2.9,1785104008741.845
-0.876,-0.399,-0.173,-36.96,-8.24,-3.27,1785104008747.597
-0.878,-0.408,-0.176,-37.11,-8.48,-3.72,1785104008757.7239
-0.886,-0.415,-0.17,-35.19,-8.88,-3.88,1785104008768.193
-0.891,-0.417,-0.159,-30.34,-9.74,-3.91,1785104008778.688
-0.893,-0.421,-0.15,-23.1,-10.8,-4.09,1785104008792.022
-0.893,-0.421,-0.15,-15.23,-11.93,-4.3,1785104008797.8071
-0.897,-0.427,-0.145,-7.78,-12.45,-4.03,1785104008808.059
-0.895,-0.431,-0.141,0.06,-13.0,-3.51,1785104008818.51
-0.89,-0.437,-0.133,9.92,-13.89,-3.81,1785104008828.9258
-0.9,-0.459,-0.134,9.92,-13.89,-3.81,1785104008842.2349
-0.9,-0.456,-0.137,18.8,-14.95,-3.11,1785104008848.145
-0.888,-0.438,-0.16,26.52,-15.75,-2.04,1785104008858.335
-0.88,-0.413,-0.192,30.43,-15.69,-1.34,1785104008868.8672
-0.873,-0.383,-0.215,28.87,-14.65,-1.31,1785104008882.1519
-0.871,-0.367,-0.218,23.01,-13.03,-1.19,1785104008888.0242
-0.875,-0.364,-0.207,14.92,-11.84,-0.95,1785104008898.3528
-0.872,-0.342,-0.193,4.7,-11.38,-0.43,1785104008908.8362
-0.861,-0.332,-0.193,-5.95,-10.16,0.06,1785104008922.325
-0.864,-0.343,-0.191,-16.91,-8.39,-0.95,1785104008927.859
-0.878,-0.374,-0.183,-27.34,-7.05,-2.81,1785104008937.992
-0.888,-0.405,-0.166,-34.49,-6.1,-4.46,1785104008948.7722
-0.892,-0.433,-0.151,-34.91,-6.01,-5.77,1785104008958.918
-0.902,-0.452,-0.14,-29.57,-6.9,-6.16,1785104008972.4888
-0.902,-0.447,-0.145,-22.55,-8.48,-5.68,1785104008978.057
-0.898,-0.434,-0.159,-15.59,-9.13,-5.31,1785104008988.139
-0.896,-0.416,-0.174,-10.8,-9.13,-5.31,1785104008998.615
-0.889,-0.404,-0.177,-8.24,-8.85,-5.07,1785104009008.964
-0.88,-0.401,-0.182,-6.16,-8.3,-4.97,1785104009022.348
-0.878,-0.405,-0.183,-4.0,-7.81,-5.19,1785104009027.81
-0.88,-0.414,-0.174,-0.85,-7.45,-5.4,1785104009037.951
-0.883,-0.422,-0.168,3.91,-7.32,-5.46,1785104009048.237
-0.893,-0.424,-0.158,10.59,-7.14,-5.31,1785104009058.851
-0.891,-0.441,-0.149,19.32,-8.03,-4.27,1785104009072.374
-0.89,-0.446,-0.151,28.5,-9.16,-2.75,1785104009077.9277
-0.896,-0.44,-0.151,37.54,-9.77,-1.65,1785104009087.925
-0.897,-0.457,-0.154,47.21,-10.44,-0.82,1785104009098.433
-0.9,-0.461,-0.147,55.7,-11.47,0.73,1785104009111.758
-0.901,-0.45,-0.129,64.79,-12.76,2.9,1785104009117.607
-0.895,-0.411,-0.102,72.97,-14.98,5.62,1785104009127.947
-0.87,-0.353,-0.123,77.64,-16.6,7.51,1785104009138.69
-0.858,-0.306,-0.165,73.46,-15.26,6.32,1785104009151.722
-0.864,-0.29,-0.19,58.35,-11.9,3.05,1785104009157.6619
-0.872,-0.308,-0.182,38.73,-7.42,-0.31,1785104009167.8237
-0.883,-0.347,-0.152,21.94,-3.3,-2.78,1785104009178.33
-0.893,-0.383,-0.128,11.9,-1.13,-4.06,1785104009188.8682
-0.896,-0.398,-0.122,6.62,-0.52,-4.12,1785104009202.027
-0.894,-0.39,-0.13,2.29,-0.09,-3.94,1785104009207.759
-0.887,-0.377,-0.129,-3.45,0.67,-3.57,1785104009217.633
-0.888,-0.384,-0.118,-9.03,1.71,-3.11,1785104009227.9802
-0.891,-0.391,-0.11,-12.24,2.35,-2.38,1785104009238.787
-0.885,-0.385,-0.101,-13.64,2.32,-1.5,1785104009251.799
-0.881,-0.389,-0.096,-13.34,2.04,-0.73,1785104009257.681
-0.882,-0.393,-0.093,-12.42,1.83,0.03,1785104009267.77
-0.883,-0.398,-0.089,-10.16,1.89,0.85,1785104009278.3352
-0.885,-0.396,-0.093,-6.23,1.22,0.37,1785104009288.723
-0.889,-0.39,-0.101,-3.3,0.7,0.12,1785104009299.0579
-0.888,-0.385,-0.105,-2.66,0.95,0.12,1785104009312.1763
-0.887,-0.382,-0.107,-3.63,1.62,0.03,1785104009317.7932
-0.885,-0.387,-0.103,-4.76,2.78,0.24,1785104009327.858
-0.891,-0.396,-0.097,-4.82,3.72,0.27,1785104009338.5432
-0.892,-0.4,-0.095,-4.12,3.97,0.49,1785104009348.6072
-0.888,-0.406,-0.1,-2.01,3.94,1.31,1785104009361.8838
-0.894,-0.401,-0.108,-0.03,4.03,1.71,1785104009367.532
-0.894,-0.4,-0.109,0.55,4.27,3.2,1785104009377.543
-0.886,-0.396,-0.107,1.4,4.39,3.94,1785104009388.0278
-0.887,-0.4,-0.111,2.69,3.81,4.27,1785104009398.3093
-0.892,-0.397,-0.113,3.11,3.51,4.73,1785104009408.721
-0.891,-0.389,-0.114,2.5,3.3,4.82,1785104009422.109
-0.889,-0.391,-0.112,1.43,3.33,4.79,1785104009427.5698
-0.889,-0.407,-0.107,0.49,3.78,4.52,1785104009437.639
-0.891,-0.42,-0.102,0.64,4.09,4.27,1785104009448.0269
-0.893,-0.421,-0.106,2.08,4.18,4.06,1785104009458.366
-0.893,-0.414,-0.11,3.39,3.78,3.97,1785104009468.717
-0.887,-0.41,-0.117,3.42,3.97,4.0,1785104009482.005
-0.886,-0.413,-0.118,2.59,4.06,4.52,1785104009487.618
-0.891,-0.411,-0.118,1.65,4.27,4.49,1785104009497.666
-0.891,-0.418,-0.119,0.73,4.73,4.58,1785104009508.111
-0.889,-0.423,-0.114,0.37,5.04,4.7,1785104009518.462
-0.892,-0.426,-0.11,0.34,5.07,5.46,1785104009528.8022
-0.896,-0.426,-0.11,0.43,4.85,5.43,1785104009542.1492
-0.896,-0.425,-0.112,-0.12,4.85,5.4,1785104009547.408
-0.897,-0.424,-0.111,-1.04,5.01,5.4,1785104009557.808
-0.895,-0.423,-0.111,-2.11,5.13,5.28,1785104009568.185
-0.896,-0.422,-0.11,-2.9,4.91,5.1,1785104009578.534
-0.896,-0.424,-0.105,-3.3,4.55,4.36,1785104009589.02
-0.894,-0.425,-0.106,-3.57,4.12,3.42,1785104009602.1418
-0.896,-0.425,-0.102,-3.88,3.78,2.66,1785104009607.8137
-0.899,-0.431,-0.099,-3.54,3.48,1.83,1785104009617.858
-0.901,-0.434,-0.094,-1.8,2.87,1.28,1785104009628.232
-0.896,-0.432,-0.098,0.76,2.17,0.98,1785104009638.613
-0.894,-0.428,-0.106,3.11,1.46,0.46,1785104009648.926
-0.889,-0.419,-0.111,3.85,1.07,-0.09,1785104009662.242
-0.886,-0.414,-0.112,3.08,1.13,-0.46,1785104009667.5388
-0.886,-0.412,-0.109,2.17,1.01,-0.89,1785104009677.871
-0.885,-0.412,-0.105,1.62,0.73,-0.98,1785104009688.2717
-0.886,-0.42,-0.103,2.35,0.46,-0.55,1785104009698.7332
-0.899,-0.412,-0.101,3.75,0.06,-0.89,1785104009711.9802
-0.891,-0.406,-0.1,4.58,-0.55,-0.79,1785104009717.521
-0.886,-0.401,-0.105,3.91,-0.79,-1.01,1785104009727.668
-0.889,-0.395,-0.105,2.38,-0.46,-1.19,1785104009737.98
-0.887,-0.396,-0.101,0.82,-0.52,-0.95,1785104009748.317
-0.888,-0.4,-0.102,-0.21,-0.67,-0.76,1785104009758.728
-0.888,-0.401,-0.102,-0.82,-0.79,-0.85,1785104009771.9822
-0.886,-0.406,-0.104,-0.98,-0.82,-0.95,1785104009777.621
-0.887,-0.405,-0.103,-0.92,-1.07,-1.22,1785104009787.6611
-0.888,-0.4,-0.104,-0.7,-1.53,-1.13,1785104009798.02
-0.886,-0.395,-0.109,-1.25,-1.71,-1.1,1785104009808.4631
-0.886,-0.391,-0.114,-2.59,-1.8,-0.92,1785104009818.917
-0.89,-0.39,-0.112,-4.24,-1.86,-0.95,1785104009832.174
-0.89,-0.394,-0.11,-5.52,-1.8,-0.82,1785104009837.6782
-0.892,-0.398,-0.107,-6.1,-1.89,-0.58,1785104009847.7139
-0.893,-0.398,-0.111,-5.86,-2.14,-0.52,1785104009858.115
-0.892,-0.397,-0.115,-5.62,-2.32,-0.4,1785104009868.4548
-0.893,-0.398,-0.119,-5.52,-2.38,-0.24,1785104009878.852
-0.893,-0.401,-0.122,-5.4,-2.26,0.0,1785104009892.274
-0.895,-0.397,-0.123,-5.55,-2.2,0.15,1785104009897.8018
-0.895,-0.395,-0.123,-5.8,-2.29,0.4,1785104009907.805
-0.896,-0.396,-0.124,-6.26,-2.17,0.4,1785104009918.1702
-0.895,-0.397,-0.125,-6.53,-2.14,0.46,1785104009928.57
-0.894,-0.402,-0.13,-6.68,-2.17,0.43,1785104009939.1511
-0.894,-0.402,-0.129,-6.74,-2.01,0.37,1785104009952.0562
-0.891,-0.399,-0.129,-6.81,-1.77,0.58,1785104009957.688
-0.886,-0.4,-0.128,-6.87,-1.65,0.67,1785104009967.834
-0.888,-0.402,-0.129,-6.81,-1.56,0.67,1785104009978.2432
-0.887,-0.404,-0.131,-6.68,-1.5,0.79,1785104009988.7441
-0.886,-0.403,-0.13,-6.41,-1.46,0.82,1785104010001.861
-0.887,-0.404,-0.132,-6.26,-1.46,0.82,1785104010007.2551
-0.885,-0.405,-0.139,-6.5,-1.43,0.7,1785104010017.534
-0.89,-0.404,-0.141,-7.14,-1.1,0.46,1785104010027.972
-0.892,-0.404,-0.139,-8.03,-0.61,0.61,1785104010038.46
-0.891,-0.405,-0.139,-8.7,-0.21,0.7,1785104010048.691
-0.892,-0.406,-0.136,-9.06,-0.09,0.79,1785104010061.939
-0.891,-0.408,-0.133,-9.19,0.09,0.67,1785104010067.5608
-0.891,-0.408,-0.133,-8.55,0.15,0.49,1785104010077.707
-0.892,-0.408,-0.128,-7.39,0.06,0.4,1785104010088.0398
-0.891,-0.408,-0.125,-5.83,-0.27,0.12,1785104010098.419
-0.893,-0.409,-0.126,-4.82,-0.18,0.09,1785104010108.786
-0.893,-0.409,-0.127,-4.18,-0.37,-0.06,1785104010122.284
-0.893,-0.404,-0.131,-4.18,-0.37,-0.06,1785104010127.691
-0.895,-0.403,-0.132,-3.81,-0.61,-0.37,1785104010138.078
-0.897,-0.401,-0.125,-3.63,-0.64,-0.46,1785104010148.0698
-0.898,-0.405,-0.122,-2.96,-0.7,-0.4,1785104010158.4749
-0.896,-0.402,-0.123,-1.86,-0.92,-0.27,1785104010168.8572
-0.896,-0.392,-0.128,-1.53,-1.4,-0.7,1785104010182.107
-0.894,-0.389,-0.129,-2.69,-1.07,-0.85,1785104010187.694
-0.894,-0.392,-0.128,-3.81,-0.79,-0.98,1785104010197.7532
-0.895,-0.396,-0.128,-4.15,-0.76,-1.19,1785104010208.183
-0.897,-0.397,-0.127,-4.49,-0.82,-1.28,1785104010218.556
-0.895,-0.396,-0.125,-4.79,-0.92,-1.16,1785104010228.936
-0.891,-0.398,-0.127,-4.21,-1.04,-1.07,1785104010242.2148
-0.891,-0.398,-0.125,-3.39,-1.25,-0.92,1785104010247.803
-0.887,-0.397,-0.125,-2.56,-1.5,-0.92,1785104010257.864
-0.885,-0.396,-0.127,-1.71,-1.56,-0.85,1785104010268.199
-0.883,-0.391,-0.128,-1.46,-1.59,-0.73,1785104010278.613
-0.885,-0.39,-0.129,-1.71,-1.59,-0.79,1785104010289.073
-0.889,-0.391,-0.13,-2.04,-1.5,-0.79,1785104010302.2341
-0.889,-0.392,-0.132,-2.56,-1.07,-0.92,1785104010307.95
-0.89,-0.393,-0.133,-3.08,-0.95,-0.92,1785104010317.896
-0.889,-0.392,-0.135,-3.66,-0.73,-0.76,1785104010328.276
-0.887,-0.391,-0.137,-4.15,-0.34,-0.58,1785104010338.835
-0.887,-0.397,-0.137,-4.46,-0.18,-0.46,1785104010352.0498
-0.887,-0.4,-0.134,-4.49,-0.06,-0.49,1785104010357.6191
-0.887,-0.403,-0.133,-3.97,-0.21,-0.27,1785104010367.5908
-0.887,-0.403,-0.13,-3.3,-0.18,-0.37,1785104010378.075
