ax,ay,az,gx,gy,gz,timestamp_ms
-0.848,-0.221,-0.462,-18.13,-3.66,1.92,1785103857555.6482
-0.856,-0.214,-0.454,-12.67,-3.48,0.73,1785103857578.081
-0.862,-0.209,-0.452,-7.17,-3.17,-0.46,1785103857578.498
-0.863,-0.21,-0.446,-1.68,-2.93,-1.8,1785103857578.878
-0.867,-0.222,-0.445,3.78,-3.05,-3.27,1785103857579.2761
-0.871,-0.224,-0.449,9.25,-2.99,-4.55,1785103857579.663
-0.875,-0.222,-0.451,14.62,-2.93,-5.65,1785103857580.044
-0.882,-0.225,-0.453,19.17,-2.72,-7.39,1785103857580.4292
-0.884,-0.232,-0.444,22.95,-2.26,-9.31,1785103857580.8389
-0.881,-0.24,-0.424,26.64,-1.92,-11.87,1785103857581.229
-0.872,-0.254,-0.406,30.67,-2.26,-14.71,1785103857581.6091
-0.874,-0.265,-0.398,35.04,-2.99,-17.58,1785103857581.998
-0.877,-0.258,-0.392,38.91,-4.33,-19.87,1785103857582.345
-0.865,-0.232,-0.397,41.44,-6.23,-21.24,1785103857582.667
-0.851,-0.189,-0.408,41.32,-7.93,-21.61,1785103857583.004
-0.848,-0.162,-0.443,37.6,-8.64,-21.12,1785103857583.346
-0.861,-0.158,-0.449,30.27,-7.84,-21.55,1785103857583.679
-0.9,-0.159,-0.42,21.64,-8.7,-20.94,1785103857584.022
-0.866,-0.209,-0.429,17.64,-6.35,-11.81,1785103857584.366
-0.892,-0.186,-0.407,17.09,-5.46,-11.6,1785103857584.701
-0.858,-0.206,-0.392,14.89,-8.64,-7.93,1785103857585.021
-0.841,-0.198,-0.397,12.97,-10.35,-7.63,1785103857585.357
-0.87,-0.193,-0.393,13.0,-9.95,-6.84,1785103857585.689
-0.876,-0.188,-0.415,12.05,-9.06,-5.55,1785103857586.014
-0.846,-0.175,-0.437,9.64,-9.37,-6.35,1785103857586.3281
-0.84,-0.175,-0.442,5.49,-9.49,-7.14,1785103857586.6602
-0.859,-0.179,-0.44,0.85,-8.88,-8.51,1785103857586.986
-0.863,-0.191,-0.442,-2.11,-8.12,-9.43,1785103857587.302
-0.859,-0.181,-0.442,-5.74,-8.24,-10.83,1785103857587.632
-0.855,-0.171,-0.446,-9.7,-8.03,-11.32,1785103857587.9568
-0.856,-0.161,-0.457,-13.37,-7.93,-12.09,1785103857588.288
-0.857,-0.153,-0.452,-17.33,-7.78,-12.09,1785103857588.6199
-0.853,-0.161,-0.45,-20.08,-7.9,-11.66,1785103857588.954
-0.86,-0.157,-0.451,-22.1,-7.9,-11.81,1785103857589.2852
-0.866,-0.151,-0.451,-24.2,-7.51,-11.14,1785103857589.639
-0.862,-0.158,-0.453,-25.79,-6.59,-10.35,1785103857589.987
-0.862,-0.168,-0.441,-26.98,-5.68,-9.67,1785103857590.2778
-0.862,-0.181,-0.43,-25.82,-5.37,-8.94,1785103857590.583
-0.864,-0.184,-0.421,-22.4,-5.49,-8.24,1785103857590.866
-0.861,-0.186,-0.417,-17.76,-5.86,-7.14,1785103857591.157
-0.862,-0.192,-0.422,-13.06,-6.44,-6.07,1785103857591.445
-0.869,-0.195,-0.43,-8.73,-6.96,-5.28,1785103857591.732
-0.875,-0.197,-0.431,-4.79,-7.45,-4.58,1785103857592.0142
-0.879,-0.189,-0.44,-2.08,-7.84,-3.66,1785103857592.303
-0.875,-0.18,-0.452,-1.37,-7.9,-3.08,1785103857592.588
-0.868,-0.177,-0.455,-2.44,-7.51,-3.2,1785103857592.865
-0.861,-0.179,-0.452,-4.24,-7.02,-3.48,1785103857593.1467
-0.862,-0.184,-0.453,-5.95,-6.53,-4.0,1785103857593.43
-0.867,-0.188,-0.449,-8.0,-6.16,-4.73,1785103857593.724
-0.866,-0.188,-0.446,-10.22,-6.1,-5.19,1785103857594.02
-0.866,-0.188,-0.454,-12.39,-5.74,-5.4,1785103857594.311
-0.869,-0.186,-0.459,-15.66,-5.25,-5.62,1785103857594.599
-0.873,-0.19,-0.458,-19.01,-4.67,-6.04,1785103857594.8748
-0.87,-0.194,-0.449,-21.85,-4.12,-6.04,1785103857595.1611
-0.867,-0.201,-0.446,-23.22,-3.81,-5.83,1785103857595.448
-0.872,-0.21,-0.441,-23.47,-3.2,-5.62,1785103857595.7607
-0.878,-0.212,-0.431,-23.53,-2.81,-5.16,1785103857596.052
-0.877,-0.216,-0.427,-22.95,-2.53,-4.58,1785103857596.3562
-0.874,-0.221,-0.425,-21.82,-2.01,-4.18,1785103857596.644
-0.875,-0.22,-0.419,-20.02,-1.98,-3.97,1785103857596.972
-0.874,-0.221,-0.412,-17.12,-2.32,-3.75,1785103857597.2932
-0.87,-0.224,-0.411,-13.89,-2.5,-3.42,1785103857597.597
-0.865,-0.225,-0.411,-11.17,-2.56,-3.6,1785103857597.9253
-0.861,-0.23,-0.412,-8.91,-2.69,-3.94,1785103857598.2102
-0.852,-0.235,-0.422,-7.87,-2.59,-4.67,1785103857598.4758
-0.847,-0.235,-0.43,-7.05,-2.32,-5.58,1785103857598.738
-0.848,-0.234,-0.425,-6.47,-2.53,-6.59,1785103857598.9849
-0.839,-0.23,-0.416,-6.38,-2.93,-7.48,1785103857599.253
-0.832,-0.215,-0.414,-6.32,-3.33,-8.36,1785103857599.5059
-0.834,-0.196,-0.414,-7.08,-3.45,-8.7,1785103857599.7761
-0.834,-0.182,-0.418,-9.58,-3.3,-8.64,1785103857600.031
-0.831,-0.179,-0.423,-13.89,-2.75,-8.85,1785103857600.2922
-0.829,-0.197,-0.422,-17.76,-1.62,-9.37,1785103857600.5408
-0.832,-0.207,-0.417,-20.17,-0.85,-9.74,1785103857600.79
-0.836,-0.204,-0.411,-21.06,-0.46,-9.67,1785103857601.045
-0.835,-0.207,-0.415,-21.0,0.12,-9.77,1785103857601.305
-0.835,-0.205,-0.405,-20.26,0.76,-9.77,1785103857601.553
-0.835,-0.21,-0.4,-17.79,0.64,-9.43,1785103857601.818
-0.836,-0.208,-0.397,-14.95,0.34,-9.19,1785103857602.078
-0.841,-0.205,-0.404,-11.93,0.0,-8.85,1785103857602.3318
-0.849,-0.194,-0.41,-9.74,-0.37,-8.85,1785103857602.578
-0.86,-0.182,-0.415,-9.06,-0.55,-8.76,1785103857602.8318
-0.868,-0.174,-0.415,-9.86,-0.4,-8.18,1785103857603.086
-0.871,-0.184,-0.413,-11.05,0.21,-8.24,1785103857603.364
-0.88,-0.195,-0.407,-11.54,0.34,-8.39,1785103857603.625
-0.888,-0.199,-0.409,-11.6,0.0,-8.12,1785103857603.888
-0.887,-0.196,-0.408,-12.02,-0.18,-7.93,1785103857604.12
-0.887,-0.196,-0.41,-12.02,-0.46,-7.81,1785103857604.3542
-0.886,-0.194,-0.404,-12.24,-0.73,-7.48,1785103857604.5881
-0.888,-0.197,-0.4,-11.75,-0.92,-6.96,1785103857604.821
-0.886,-0.199,-0.399,-10.47,-0.98,-7.05,1785103857605.048
-0.885,-0.197,-0.391,-9.22,-0.82,-7.02,1785103857605.278
-0.88,-0.207,-0.386,-8.09,-0.64,-6.41,1785103857605.509
-0.879,-0.211,-0.377,-6.35,-0.89,-5.58,1785103857605.736
-0.878,-0.217,-0.382,-2.66,-1.19,-4.46,1785103857605.965
-0.879,-0.206,-0.387,0.55,-1.98,-4.03,1785103857606.196
-0.878,-0.195,-0.391,2.35,-3.02,-3.05,1785103857606.423
-0.882,-0.189,-0.4,2.66,-3.57,-2.41,1785103857606.651
-0.887,-0.189,-0.407,1.34,-3.63,-1.77,1785103857606.879
-0.893,-0.195,-0.412,-0.34,-3.48,-1.16,1785103857607.105
-0.897,-0.196,-0.41,-2.14,-3.51,-0.46,1785103857607.331
-0.896,-0.197,-0.408,-2.84,-3.81,0.0,1785103857607.5608
-0.89,-0.198,-0.409,-2.78,-4.43,0.06,1785103857607.7922
-0.889,-0.2,-0.409,-2.78,-5.01,-0.12,1785103857608.0242
-0.894,-0.198,-0.415,-3.36,-5.37,-0.46,1785103857608.254
-0.892,-0.197,-0.421,-4.12,-5.49,-0.64,1785103857608.4832
-0.882,-0.197,-0.423,-4.7,-5.49,-1.04,1785103857608.7449
-0.871,-0.2,-0.419,-4.67,-5.71,-1.68,1785103857609.0032
-0.861,-0.201,-0.419,-3.39,-5.95,-2.17,1785103857609.272
-0.853,-0.204,-0.42,-0.98,-6.2,-2.81,1785103857609.525
-0.845,-0.209,-0.422,1.77,-6.35,-3.81,1785103857609.7522
-0.842,-0.206,-0.421,4.36,-6.47,-4.21,1785103857609.9807
-0.837,-0.204,-0.423,6.96,-6.29,-3.69,1785103857610.209
-0.836,-0.2,-0.427,9.46,-6.01,-2.75,1785103857610.435
-0.835,-0.197,-0.427,11.29,-5.8,-1.89,1785103857610.666
-0.831,-0.201,-0.421,12.94,-5.34,-0.79,1785103857610.899
-0.83,-0.208,-0.419,14.71,-5.07,0.7,1785103857611.135
-0.828,-0.21,-0.415,16.21,-4.79,2.17,1785103857611.3633
-0.832,-0.219,-0.411,16.51,-4.79,3.39,1785103857611.598
-0.832,-0.219,-0.411,13.89,-4.55,4.12,1785103857611.822
-0.837,-0.235,-0.409,9.52,-3.36,5.34,1785103857612.031
-0.839,-0.248,-0.412,5.34,-1.83,6.38,1785103857612.246
-0.845,-0.239,-0.413,4.97,-0.64,8.45,1785103857612.4658
-0.841,-0.229,-0.42,4.97,-0.64,8.45,1785103857612.692
-0.84,-0.237,-0.45,9.09,0.64,9.37,1785103857612.9238
-0.85,-0.237,-0.459,15.59,1.68,9.37,1785103857613.177
-0.864,-0.249,-0.441,25.06,0.92,9.7,1785103857613.396
-0.874,-0.267,-0.416,35.07,-1.8,9.7,1785103857613.61
-0.873,-0.277,-0.405,42.85,-4.36,10.28,1785103857613.8408
-0.877,-0.267,-0.41,46.57,-5.52,10.68,1785103857614.063
-0.88,-0.239,-0.418,45.08,-5.1,10.71,1785103857614.287
-0.875,-0.212,-0.425,37.69,-3.66,10.47,1785103857614.511
-0.877,-0.211,-0.424,27.16,-0.73,8.97,1785103857614.732
-0.886,-0.231,-0.408,16.05,2.29,6.41,1785103857614.9531
-0.893,-0.244,-0.39,7.29,4.58,4.85,1785103857615.1611
-0.895,-0.248,-0.374,2.44,5.65,3.57,1785103857615.396
-0.901,-0.264,-0.372,1.13,5.37,0.85,1785103857615.614
-0.905,-0.275,-0.375,1.65,4.88,-1.65,1785103857615.826
-0.901,-0.277,-0.38,3.69,4.55,-2.93,1785103857616.044
-0.899,-0.273,-0.374,6.9,3.57,-4.61,1785103857616.263
-0.904,-0.267,-0.365,9.58,2.5,-5.89,1785103857616.482
-0.905,-0.264,-0.361,11.38,1.56,-6.32,1785103857616.698
-0.904,-0.256,-0.36,12.33,0.67,-7.02,1785103857616.9211
-0.901,-0.244,-0.362,11.51,0.09,-8.3,1785103857617.1418
-0.902,-0.23,-0.366,7.78,-0.03,-9.7,1785103857617.358
-0.899,-0.226,-0.375,2.53,0.67,-10.68,1785103857617.582
-0.895,-0.224,-0.379,-2.44,1.4,-11.9,1785103857617.797
-0.896,-0.231,-0.386,-6.38,1.86,-13.37,1785103857617.996
-0.895,-0.225,-0.381,-10.22,2.26,-14.07,1785103857618.21
-0.885,-0.217,-0.381,-13.28,2.23,-14.1,1785103857618.4211
-0.88,-0.21,-0.376,-16.33,1.89,-14.13,1785103857618.6309
-0.867,-0.211,-0.367,-19.17,1.56,-13.89,1785103857618.84
-0.859,-0.223,-0.371,-19.01,1.22,-14.59,1785103857619.051
-0.856,-0.222,-0.375,-17.88,0.61,-15.23,1785103857619.277
-0.85,-0.214,-0.385,-16.97,-0.12,-15.23,1785103857619.479
-0.843,-0.198,-0.393,-17.3,-0.34,-15.11,1785103857619.691
-0.837,-0.187,-0.398,-18.04,-0.24,-14.86,1785103857619.9019
-0.836,-0.186,-0.407,-18.59,-0.34,-14.62,1785103857620.116
-0.834,-0.194,-0.413,-19.44,-0.34,-14.34,1785103857620.322
-0.835,-0.196,-0.422,-19.5,-0.03,-13.64,1785103857620.558
-0.837,-0.198,-0.419,-18.37,0.24,-12.73,1785103857620.7722
-0.836,-0.196,-0.412,-16.36,0.27,-12.15,1785103857620.9763
-0.84,-0.188,-0.416,-13.67,-0.18,-11.2,1785103857621.184
-0.844,-0.188,-0.427,-11.35,-0.24,-9.89,1785103857621.3901
-0.853,-0.183,-0.432,-10.59,-0.15,-8.85,1785103857621.593
-0.859,-0.187,-0.435,-10.53,-0.09,-7.69,1785103857621.799
-0.874,-0.191,-0.431,-10.74,0.03,-6.35,1785103857622.0042
-0.877,-0.19,-0.441,-11.17,0.15,-4.82,1785103857622.2122
-0.886,-0.184,-0.448,-11.2,0.43,-3.85,1785103857622.414
-0.899,-0.182,-0.438,-11.93,0.64,-2.5,1785103857622.622
-0.899,-0.188,-0.431,-13.58,0.27,-0.89,1785103857622.824
-0.899,-0.205,-0.443,-14.95,0.4,0.09,1785103857623.0242
-0.903,-0.224,-0.447,-15.99,1.86,0.95,1785103857623.4187
-0.909,-0.228,-0.426,-14.77,1.28,0.85,1785103857623.62
-0.875,-0.182,-0.403,2.75,2.66,-0.46,1785103857623.966
-0.877,-0.181,-0.402,3.17,2.23,-0.67,1785103857624.195
-0.878,-0.179,-0.404,3.45,1.86,-0.7,1785103857624.418
-0.877,-0.176,-0.408,3.33,1.5,-0.64,1785103857624.819
-0.877,-0.176,-0.411,2.9,1.34,-0.43,1785103857635.147
-0.877,-0.178,-0.409,2.41,1.46,-0.31,1785103857645.5623
-0.876,-0.18,-0.41,2.08,1.22,-0.24,1785103857655.935
-0.876,-0.181,-0.41,1.98,1.04,-0.09,1785103857669.177
-0.879,-0.182,-0.41,2.38,0.76,-0.09,1785103857674.6519
-0.879,-0.18,-0.411,2.69,0.55,-0.15,1785103857684.8572
-0.87,-0.177,-0.415,2.56,0.15,-0.4,1785103857695.268
-0.867,-0.173,-0.417,1.77,-0.15,-0.64,1785103857705.65
-0.867,-0.171,-0.415,0.85,-0.4,-0.95,1785103857716.016
-0.861,-0.176,-0.416,0.0,-0.61,-1.28,1785103857729.3801
-0.858,-0.178,-0.417,-0.82,-0.89,-1.25,1785103857734.7378
-0.854,-0.176,-0.416,-1.56,-0.95,-1.22,1785103857745.03
-0.849,-0.173,-0.418,-1.89,-1.01,-1.43,1785103857755.38
-0.844,-0.17,-0.414,-2.23,-1.07,-1.74,1785103857765.7542
-0.837,-0.17,-0.409,-2.56,-0.98,-1.74,1785103857776.386
-0.836,-0.17,-0.403,-2.62,-0.98,-1.59,1785103857789.491
-0.836,-0.17,-0.402,-2.2,-1.22,-1.62,1785103857794.937
-0.836,-0.172,-0.404,-1.71,-1.37,-1.5,1785103857805.2192
-0.842,-0.174,-0.404,-1.68,-1.28,-1.25,1785103857815.5852
-0.846,-0.173,-0.405,-1.59,-1.28,-0.85,1785103857825.9949
-0.847,-0.173,-0.406,-1.37,-1.19,-0.4,1785103857836.401
-0.853,-0.177,-0.409,-1.04,-1.01,-0.09,1785103857849.7268
-0.863,-0.175,-0.398,-1.07,-0.85,0.55,1785103857854.967
-0.858,-0.19,-0.387,-0.67,-1.4,0.98,1785103857865.1672
-0.865,-0.192,-0.396,0.89,-1.25,0.95,1785103857875.699
-0.874,-0.182,-0.402,3.23,-1.22,2.11,1785103857886.0623
-0.881,-0.177,-0.409,3.75,-1.62,1.95,1785103857896.5251
-0.882,-0.176,-0.408,2.08,-1.53,1.74,1785103857909.863
-0.889,-0.18,-0.401,0.43,-1.25,1.86,1785103857915.435
-0.892,-0.185,-0.399,-0.31,-1.46,1.71,1785103857925.46
-0.894,-0.186,-0.395,-0.27,-1.98,1.83,1785103857935.762
-0.894,-0.184,-0.395,-0.12,-2.5,1.59,1785103857946.146
-0.898,-0.183,-0.4,-0.21,-2.87,1.37,1785103857959.441
-0.897,-0.183,-0.399,-0.73,-3.2,1.13,1785103857965.021
-0.895,-0.182,-0.397,-1.68,-3.42,0.73,1785103857975.132
-0.894,-0.184,-0.398,-2.59,-3.78,0.24,1785103857985.41
-0.89,-0.182,-0.398,-3.81,-4.3,-0.18,1785103857995.8389
-0.886,-0.18,-0.402,-5.13,-4.61,-0.61,1785103858006.3203
-0.882,-0.181,-0.407,-6.47,-4.52,-1.19,1785103858019.427
-0.878,-0.185,-0.406,-7.81,-4.46,-1.92,1785103858025.197
-0.873,-0.188,-0.405,-8.51,-4.27,-2.59,1785103858035.146
-0.873,-0.189,-0.403,-8.55,-4.3,-3.05,1785103858045.54
-0.87,-0.189,-0.402,-8.09,-4.3,-3.33,1785103858055.959
-0.868,-0.186,-0.403,-7.23,-4.27,-3.48,1785103858066.284
-0.865,-0.184,-0.407,-6.5,-4.27,-3.39,1785103858079.565
-0.86,-0.185,-0.41,-5.8,-3.69,-3.45,1785103858085.149
-0.856,-0.186,-0.41,-4.82,-3.39,-3.6,1785103858095.202
-0.852,-0.183,-0.408,-3.81,-2.78,-3.63,1785103858105.624
-0.854,-0.184,-0.406,-2.81,-2.04,-3.33,1785103858115.998
-0.86,-0.183,-0.406,-1.65,-1.46,-3.39,1785103858126.376
-0.868,-0.181,-0.407,-0.06,-0.95,-3.45,1785103858139.817
-0.876,-0.18,-0.405,1.34,-0.61,-3.11,1785103858145.252
-0.881,-0.18,-0.406,2.59,-0.43,-2.59,1785103858155.2908
-0.881,-0.181,-0.41,3.85,-0.15,-2.04,1785103858165.645
-0.878,-0.182,-0.409,5.01,0.15,-1.59,1785103858176.0588
-0.875,-0.183,-0.408,5.95,0.37,-1.1,1785103858186.4387
-0.873,-0.187,-0.406,6.62,0.55,-0.76,1785103858199.716
-0.869,-0.186,-0.403,6.96,0.76,-0.64,1785103858205.324
-0.864,-0.186,-0.407,7.42,0.98,-0.58,1785103858215.373
-0.865,-0.184,-0.406,7.45,1.34,-0.79,1785103858225.822
-0.865,-0.181,-0.404,7.42,1.59,-1.01,1785103858236.1309
-0.867,-0.18,-0.402,7.2,1.89,-1.28,1785103858246.529
-0.871,-0.18,-0.397,6.99,2.17,-1.37,1785103858259.8982
-0.873,-0.183,-0.392,6.68,2.17,-1.4,1785103858265.387
-0.879,-0.186,-0.391,6.71,2.23,-1.37,1785103858275.4402
-0.881,-0.186,-0.389,7.02,1.98,-0.95,1785103858285.7651
-0.884,-0.184,-0.39,7.57,1.62,-0.37,1785103858296.198
-0.887,-0.184,-0.391,8.12,1.28,0.21,1785103858309.536
-0.886,-0.189,-0.391,8.64,0.79,0.49,1785103858315.141
-0.892,-0.187,-0.392,8.91,0.37,0.76,1785103858325.17
-0.895,-0.188,-0.395,8.48,-0.09,1.28,1785103858335.51
-0.895,-0.185,-0.401,7.35,-0.46,1.74,1785103858345.9312
-0.893,-0.185,-0.411,6.38,-0.73,1.98,1785103858356.5361
-0.892,-0.189,-0.419,5.04,-0.82,2.17,1785103858369.5403
-0.883,-0.194,-0.422,3.63,-0.73,2.01,1785103858375.1052
-0.877,-0.196,-0.421,2.5,-0.79,1.8,1785103858385.161
-0.877,-0.196,-0.421,1.59,-0.67,1.53,1785103858395.657
-0.872,-0.197,-0.42,0.73,-0.31,1.1,1785103858405.941
-0.865,-0.197,-0.418,0.46,0.09,0.58,1785103858416.3
-0.86,-0.198,-0.418,0.79,0.37,0.03,1785103858429.559
-0.858,-0.2,-0.418,1.43,0.49,-0.46,1785103858435.175
-0.86,-0.199,-0.42,1.43,0.49,-0.46,1785103858445.271
-0.861,-0.199,-0.42,2.14,0.61,-0.52,1785103858455.6128
-0.862,-0.199,-0.421,2.5,0.82,-0.24,1785103858466.067
-0.863,-0.2,-0.421,2.44,1.16,0.09,1785103858476.415
-0.863,-0.197,-0.418,2.29,1.4,0.82,1785103858489.959
-0.862,-0.197,-0.416,2.26,1.56,1.43,1785103858495.012
-0.864,-0.198,-0.415,2.17,1.77,1.83,1785103858505.305
-0.87,-0.199,-0.411,2.32,2.01,2.17,1785103858515.684
-0.874,-0.203,-0.413,2.32,1.95,2.41,1785103858526.1062
-0.874,-0.204,-0.412,1.98,2.08,2.47,1785103858536.4512
-0.872,-0.203,-0.415,1.71,2.38,2.59,1785103858549.685
-0.872,-0.204,-0.412,1.62,2.72,2.5,1785103858555.394
-0.874,-0.208,-0.402,1.86,2.9,2.29,1785103858565.3608
-0.878,-0.208,-0.398,2.38,2.75,1.8,1785103858575.799
-0.879,-0.207,-0.397,2.96,2.66,1.34,1785103858586.116
-0.883,-0.202,-0.396,3.2,2.5,0.79,1785103858599.409
-0.881,-0.198,-0.398,3.11,2.17,0.18,1785103858605.1309
-0.882,-0.199,-0.401,2.69,2.01,-0.49,1785103858615.108
-0.88,-0.2,-0.404,2.04,1.77,-0.95,1785103858625.6167
-0.878,-0.2,-0.402,1.16,1.62,-1.4,1785103858635.863
-0.876,-0.201,-0.401,0.12,1.56,-1.43,1785103858646.2432
-0.876,-0.2,-0.401,-0.55,1.37,-1.68,1785103858659.4739
-0.877,-0.196,-0.395,-0.58,1.4,-2.01,1785103858665.143
-0.877,-0.194,-0.395,-0.27,1.34,-2.29,1785103858675.1868
-0.876,-0.193,-0.397,0.18,1.28,-2.56,1785103858685.411
-0.876,-0.196,-0.398,1.01,1.19,-2.78,1785103858695.901
-0.873,-0.194,-0.394,2.04,1.1,-2.84,1785103858706.2668
-0.87,-0.193,-0.394,3.14,0.98,-2.93,1785103858719.538
-0.865,-0.189,-0.394,3.81,0.82,-2.87,1785103858725.209
-0.866,-0.183,-0.397,3.85,0.79,-2.78,1785103858735.1921
-0.868,-0.182,-0.395,3.45,0.92,-2.75,1785103858745.584
-0.866,-0.181,-0.393,3.2,0.7,-2.69,1785103858756.002
-0.868,-0.178,-0.396,3.3,0.43,-2.44,1785103858766.339
-0.868,-0.174,-0.399,2.99,0.34,-2.08,1785103858779.592
-0.867,-0.176,-0.4,2.01,0.24,-1.71,1785103858785.229
-0.868,-0.178,-0.397,1.43,0.09,-1.34,1785103858795.29
-0.871,-0.178,-0.398,1.04,-0.06,-0.82,1785103858805.702
-0.87,-0.18,-0.401,0.76,-0.27,-0.37,1785103858816.084
-0.868,-0.18,-0.401,0.73,-0.37,0.15,1785103858826.424
-0.868,-0.177,-0.402,0.73,-0.43,0.58,1785103858839.681
-0.865,-0.177,-0.4,0.82,-0.49,0.89,1785103858845.3062
-0.868,-0.178,-0.401,1.13,-0.49,1.25,1785103858855.301
-0.871,-0.179,-0.403,1.53,-0.61,1.68,1785103858865.736
-0.872,-0.18,-0.407,1.98,-0.67,1.92,1785103858876.1458
-0.874,-0.18,-0.409,2.29,-0.7,2.14,1785103858886.465
-0.875,-0.181,-0.409,2.41,-0.64,2.5,1785103858899.837
-0.875,-0.183,-0.412,2.41,-0.73,2.66,1785103858905.3818
-0.875,-0.184,-0.415,2.2,-0.82,2.99,1785103858915.405
-0.872,-0.185,-0.415,2.04,-0.73,3.36,1785103858925.85
-0.871,-0.183,-0.416,2.11,-0.79,3.51,1785103858936.164
-0.869,-0.183,-0.417,2.14,-0.82,3.6,1785103858949.437
-0.867,-0.184,-0.415,2.23,-0.76,3.57,1785103858955.12
-0.868,-0.187,-0.414,2.38,-0.64,3.57,1785103858965.131
-0.866,-0.189,-0.415,2.47,-0.49,3.69,1785103858975.538
-0.865,-0.187,-0.417,2.78,-0.43,3.88,1785103858985.897
-0.865,-0.188,-0.418,3.14,-0.34,4.09,1785103858996.272
-0.866,-0.189,-0.417,3.36,-0.06,4.3,1785103859009.708
-0.867,-0.19,-0.418,3.6,0.21,4.49,1785103859015.125
-0.867,-0.19,-0.415,4.03,0.24,4.91,1785103859025.168
-0.868,-0.193,-0.413,4.46,0.31,5.16,1785103859035.551
-0.868,-0.191,-0.408,4.79,0.24,5.46,1785103859045.855
-0.867,-0.189,-0.409,5.13,0.27,5.92,1785103859056.4812
-0.866,-0.189,-0.411,4.94,0.37,5.98,1785103859069.518
-0.869,-0.193,-0.409,4.46,0.64,5.86,1785103859075.288
-0.871,-0.196,-0.409,4.21,0.89,5.71,1785103859085.213
-0.873,-0.199,-0.409,4.46,0.92,5.58,1785103859095.635
-0.877,-0.198,-0.406,5.07,0.92,5.62,1785103859106.225
-0.877,-0.198,-0.403,5.49,0.58,5.65,1785103859116.394
-0.875,-0.196,-0.404,5.43,0.43,5.43,1785103859129.84
-0.875,-0.196,-0.405,4.79,0.52,5.31,1785103859135.31
-0.871,-0.199,-0.401,4.27,0.49,5.25,1785103859145.4248
-0.87,-0.197,-0.401,4.09,0.43,5.01,1785103859155.724
-0.87,-0.197,-0.4,4.15,0.34,4.67,1785103859166.048
-0.872,-0.195,-0.397,4.03,0.12,4.39,1785103859176.5398
-0.876,-0.195,-0.397,3.66,0.0,4.3,1785103859189.6528
-0.88,-0.196,-0.401,3.42,0.06,4.09,1785103859194.8809
-0.882,-0.197,-0.398,3.48,-0.12,4.09,1785103859205.374
-0.88,-0.195,-0.399,3.6,-0.43,4.09,1785103859215.7449
-0.876,-0.194,-0.401,3.66,-0.73,4.12,1785103859226.198
-0.873,-0.193,-0.402,3.36,-0.95,4.15,1785103859239.49
-0.871,-0.193,-0.401,2.72,-0.98,4.18,1785103859245.034
-0.869,-0.193,-0.4,2.01,-1.19,4.0,1785103859255.094
-0.87,-0.194,-0.399,1.86,-1.19,3.69,1785103859265.461
-0.871,-0.194,-0.399,1.89,-1.1,3.45,1785103859275.866
-0.872,-0.192,-0.4,2.2,-1.13,3.3,1785103859286.191
-0.872,-0.19,-0.399,2.53,-1.19,3.02,1785103859299.4712
-0.872,-0.19,-0.4,2.84,-1.25,2.81,1785103859305.114
-0.873,-0.188,-0.401,2.69,-1.31,2.69,1785103859315.166
-0.875,-0.186,-0.404,2.56,-1.22,2.53,1785103859325.5369
-0.875,-0.188,-0.406,2.62,-1.28,2.41,1785103859335.9028
-0.874,-0.185,-0.406,2.9,-1.31,2.44,1785103859346.2961
-0.872,-0.184,-0.407,3.3,-1.43,2.44,1785103859359.584
-0.869,-0.183,-0.408,3.27,-1.53,2.41,1785103859365.1572
-0.869,-0.182,-0.408,3.02,-1.37,2.32,1785103859375.227
-0.871,-0.181,-0.408,2.87,-1.43,2.29,1785103859385.569
-0.87,-0.182,-0.407,2.84,-1.25,2.14,1785103859396.029
-0.869,-0.185,-0.407,2.9,-1.16,1.92,1785103859406.4797
-0.872,-0.185,-0.408,3.3,-1.25,1.83,1785103859419.56
-0.866,-0.182,-0.409,3.42,-1.4,2.11,1785103859425.437
-0.864,-0.18,-0.41,3.63,-1.19,2.35,1785103859435.29
-0.863,-0.18,-0.412,3.81,-1.13,2.41,1785103859445.702
-0.863,-0.181,-0.41,3.91,-1.13,2.62,1785103859456.241
-0.863,-0.181,-0.408,3.78,-1.13,2.78,1785103859466.399
-0.862,-0.179,-0.407,3.78,-1.04,3.02,1785103859479.6592
-0.864,-0.181,-0.41,3.85,-0.98,3.23,1785103859485.2842
-0.867,-0.181,-0.412,3.75,-0.85,3.45,1785103859495.346
-0.87,-0.183,-0.41,3.45,-0.82,3.69,1785103859505.77
-0.873,-0.189,-0.408,3.2,-0.7,3.97,1785103859516.116
-0.875,-0.19,-0.407,3.33,-0.67,4.27,1785103859526.551
-0.876,-0.19,-0.404,3.75,-0.67,4.64,1785103859540.0269
-0.876,-0.19,-0.404,4.12,-0.73,4.79,1785103859545.404
-0.877,-0.192,-0.405,4.12,-0.58,4.76,1785103859555.4558
-0.876,-0.195,-0.401,3.97,-0.61,4.61,1785103859565.8062
-0.877,-0.197,-0.4,4.0,-0.64,4.43,1785103859576.226
-0.876,-0.196,-0.402,4.12,-0.79,4.0,1785103859589.582
-0.875,-0.196,-0.4,3.78,-0.79,3.51,1785103859595.287
-0.877,-0.196,-0.4,3.36,-0.85,3.11,1785103859605.0989
-0.879,-0.198,-0.395,3.14,-0.92,2.66,1785103859615.5
-0.876,-0.199,-0.394,2.81,-0.92,2.17,1785103859625.839
-0.876,-0.198,-0.391,2.72,-1.04,1.77,1785103859636.6248
-0.876,-0.2,-0.391,2.78,-1.07,1.53,1785103859649.399
-0.869,-0.201,-0.391,2.87,-1.13,1.13,1785103859654.9858
-0.866,-0.199,-0.39,3.3,-1.22,0.79,1785103859665.108
-0.866,-0.199,-0.39,3.54,-1.31,0.49,1785103859675.447
-0.87,-0.196,-0.388,3.42,-1.22,0.24,1785103859685.807
-0.874,-0.197,-0.387,3.36,-1.25,0.09,1785103859696.205
-0.878,-0.195,-0.386,3.27,-1.4,-0.09,1785103859709.437
-0.881,-0.193,-0.388,3.02,-1.5,-0.09,1785103859715.0237
-0.88,-0.193,-0.391,3.02,-1.5,-0.09,1785103859725.3381
-0.878,-0.193,-0.391,2.93,-1.5,-0.12,1785103859735.631
-0.877,-0.198,-0.39,3.08,-1.43,-0.18,1785103859746.01
-0.878,-0.198,-0.391,3.3,-1.5,-0.4,1785103859756.432
-0.875,-0.198,-0.391,3.6,-1.74,-0.31,1785103859769.829
-0.873,-0.195,-0.39,3.88,-1.77,-0.43,1785103859775.29
-0.873,-0.192,-0.393,4.09,-1.71,-0.82,1785103859785.31
-0.871,-0.191,-0.397,4.33,-1.74,-1.19,1785103859795.7407
-0.868,-0.19,-0.398,4.49,-1.65,-1.68,1785103859806.0579
-0.873,-0.188,-0.398,4.94,-1.53,-1.98,1785103859816.4448
-0.887,-0.186,-0.401,5.92,-1.43,-2.08,1785103859829.7422
-0.893,-0.184,-0.404,7.32,-1.31,-2.2,1785103859835.359
-0.895,-0.183,-0.404,9.09,-1.19,-2.17,1785103859845.4138
-0.899,-0.178,-0.413,11.35,-1.5,-2.14,1785103859855.936
-0.893,-0.172,-0.423,13.31,-1.31,-1.68,1785103859866.362
-0.875,-0.172,-0.437,15.5,-0.55,-1.13,1785103859879.6658
-0.865,-0.173,-0.452,19.41,0.76,-0.67,1785103859885.3838
-0.864,-0.151,-0.455,25.7,2.01,0.67,1785103859895.3481
-0.859,-0.128,-0.442,35.13,3.02,4.06,1785103859906.029
-0.85,-0.112,-0.461,45.53,3.85,8.64,1785103859916.393
-0.853,-0.078,-0.504,55.24,4.82,14.01,1785103859929.8857
-0.858,-0.045,-0.536,64.79,6.99,20.87,1785103859935.623
-0.847,-0.034,-0.571,74.59,10.04,28.11,1785103859946.029
-0.829,-0.031,-0.601,84.23,13.52,34.82,1785103859959.3179
-0.812,-0.034,-0.617,93.63,17.64,41.2,1785103859965.193
-0.806,-0.036,-0.626,103.31,22.71,47.33,1785103859975.835
-0.805,-0.039,-0.633,114.26,27.34,53.35,1785103859986.5432
-0.817,-0.03,-0.668,124.61,31.65,58.9,1785103859999.806
-0.83,-0.014,-0.695,132.91,37.08,64.06,1785103860005.597
-0.839,-0.048,-0.714,140.51,42.09,67.02,1785103860016.4922
-0.846,-0.088,-0.743,148.41,46.33,68.39,1785103860029.846
-0.856,-0.13,-0.791,159.06,49.87,70.47,1785103860035.694
-0.874,-0.158,-0.846,169.84,53.68,71.57,1785103860046.503
-0.899,-0.167,-0.875,177.56,58.9,71.63,1785103860059.846
-0.918,-0.189,-0.875,182.32,64.91,70.59,1785103860065.661
-0.928,-0.215,-0.884,185.46,70.96,68.76,1785103860076.537
-0.974,-0.26,-0.838,191.66,77.76,68.85,1785103860089.991
-1.004,-0.343,-0.79,204.87,82.4,69.25,1785103860095.723
-1.0,-0.427,-0.76,224.86,84.41,69.77,1785103860106.58
-1.007,-0.473,-0.796,247.81,84.69,70.01,1785103860119.705
-1.014,-0.46,-0.869,269.51,86.49,67.23,1785103860125.8008
-1.02,-0.418,-0.902,284.71,88.99,59.88,1785103860136.406
-1.026,-0.407,-0.899,289.56,91.71,49.04,1785103860149.672
-1.047,-0.415,-0.896,284.98,95.65,37.75,1785103860155.7861
-1.055,-0.436,-0.891,276.53,100.8,28.05,1785103860166.494
-1.067,-0.469,-0.83,269.3,104.71,19.44,1785103860179.719
-1.069,-0.513,-0.78,264.14,105.99,10.07,1785103860185.618
-1.053,-0.523,-0.808,262.34,106.75,-0.06,1785103860199.125
-1.056,-0.49,-0.74,263.28,108.22,-8.76,1785103860205.062
-1.058,-0.504,-0.65,266.21,107.3,-17.21,1785103860215.911
-1.048,-0.53,-0.615,269.48,105.14,-27.19,1785103860229.1729
-1.027,-0.553,-0.624,270.67,102.6,-37.11,1785103860235.1328
-1.008,-0.549,-0.645,267.34,100.83,-46.36,1785103860246.1372
-0.996,-0.529,-0.636,261.48,100.01,-55.91,1785103860259.447
-1.034,-0.533,-0.606,252.42,99.09,-66.74,1785103860265.313
-1.079,-0.569,-0.56,239.48,97.26,-77.18,1785103860276.195
-1.064,-0.611,-0.543,226.17,95.1,-84.29,1785103860289.729
-1.044,-0.651,-0.502,211.77,93.3,-89.91,1785103860295.391
-1.015,-0.66,-0.487,189.12,90.4,-98.03,1785103860306.287
-0.998,-0.628,-0.485,156.59,90.76,-109.26,1785103860319.3972
-0.966,-0.655,-0.447,118.87,92.2,-121.95,1785103860325.4558
-0.966,-0.726,-0.44,86.83,92.9,-135.14,1785103860336.252
-0.941,-0.768,-0.398,62.07,92.47,-143.8,1785103860349.511
-0.882,-0.83,-0.317,50.02,90.76,-149.11,1785103860355.4631
-0.85,-0.893,-0.227,50.2,87.62,-153.84,1785103860366.2368
-0.822,-0.979,-0.127,60.24,81.97,-154.85,1785103860379.484
-0.797,-0.975,-0.219,71.29,74.37,-156.93,1785103860385.417
-0.781,-0.937,-0.198,67.81,74.98,-152.75,1785103860396.248
-0.718,-1.008,-0.17,71.78,72.27,-149.05,1785103860409.665
-0.692,-1.006,-0.161,75.08,69.46,-148.99,1785103860415.441
-0.665,-1.0,-0.126,75.59,67.57,-145.6,1785103860426.2012
-0.598,-1.028,-0.104,78.31,63.75,-140.66,1785103860439.541
-0.531,-1.047,-0.125,81.67,59.18,-134.98,1785103860445.39
-0.491,-1.05,-0.181,83.74,54.93,-129.64,1785103860456.276
-0.467,-1.048,-0.22,84.57,52.46,-124.33,1785103860469.352
-0.448,-1.076,-0.202,83.56,51.15,-118.38,1785103860475.431
-0.435,-1.126,-0.157,82.67,49.56,-111.76,1785103860486.1318
-0.423,-1.148,-0.155,81.85,47.06,-103.95,1785103860499.421
-0.418,-1.127,-0.199,79.99,43.7,-95.49,1785103860505.4631
-0.421,-1.088,-0.234,76.75,41.63,-87.68,1785103860515.882
-0.426,-1.107,-0.246,77.09,40.74,-82.46,1785103860526.5867
-0.473,-1.151,-0.224,78.19,38.33,-81.42,1785103860539.958
-0.524,-1.19,-0.197,76.05,35.46,-84.35,1785103860545.708
-0.534,-1.221,-0.162,73.89,32.17,-89.02,1785103860556.4512
-0.506,-1.239,-0.151,73.49,27.47,-94.36,1785103860569.449
-0.485,-1.229,-0.133,71.35,23.87,-101.6,1785103860575.53
-0.48,-1.225,-0.106,65.86,20.78,-109.59,1785103860586.116
-0.481,-1.235,-0.079,55.73,18.83,-118.96,1785103860599.393
-0.47,-1.255,-0.048,46.72,16.54,-127.08,1785103860605.323
-0.478,-1.251,-0.038,43.55,13.15,-135.75,1785103860616.0698
-0.486,-1.219,-0.029,44.5,9.49,-145.09,1785103860629.307
-0.455,-1.174,0.007,48.68,5.4,-152.96,1785103860635.2708
-0.415,-1.134,0.047,55.67,0.55,-159.31,1785103860645.8098
-0.396,-1.126,0.068,64.85,-4.33,-165.01,1785103860656.5208
-0.38,-1.117,0.108,76.45,-9.09,-169.65,1785103860669.625
-0.355,-1.098,0.126,92.68,-15.17,-172.12,1785103860675.5898
-0.329,-1.072,0.121,112.37,-22.16,-172.73,1785103860686.383
-0.284,-1.033,0.124,132.36,-29.36,-172.06,1785103860699.6912
-0.224,-0.97,0.107,145.36,-36.07,-169.99,1785103860705.5947
-0.183,-0.881,0.067,145.15,-40.59,-168.43,1785103860719.048
-0.149,-0.838,0.031,130.8,-42.63,-166.97,1785103860725.006
-0.105,-0.833,0.043,108.25,-42.39,-166.75,1785103860736.0598
-0.051,-0.857,0.098,87.89,-42.36,-165.62,1785103860749.315
-0.003,-0.893,0.177,77.67,-43.73,-164.19,1785103860755.2449
0.015,-0.921,0.24,77.85,-48.04,-162.39,1785103860766.023
0.007,-0.926,0.273,84.51,-54.14,-159.28,1785103860779.277
-0.008,-0.924,0.29,95.52,-60.43,-154.61,1785103860786.159
0.004,-0.923,0.29,109.62,-66.16,-150.12,1785103860796.211
0.018,-0.902,0.292,124.39,-72.21,-147.31,1785103860809.5857
0.051,-0.877,0.301,138.0,-78.62,-144.26,1785103860815.3237
0.079,-0.842,0.298,149.69,-83.96,-141.39,1785103860826.2798
0.1,-0.8,0.297,157.48,-88.81,-138.83,1785103860839.595
0.125,-0.76,0.312,160.8,-92.41,-137.24,1785103860845.5142
0.143,-0.734,0.338,159.37,-96.1,-135.35,1785103860856.5361
0.163,-0.702,0.349,154.67,-99.43,-132.27,1785103860869.814
0.206,-0.685,0.324,152.32,-104.71,-127.05,1785103860875.878
0.215,-0.636,0.28,147.8,-107.76,-125.03,1785103860889.3782
0.207,-0.589,0.248,136.75,-109.1,-122.59,1785103860895.2341
0.219,-0.574,0.251,123.54,-111.82,-118.99,1785103860906.636
0.231,-0.55,0.283,112.8,-113.38,-117.74,1785103860919.762
0.23,-0.541,0.312,107.3,-115.79,-116.67,1785103860925.903
0.225,-0.542,0.325,104.65,-120.09,-116.21,1785103860939.4172
0.225,-0.519,0.326,104.1,-124.73,-116.06,1785103860945.3188
0.235,-0.475,0.33,104.77,-128.27,-116.21,1785103860956.758
0.235,-0.475,0.33,107.49,-132.51,-115.85,1785103860969.943
0.257,-0.476,0.343,111.42,-137.3,-114.81,1785103860975.879
0.25,-0.488,0.361,118.14,-143.47,-112.58,1785103860989.6882
0.239,-0.482,0.365,127.45,-150.91,-110.29,1785103860995.436
0.242,-0.465,0.327,134.07,-158.45,-108.49,1785103861009.244
0.234,-0.444,0.256,134.07,-158.45,-108.49,1785103861014.967
0.222,-0.413,0.19,137.88,-164.8,-108.1,1785103861026.249
0.213,-0.349,0.142,141.0,-170.54,-107.15,1785103861039.561
0.221,-0.277,0.07,144.44,-177.16,-104.59,1785103861045.5671
0.272,-0.19,-0.005,145.18,-183.05,-101.44,1785103861059.1328
0.365,-0.102,-0.062,140.66,-186.44,-98.24,1785103861066.0469
0.41,-0.062,-0.114,129.0,-187.02,-95.19,1785103861076.271
0.451,-0.019,-0.141,112.98,-183.42,-90.12,1785103861089.4622
0.476,-0.002,-0.157,100.62,-177.1,-82.89,1785103861095.318
0.513,0.037,-0.141,90.58,-171.85,-73.85,1785103861106.407
0.552,0.045,-0.154,84.75,-167.09,-64.61,1785103861119.4702
0.555,0.028,-0.173,80.2,-161.78,-57.13,1785103861125.479
0.548,0.011,-0.184,76.51,-155.8,-51.03,1785103861136.207
0.538,-0.032,-0.177,78.34,-150.46,-44.77,1785103861149.4531
0.513,-0.082,-0.185,86.58,-147.22,-40.62,1785103861155.389
0.499,-0.116,-0.183,97.93,-146.52,-37.32,1785103861166.1538
0.514,-0.084,-0.17,110.17,-145.51,-34.76,1785103861179.432
0.542,-0.062,-0.222,119.57,-145.33,-30.34,1785103861185.3499
0.581,-0.059,-0.233,121.77,-142.95,-27.25,1785103861196.522
0.569,-0.066,-0.208,118.29,-139.16,-24.69,1785103861209.884
0.543,-0.1,-0.199,116.37,-137.24,-20.78,1785103861215.363
0.536,-0.16,-0.193,121.98,-137.39,-18.07,1785103861229.002
0.548,-0.205,-0.231,132.18,-139.1,-15.93,1785103861235.0312
0.552,-0.204,-0.238,141.58,-140.69,-13.43,1785103861246.094
0.525,-0.188,-0.246,148.32,-142.09,-10.83,1785103861259.41
0.49,-0.2,-0.272,151.74,-143.1,-9.34,1785103861265.2312
0.444,-0.24,-0.251,154.15,-142.7,-9.8,1785103861276.169
0.391,-0.292,-0.223,159.86,-142.98,-10.04,1785103861289.8372
0.366,-0.33,-0.171,171.58,-144.11,-8.42,1785103861295.447
0.365,-0.352,-0.155,187.96,-146.98,-4.82,1785103861306.303
0.361,-0.342,-0.188,201.27,-151.28,-0.31,1785103861319.391
0.366,-0.334,-0.268,206.46,-153.97,4.36,1785103861325.422
0.385,-0.302,-0.294,201.39,-154.21,9.4,1785103861336.094
0.401,-0.282,-0.287,189.09,-153.57,16.36,1785103861349.374
0.408,-0.288,-0.327,172.06,-152.78,23.29,1785103861355.315
0.41,-0.318,-0.378,152.01,-149.88,28.44,1785103861366.387
0.386,-0.35,-0.418,129.58,-144.54,32.11,1785103861379.6392
0.352,-0.361,-0.387,106.08,-137.64,35.22,1785103861385.53
0.327,-0.367,-0.342,84.84,-131.81,37.9,1785103861396.559
0.296,-0.397,-0.298,67.05,-128.67,40.47,1785103861409.9321
0.279,-0.47,-0.294,56.06,-128.33,41.9,1785103861415.649
0.243,-0.553,-0.256,54.93,-129.64,42.48,1785103861426.462
0.165,-0.63,-0.227,64.27,-132.3,44.25,1785103861439.9
0.112,-0.711,-0.302,81.48,-136.85,46.63,1785103861445.662
0.099,-0.753,-0.408,98.45,-141.48,48.28,1785103861456.5261
0.082,-0.737,-0.488,108.92,-143.13,51.0,1785103861469.6401
0.066,-0.704,-0.497,111.21,-141.18,55.09,1785103861475.749
0.067,-0.716,-0.466,107.7,-139.07,58.53,1785103861489.31
0.066,-0.795,-0.43,105.41,-138.16,59.69,1785103861495.05
0.054,-0.894,-0.427,110.57,-138.92,60.12,1785103861506.2458
0.018,-0.953,-0.462,124.73,-140.29,61.95,1785103861519.298
-0.043,-0.949,-0.498,139.68,-142.22,65.65,1785103861525.3708
-0.082,-0.937,-0.561,148.96,-141.42,69.49,1785103861536.253
-0.073,-0.928,-0.644,152.41,-139.19,71.41,1785103861549.5579
-0.022,-0.862,-0.693,150.52,-136.23,74.22,1785103861555.4602
0.051,-0.815,-0.75,145.79,-132.05,79.29,1785103861566.5337
0.088,-0.785,-0.782,131.75,-125.71,84.51,1785103861579.783
0.116,-0.755,-0.791,110.05,-118.11,92.5,1785103861585.7083
0.145,-0.734,-0.813,89.42,-110.63,102.45,1785103861599.166
0.113,-0.706,-0.797,70.35,-103.21,112.58,1785103861605.0999
0.033,-0.7,-0.765,53.83,-98.36,123.17,1785103861615.999
0.006,-0.747,-0.792,45.96,-96.07,134.83,1785103861629.265
-0.006,-0.796,-0.811,45.53,-93.81,145.73,1785103861635.21
-0.058,-0.817,-0.808,46.39,-91.07,156.99,1785103861645.977
-0.147,-0.835,-0.777,44.86,-86.92,168.71,1785103861659.242
-0.239,-0.878,-0.774,36.99,-82.06,177.68,1785103861665.417
-0.312,-0.918,-0.775,21.61,-75.47,181.31,1785103861675.979
-0.357,-0.962,-0.773,3.66,-68.61,181.04,1785103861689.8801
-0.363,-1.048,-0.811,-6.38,-61.25,177.37,1785103861695.1968
-0.336,-1.082,-0.728,-2.44,-54.41,173.92,1785103861705.641
-0.307,-1.092,-0.58,19.38,-51.48,173.13,1785103861716.4229
-0.319,-1.082,-0.533,47.94,-50.33,172.7,1785103861729.76
-0.329,-1.023,-0.595,70.35,-48.98,174.05,1785103861735.574
-0.316,-0.943,-0.632,81.79,-45.11,176.37,1785103861746.3748
-0.33,-0.917,-0.599,81.85,-39.7,177.65,1785103861759.653
-0.4,-0.958,-0.552,74.04,-34.36,176.89,1785103861765.534
-0.459,-0.996,-0.535,64.73,-30.43,176.12,1785103861776.317
-0.452,-0.995,-0.521,61.28,-28.63,175.91,1785103861789.6152
-0.425,-0.975,-0.546,60.4,-28.26,175.45,1785103861795.5132
-0.426,-0.933,-0.598,53.68,-25.88,176.43,1785103861806.35
-0.478,-0.889,-0.597,39.77,-21.09,176.82,1785103861819.5269
-0.556,-0.913,-0.584,21.61,-16.57,175.51,1785103861825.5251
-0.596,-1.006,-0.535,6.23,-12.33,174.93,1785103861836.185
-0.616,-1.09,-0.432,1.46,-10.16,174.47,1785103861849.637
-0.624,-1.117,-0.396,10.32,-9.64,174.54,1785103861855.352
-0.661,-1.123,-0.393,27.22,-9.98,175.18,1785103861865.8591
-0.735,-1.095,-0.39,42.36,-10.13,173.28,1785103861879.159
-0.794,-1.068,-0.424,51.76,-8.94,171.7,1785103861885.064
-0.799,-1.006,-0.475,56.09,-7.32,170.29,1785103861895.5112
-0.791,-0.906,-0.468,58.29,-5.77,166.3,1785103861906.412
-0.815,-0.855,-0.441,58.9,-6.23,164.49,1785103861919.352
-0.881,-0.847,-0.451,57.68,-8.24,165.01,1785103861925.165
-0.903,-0.845,-0.5,56.34,-8.48,165.2,1785103861936.0269
-0.913,-0.882,-0.558,51.82,-4.7,168.13,1785103861949.099
-0.963,-0.904,-0.573,39.22,2.75,172.03,1785103861954.7678
-1.0,-0.914,-0.543,24.93,10.16,173.68,1785103861965.582
-0.996,-0.904,-0.434,16.94,15.63,169.56,1785103861976.6453
-1.008,-0.885,-0.3,20.05,17.24,163.85,1785103861989.9102
-1.034,-0.877,-0.255,32.9,15.81,160.04,1785103861995.48
-1.051,-0.857,-0.327,47.4,14.28,156.13,1785103862006.697
-1.07,-0.814,-0.437,51.52,16.88,155.31,1785103862019.8027
-1.104,-0.785,-0.526,43.76,24.63,159.31,1785103862025.8271
-1.093,-0.766,-0.521,32.44,33.88,163.46,1785103862036.4878
-1.038,-0.733,-0.443,26.12,40.38,161.78,1785103862049.716
-1.017,-0.77,-0.339,31.86,43.52,160.89,1785103862055.6648
-0.992,-0.758,-0.294,53.62,43.21,153.94,1785103862066.4229
-1.017,-0.674,-0.237,71.35,40.22,148.69,1785103862079.672
-1.087,-0.653,-0.288,89.85,39.31,149.21,1785103862085.622
-1.107,-0.617,-0.363,98.3,40.22,157.54,1785103862096.416
-1.061,-0.562,-0.4,95.95,45.47,165.84,1785103862109.668
-1.056,-0.564,-0.423,88.93,52.1,170.35,1785103862115.6091
-1.046,-0.546,-0.386,77.85,55.97,168.65,1785103862126.385
-1.05,-0.528,-0.369,68.03,57.89,162.14,1785103862139.7231
-1.053,-0.576,-0.363,61.13,61.04,153.69,1785103862145.581
-1.047,-0.626,-0.27,55.54,59.88,144.41,1785103862156.555
-1.023,-0.648,-0.21,62.53,56.18,136.3,1785103862169.718
-1.027,-0.593,-0.276,78.07,52.37,128.73,1785103862175.657
-1.019,-0.493,-0.332,85.76,51.18,125.28,1785103862186.2778
-1.025,-0.449,-0.338,90.7,51.88,121.46,1785103862199.554
-1.049,-0.386,-0.317,91.71,50.78,115.54,1785103862205.529
-1.054,-0.364,-0.303,89.6,50.75,113.41,1785103862216.2559
-1.058,-0.357,-0.291,85.88,52.25,112.61,1785103862229.5461
-1.072,-0.334,-0.268,81.36,53.35,111.7,1785103862235.483
-1.077,-0.364,-0.242,77.7,54.35,110.84,1785103862246.1172
-1.077,-0.364,-0.242,75.08,55.09,107.88,1785103862259.9749
-1.091,-0.389,-0.223,74.04,55.33,105.5,1785103862265.462
-1.102,-0.397,-0.218,75.08,54.35,103.12,1785103862276.2183
-1.096,-0.412,-0.21,75.9,53.1,99.25,1785103862289.788
-1.067,-0.429,-0.222,75.9,53.1,99.25,1785103862295.403
-1.034,-0.418,-0.252,76.72,53.5,95.03,1785103862306.0469
-1.026,-0.406,-0.26,78.28,55.06,90.76,1785103862316.591
-1.037,-0.427,-0.236,80.9,56.43,86.92,1785103862329.7898
-1.05,-0.449,-0.207,86.21,56.86,84.35,1785103862335.672
-1.063,-0.456,-0.195,93.84,56.06,83.86,1785103862346.2798
-1.065,-0.46,-0.198,102.82,55.24,83.74,1785103862359.626
-1.051,-0.468,-0.201,112.03,54.87,82.8,1785103862365.4558
-1.025,-0.469,-0.196,120.58,54.54,82.0,1785103862376.2932
-0.991,-0.464,-0.167,128.45,54.23,80.66,1785103862389.591
-0.96,-0.498,-0.147,137.06,54.08,76.88,1785103862395.117
-0.932,-0.564,-0.148,147.28,55.15,70.1,1785103862406.396
-0.921,-0.625,-0.134,160.53,55.45,62.32,1785103862419.421
-0.941,-0.648,-0.113,177.16,53.16,55.54,1785103862425.483
-0.948,-0.622,-0.123,195.2,48.86,49.78,1785103862436.126
-0.934,-0.566,-0.166,210.79,43.95,44.62,1785103862449.5908
-0.922,-0.509,-0.21,218.63,39.77,39.22,1785103862455.3171
-0.908,-0.459,-0.25,216.53,36.59,34.39,1785103862466.1309
-0.89,-0.407,-0.284,206.0,34.79,30.64,1785103862479.351
-0.864,-0.345,-0.298,188.45,34.27,27.41,1785103862485.2979
-0.85,-0.283,-0.3,165.07,34.06,24.17,1785103862496.122
-0.851,-0.24,-0.293,136.72,33.51,20.84,1785103862509.3901
-0.849,-0.232,-0.286,105.23,32.99,17.18,1785103862515.305
-0.846,-0.247,-0.285,73.89,32.96,13.92,1785103862525.985
-0.844,-0.278,-0.277,46.54,32.65,11.96,1785103862536.679
-0.856,-0.31,-0.267,24.84,31.43,10.56,1785103862549.867
-0.866,-0.314,-0.249,8.03,28.96,9.95,1785103862555.9138
