ax,ay,az,gx,gy,gz,timestamp_ms
0.033,-0.88,-0.385,-4.49,-3.54,-2.59,1785101135257.681
0.031,-0.879,-0.378,-4.58,-3.85,-1.83,1785101135257.971
0.034,-0.888,-0.376,-2.53,-4.46,-1.13,1785101135258.2322
0.034,-0.894,-0.382,-0.85,-5.37,-1.31,1785101135258.5
0.034,-0.897,-0.386,-0.67,-6.13,-1.28,1785101135258.7468
0.034,-0.892,-0.391,0.06,-6.35,-0.06,1785101135259.011
0.037,-0.886,-0.398,1.56,-6.01,1.65,1785101135259.265
0.044,-0.883,-0.408,2.35,-5.58,2.62,1785101135259.511
0.047,-0.897,-0.412,1.4,-5.31,2.41,1785101135259.7593
0.042,-0.905,-0.405,-1.46,-5.25,1.95,1785101135260.0168
0.037,-0.904,-0.393,-4.58,-5.07,2.9,1785101135260.25
0.041,-0.906,-0.385,-5.77,-5.04,4.0,1785101135260.49
0.036,-0.912,-0.39,-3.94,-4.85,4.24,1785101135260.738
0.034,-0.914,-0.404,-1.1,-4.33,4.49,1785101135261.001
0.036,-0.905,-0.409,0.55,-3.69,4.94,1785101135261.2412
0.039,-0.902,-0.412,0.82,-2.87,5.68,1785101135261.479
0.038,-0.898,-0.415,0.06,-1.65,6.07,1785101135261.7239
0.046,-0.909,-0.418,-1.98,-0.06,5.83,1785101135261.944
0.043,-0.908,-0.411,-4.88,0.95,4.76,1785101135262.1729
0.027,-0.876,-0.402,-5.52,1.83,5.58,1785101135262.4
0.03,-0.883,-0.396,-1.89,2.78,7.75,1785101135262.6199
0.028,-0.896,-0.389,1.8,3.08,7.2,1785101135262.846
0.029,-0.898,-0.388,5.58,2.53,7.08,1785101135263.0742
0.042,-0.931,-0.4,10.77,2.23,7.48,1785101135263.308
0.05,-0.928,-0.42,13.37,1.04,6.99,1785101135263.529
0.062,-0.936,-0.416,14.5,0.46,8.27,1785101135263.756
0.069,-0.952,-0.412,14.95,0.46,8.7,1785101135263.988
0.068,-0.951,-0.426,13.49,0.15,7.93,1785101135264.212
0.061,-0.95,-0.443,9.7,0.18,7.35,1785101135264.441
0.064,-0.988,-0.435,7.75,1.16,6.53,1785101135264.679
0.039,-0.97,-0.414,1.37,0.43,3.6,1785101135264.899
0.046,-0.931,-0.401,-5.89,-0.7,6.23,1785101135265.123
0.059,-0.948,-0.396,-7.93,-0.03,8.61,1785101135265.354
0.056,-0.97,-0.389,-6.23,0.95,6.35,1785101135265.615
0.036,-0.94,-0.375,-5.58,0.67,3.63,1785101135265.852
0.059,-0.957,-0.34,-2.44,1.31,3.94,1785101135266.0771
0.053,-0.967,-0.389,2.66,0.7,0.64,1785101135266.346
0.038,-0.931,-0.404,10.93,1.71,2.72,1785101135266.57
0.072,-0.953,-0.391,20.29,3.02,7.75,1785101135266.7993
0.064,-0.995,-0.388,24.66,3.08,4.0,1785101135267.044
0.052,-0.989,-0.369,22.43,3.57,-0.21,1785101135267.2961
0.068,-0.998,-0.355,19.99,5.13,-0.4,1785101135267.54
0.08,-1.019,-0.381,21.88,7.63,-1.4,1785101135267.854
0.076,-1.018,-0.411,25.12,10.44,-2.96,1785101135268.099
0.073,-0.984,-0.42,23.87,11.6,-2.29,1785101135268.3257
0.08,-0.97,-0.419,19.2,11.02,-0.43,1785101135268.544
0.081,-0.952,-0.412,11.99,10.01,0.12,1785101135268.758
0.083,-0.942,-0.404,4.15,9.34,0.34,1785101135268.9568
0.077,-0.937,-0.394,-1.59,9.0,-0.21,1785101135269.165
0.075,-0.938,-0.376,-3.75,8.97,-0.37,1785101135269.378
0.069,-0.948,-0.359,-2.2,8.85,-0.61,1785101135269.5771
0.064,-0.967,-0.354,1.1,8.36,-0.58,1785101135269.7808
0.063,-0.983,-0.349,4.3,7.9,0.18,1785101135269.987
0.059,-0.991,-0.347,7.02,7.48,0.46,1785101135270.1912
0.051,-0.967,-0.356,7.08,6.81,0.67,1785101135270.387
0.049,-0.926,-0.357,3.72,5.68,2.29,1785101135270.593
0.052,-0.913,-0.351,-0.18,4.79,4.27,1785101135270.8062
0.051,-0.918,-0.342,-3.54,3.81,4.55,1785101135271.0027
0.053,-0.934,-0.337,-5.95,3.05,3.57,1785101135271.211
0.049,-0.968,-0.339,-6.99,2.38,1.46,1785101135271.414
0.039,-0.979,-0.338,-7.69,1.98,-0.89,1785101135271.616
0.036,-0.983,-0.337,-7.78,1.53,-1.92,1785101135271.821
0.032,-0.987,-0.333,-7.14,1.22,-2.47,1785101135272.0242
0.031,-0.987,-0.329,-5.77,0.95,-2.84,1785101135272.23
0.027,-0.985,-0.326,-3.78,0.89,-2.96,1785101135272.435
0.021,-0.988,-0.331,-2.75,0.43,-3.36,1785101135272.657
0.006,-0.949,-0.329,-4.67,-0.43,-3.75,1785101135272.865
0.008,-0.904,-0.325,-6.87,-1.1,-2.04,1785101135273.062
0.017,-0.895,-0.332,-6.56,-1.62,-0.7,1785101135273.27
0.021,-0.91,-0.338,-5.55,-1.83,-1.74,1785101135273.4822
0.015,-0.918,-0.343,-6.23,-1.95,-4.18,1785101135273.687
0.017,-0.921,-0.351,-7.02,-2.04,-6.26,1785101135273.8909
0.017,-0.927,-0.358,-7.11,-2.2,-7.75,1785101135274.1
0.017,-0.934,-0.365,-6.81,-2.26,-8.88,1785101135274.3171
0.011,-0.928,-0.369,-6.38,-2.44,-8.94,1785101135274.528
0.007,-0.904,-0.365,-5.98,-2.84,-7.72,1785101135274.7368
0.013,-0.908,-0.357,-3.6,-3.08,-6.47,1785101135274.944
0.013,-0.914,-0.359,-1.19,-3.23,-6.68,1785101135275.135
0.011,-0.931,-0.363,0.89,-3.54,-7.57,1785101135275.338
0.005,-0.927,-0.364,2.08,-3.75,-8.42,1785101135275.5388
0.012,-0.93,-0.37,4.49,-3.75,-7.93,1785101135275.731
0.015,-0.928,-0.388,6.16,-3.36,-7.72,1785101135275.929
0.018,-0.891,-0.4,5.52,-2.69,-6.84,1785101135276.131
0.034,-0.887,-0.412,6.01,-1.28,-5.34,1785101135276.32
0.037,-0.895,-0.432,5.8,-0.12,-6.07,1785101135276.5178
0.032,-0.87,-0.44,1.62,0.12,-6.87,1785101135276.716
0.045,-0.877,-0.429,-2.38,-0.4,-6.01,1785101135276.9102
0.05,-0.922,-0.408,-3.48,-0.67,-6.74,1785101135277.1
0.043,-0.922,-0.384,-4.52,-1.28,-7.75,1785101135277.3052
0.05,-0.923,-0.372,-3.51,-2.17,-6.47,1785101135277.502
0.055,-0.943,-0.369,-0.21,-2.04,-5.31,1785101135277.692
0.052,-0.927,-0.358,1.31,-1.56,-4.67,1785101135277.895
0.055,-0.893,-0.337,-0.31,-1.43,-3.05,1785101135278.096
0.074,-0.909,-0.321,-2.72,-2.32,-2.23,1785101135278.291
0.073,-0.922,-0.321,-4.82,-3.57,-3.88,1785101135278.487
0.074,-0.918,-0.322,-6.07,-4.58,-3.6,1785101135278.6902
0.087,-0.915,-0.322,-6.26,-5.13,-2.04,1785101135278.879
0.097,-0.905,-0.342,-5.28,-5.43,-0.85,1785101135279.0752
0.109,-0.905,-0.364,-3.02,-5.1,0.92,1785101135279.2817
0.107,-0.903,-0.392,-1.01,-4.58,2.14,1785101135279.5022
0.102,-0.905,-0.392,-2.99,-4.94,3.2,1785101135279.695
0.106,-0.908,-0.355,-9.06,-6.01,2.84,1785101135279.925
0.122,-0.935,-0.328,-9.03,-5.31,1.28,1785101135280.119
0.108,-0.952,-0.339,1.46,-2.66,1.22,1785101135280.3071
0.083,-0.898,-0.352,14.47,-1.46,6.93,1785101135280.5022
0.084,-0.818,-0.358,21.76,-2.41,16.21,1785101135280.7
0.129,-0.85,-0.343,22.31,-0.98,20.02,1785101135280.889
0.161,-0.973,-0.384,18.04,0.03,9.06,1785101135281.0813
0.121,-1.039,-0.414,11.6,2.93,-1.1,1785101135281.276
0.121,-1.039,-0.414,10.25,5.52,1.34,1785101135281.4631
0.085,-1.039,-0.397,11.57,5.83,6.2,1785101135281.6482
0.087,-1.005,-0.418,8.48,5.98,8.18,1785101135281.834
0.095,-0.966,-0.451,2.14,6.5,8.24,1785101135282.023
0.093,-0.96,-0.467,-4.12,6.99,7.81,1785101135282.203
0.085,-0.97,-0.46,-4.12,6.99,7.81,1785101135282.392
0.081,-0.976,-0.449,-6.35,7.69,7.51,1785101135282.576
0.081,-0.963,-0.428,-6.41,9.19,6.56,1785101135282.756
0.076,-0.959,-0.403,-6.38,9.77,4.79,1785101135282.946
0.062,-0.979,-0.381,-6.99,9.28,2.44,1785101135283.133
0.039,-0.993,-0.345,-7.9,8.21,0.98,1785101135283.316
0.03,-0.998,-0.321,-6.32,6.74,0.4,1785101135283.498
0.023,-0.983,-0.307,-3.33,5.25,-0.55,1785101135283.6868
0.024,-0.97,-0.308,-1.25,3.69,-2.11,1785101135283.873
0.023,-0.957,-0.313,-1.25,1.62,-3.75,1785101135284.055
0.031,-0.96,-0.317,-0.95,-0.18,-4.09,1785101135284.243
0.034,-0.97,-0.328,0.76,-0.61,-4.49,1785101135284.4312
0.031,-0.967,-0.342,3.45,-0.7,-5.49,1785101135284.611
0.033,-0.955,-0.351,6.32,-0.67,-6.41,1785101135284.801
0.037,-0.925,-0.361,6.38,-1.1,-7.26,1785101135284.991
0.04,-0.917,-0.366,4.73,-1.43,-7.23,1785101135285.182
0.046,-0.923,-0.369,0.85,-1.98,-7.45,1785101135285.3818
0.044,-0.905,-0.37,-3.33,-2.26,-7.66,1785101135285.5889
0.053,-0.911,-0.371,-4.43,-1.86,-7.02,1785101135285.811
0.05,-0.92,-0.368,-5.43,-1.62,-7.72,1785101135286.0361
0.038,-0.916,-0.358,-6.96,-1.74,-8.09,1785101135286.253
0.039,-0.905,-0.352,-6.99,-1.92,-6.68,1785101135286.4631
0.042,-0.893,-0.351,-5.25,-2.08,-4.52,1785101135286.67
0.046,-0.896,-0.352,-2.66,-2.11,-2.66,1785101135286.8809
0.046,-0.901,-0.36,-0.09,-1.98,-1.98,1785101135287.112
0.047,-0.899,-0.359,1.56,-1.68,-1.07,1785101135287.2878
0.053,-0.91,-0.36,3.05,-1.43,-0.15,1785101135287.468
0.054,-0.907,-0.361,2.47,-1.71,0.37,1785101135287.6558
0.055,-0.889,-0.355,-0.37,-2.47,1.59,1785101135287.836
0.064,-0.891,-0.357,-1.4,-2.59,3.02,1785101135288.008
0.067,-0.901,-0.366,-0.34,-1.95,3.2,1785101135288.185
0.062,-0.895,-0.364,0.76,-1.22,3.3,1785101135288.363
0.061,-0.887,-0.361,1.89,-1.1,4.55,1785101135288.5352
0.068,-0.897,-0.361,2.35,-0.95,5.49,1785101135288.71
0.064,-0.913,-0.366,0.64,-0.95,4.58,1785101135288.893
0.051,-0.911,-0.374,-1.98,-1.22,3.69,1785101135289.0662
0.05,-0.904,-0.376,-3.48,-0.98,4.97,1785101135289.249
0.052,-0.903,-0.385,-2.93,-0.58,6.32,1785101135289.434
0.05,-0.909,-0.392,-1.83,0.09,6.93,1785101135289.611
0.051,-0.913,-0.382,-0.67,0.67,7.35,1785101135289.797
0.056,-0.898,-0.396,0.79,0.52,7.69,1785101135289.98
0.055,-0.905,-0.411,3.08,0.82,8.73,1785101135290.166
0.061,-0.934,-0.385,5.62,2.5,8.67,1785101135290.3418
0.067,-0.941,-0.371,7.48,3.51,6.68,1785101135290.525
0.066,-0.97,-0.374,9.28,3.88,5.1,1785101135290.7058
0.047,-0.984,-0.363,7.6,3.85,3.57,1785101135290.8782
0.046,-0.945,-0.344,1.83,2.41,4.46,1785101135291.071
0.062,-0.954,-0.324,-3.66,0.79,5.62,1785101135291.255
0.065,-0.962,-0.322,-7.78,-0.76,3.97,1785101135291.4329
0.075,-0.99,-0.318,-8.24,-1.16,2.47,1785101135291.615
0.074,-0.993,-0.339,-5.37,-1.31,1.68,1785101135291.8
0.082,-0.981,-0.359,-0.24,-1.07,3.02,1785101135291.9722
0.085,-0.961,-0.393,5.31,-1.37,4.43,1785101135292.157
0.094,-0.965,-0.393,8.85,-1.19,5.58,1785101135292.3433
0.095,-0.979,-0.384,10.07,-0.92,4.88,1785101135292.5261
0.091,-0.99,-0.37,9.58,0.03,3.08,1785101135292.717
0.086,-0.997,-0.36,7.35,0.58,1.28,1785101135292.885
0.08,-0.991,-0.353,3.39,0.37,0.52,1785101135293.053
0.081,-0.98,-0.338,-0.15,-0.15,1.53,1785101135293.223
0.079,-0.962,-0.316,1.01,0.76,3.39,1785101135293.565
0.085,-0.937,-0.328,3.23,0.95,5.07,1785101135293.7332
-0.01,-1.205,-0.249,-34.0,-37.42,4.0,1785101135293.979
-0.086,-1.463,-0.272,-45.5,-40.86,-11.51,1785101135294.153
-0.221,-1.627,-0.222,-44.77,-35.86,-39.4,1785101135294.327
-0.379,-1.561,-0.09,-23.07,-31.71,-70.8,1785101135298.568
-0.446,-1.392,-0.036,20.63,-33.33,-92.96,1785101135309.3262
-0.362,-1.291,-0.148,67.93,-36.71,-105.66,1785101135322.571
-0.222,-1.236,-0.277,93.3,-40.99,-116.46,1785101135328.4358
-0.135,-1.127,-0.296,93.39,-47.12,-125.25,1785101135339.303
-0.056,-1.039,-0.321,90.43,-52.83,-128.03,1785101135350.025
0.025,-0.989,-0.364,92.14,-53.65,-127.57,1785101135363.2458
0.042,-0.911,-0.35,90.3,-52.06,-125.58,1785101135369.129
0.059,-0.824,-0.342,86.25,-50.42,-119.63,1785101135379.984
0.123,-0.752,-0.316,80.94,-48.28,-109.44,1785101135393.2769
0.195,-0.66,-0.294,73.7,-46.69,-98.61,1785101135399.007
0.268,-0.6,-0.271,65.71,-45.75,-86.92,1785101135409.887
0.323,-0.558,-0.263,53.53,-46.78,-77.36,1785101135423.1492
0.361,-0.531,-0.27,36.93,-47.52,-70.44,1785101135428.79
0.392,-0.531,-0.266,19.75,-47.43,-64.82,1785101135439.599
0.409,-0.566,-0.255,6.2,-46.75,-60.58,1785101135452.7947
0.426,-0.583,-0.252,-5.52,-46.48,-55.94,1785101135458.545
0.47,-0.568,-0.255,-17.27,-46.91,-49.44,1785101135469.128
0.521,-0.548,-0.253,-27.99,-47.73,-41.72,1785101135479.746
0.543,-0.542,-0.262,-37.2,-48.8,-34.12,1785101135493.0188
0.544,-0.547,-0.267,-43.98,-49.07,-27.16,1785101135498.999
0.529,-0.58,-0.261,-46.48,-49.07,-20.69,1785101135509.5732
0.498,-0.618,-0.244,-46.54,-49.47,-15.14,1785101135520.27
0.464,-0.653,-0.231,-43.61,-49.62,-10.5,1785101135533.512
0.449,-0.667,-0.241,-39.03,-49.32,-6.01,1785101135539.5552
0.462,-0.653,-0.269,-36.53,-49.35,-0.64,1785101135549.7979
0.498,-0.631,-0.298,-37.17,-49.62,5.13,1785101135563.1501
0.541,-0.63,-0.338,-39.86,-49.78,10.16,1785101135568.9868
0.555,-0.648,-0.379,-43.52,-49.44,13.03,1785101135579.4812
0.537,-0.656,-0.394,-46.27,-48.43,15.41,1785101135590.282
0.515,-0.68,-0.409,-45.63,-46.94,17.98,1785101135603.2969
0.493,-0.709,-0.434,-41.96,-44.04,19.78,1785101135609.455
0.462,-0.719,-0.481,-38.0,-40.68,21.58,1785101135619.795
0.458,-0.706,-0.54,-37.57,-36.62,23.99,1785101135632.996
0.486,-0.697,-0.578,-40.93,-32.41,25.36,1785101135638.953
0.516,-0.692,-0.567,-47.76,-29.11,25.79,1785101135649.471
0.538,-0.72,-0.548,-52.49,-26.34,26.06,1785101135660.4678
0.538,-0.765,-0.541,-52.83,-23.9,25.94,1785101135673.485
0.519,-0.795,-0.515,-48.55,-21.55,26.31,1785101135679.337
0.503,-0.807,-0.51,-39.98,-19.81,27.92,1785101135690.047
0.5,-0.794,-0.524,-30.24,-17.64,30.4,1785101135703.1328
0.5,-0.794,-0.524,-21.45,-15.69,33.05,1785101135709.12
0.506,-0.773,-0.525,-15.26,-15.17,34.94,1785101135719.528
0.519,-0.759,-0.525,-11.35,-14.83,35.58,1785101135730.218
0.521,-0.757,-0.529,-7.87,-14.31,35.62,1785101135743.867
0.517,-0.778,-0.551,-7.87,-14.31,35.62,1785101135749.4631
0.506,-0.806,-0.578,-5.49,-12.63,35.1,1785101135759.61
0.497,-0.843,-0.591,-3.88,-10.8,34.64,1785101135770.1492
0.482,-0.899,-0.597,-1.46,-9.67,32.96,1785101135783.3972
0.463,-0.908,-0.601,1.89,-8.76,31.1,1785101135789.233
0.455,-0.878,-0.597,6.59,-7.66,31.28,1785101135799.3113
0.457,-0.839,-0.592,12.21,-7.08,33.02,1785101135809.927
0.468,-0.809,-0.606,16.85,-7.11,34.3,1785101135823.33
0.476,-0.792,-0.625,18.59,-6.62,33.85,1785101135829.069
0.479,-0.807,-0.629,17.79,-5.83,32.47,1785101135839.3809
0.47,-0.853,-0.633,15.96,-5.19,30.37,1785101135849.928
0.446,-0.876,-0.646,12.91,-3.97,27.04,1785101135863.19
0.417,-0.857,-0.654,7.81,-3.6,25.15,1785101135869.081
0.414,-0.834,-0.654,3.39,-4.21,27.68,1785101135879.188
0.422,-0.816,-0.652,2.11,-3.2,29.15,1785101135889.693
0.422,-0.804,-0.661,2.08,-1.46,27.04,1785101135900.407
0.418,-0.791,-0.645,1.71,0.85,24.96,1785101135913.391
0.422,-0.813,-0.616,4.73,2.69,23.9,1785101135919.2231
0.425,-0.882,-0.582,12.54,3.75,21.97,1785101135929.423
0.409,-0.924,-0.538,21.55,3.85,20.14,1785101135940.464
0.392,-0.897,-0.489,30.58,3.45,20.91,1785101135953.169
0.381,-0.871,-0.438,42.91,2.93,24.05,1785101135959.142
0.366,-0.812,-0.379,57.56,2.41,28.02,1785101135969.396
0.37,-0.794,-0.326,81.06,2.87,33.36,1785101135979.9922
0.367,-0.853,-0.302,114.35,4.12,38.24,1785101135993.331
0.344,-0.895,-0.292,147.95,4.91,41.47,1785101135999.1848
0.26,-0.865,-0.271,175.57,2.87,46.54,1785101136009.696
0.277,-0.873,-0.322,196.42,-0.58,56.7,1785101136020.265
0.384,-0.931,-0.336,203.13,0.31,59.36,1785101136033.549
0.367,-0.924,-0.287,193.18,1.83,56.46,1785101136039.6118
0.333,-0.992,-0.296,180.36,3.51,54.51,1785101136050.033
0.294,-1.065,-0.271,162.48,6.99,49.65,1785101136063.4172
0.268,-1.082,-0.23,139.29,9.52,43.89,1785101136069.2139
0.262,-1.078,-0.174,113.86,10.62,38.03,1785101136079.822
0.246,-1.093,-0.119,86.46,8.94,30.98,1785101136092.9438
0.231,-1.117,-0.09,57.19,5.95,23.1,1785101136098.931
0.226,-1.142,-0.086,29.97,3.51,15.75,1785101136109.063
0.234,-1.133,-0.099,5.46,1.62,9.22,1785101136119.6318
0.235,-1.113,-0.103,-16.48,-0.09,3.54,1785101136130.09
0.208,-1.069,-0.107,-35.07,-3.23,-1.43,1785101136143.4119
0.194,-1.052,-0.13,-46.33,-5.71,-3.85,1785101136149.301
0.174,-1.041,-0.142,-50.33,-8.3,-4.85,1785101136159.2961
0.181,-1.036,-0.179,-47.36,-11.05,-4.49,1785101136169.832
0.183,-1.023,-0.198,-39.98,-12.6,-4.24,1785101136183.189
0.182,-1.013,-0.225,-29.39,-13.03,-3.48,1785101136189.066
0.179,-0.995,-0.25,-18.43,-11.78,-2.29,1785101136199.286
0.169,-0.978,-0.249,-9.13,-9.86,-0.76,1785101136209.533
0.16,-0.981,-0.258,-3.02,-8.09,-0.64,1785101136220.078
0.137,-0.978,-0.241,-1.31,-6.5,-1.13,1785101136233.265
0.12,-0.997,-0.227,-0.06,-6.1,-1.56,1785101136238.898
0.109,-0.985,-0.248,0.34,-6.26,-3.33,1785101136248.801
0.1,-0.944,-0.263,-1.04,-6.01,-3.14,1785101136259.326
0.098,-0.928,-0.281,-1.83,-5.98,-1.62,1785101136269.6882
0.098,-0.949,-0.275,0.18,-4.21,-2.59,1785101136280.093
0.101,-0.951,-0.261,2.44,-3.45,-4.39,1785101136293.381
0.119,-0.94,-0.226,4.79,-2.93,-6.29,1785101136298.963
0.111,-0.929,-0.205,7.63,-3.11,-8.27,1785101136309.078
0.106,-0.943,-0.157,10.99,-3.57,-8.39,1785101136319.5122
0.089,-0.94,-0.11,15.32,-4.43,-7.54,1785101136329.927
0.089,-0.936,-0.047,22.8,-4.97,-4.52,1785101136343.1768
0.107,-0.946,-0.004,33.39,-5.83,-1.83,1785101136349.546
0.113,-0.951,-0.012,44.62,-7.11,-0.98,1785101136359.136
0.121,-0.927,-0.028,48.74,-10.19,0.49,1785101136369.7002
0.155,-0.893,-0.056,46.33,-13.52,2.78,1785101136380.226
0.179,-0.876,-0.104,42.7,-15.14,4.43,1785101136393.562
0.186,-0.891,-0.139,38.7,-15.29,5.07,1785101136399.5469
0.178,-0.956,-0.156,32.72,-16.05,3.36,1785101136409.775
0.196,-1.014,-0.183,24.48,-17.21,1.28,1785101136420.24
0.199,-1.053,-0.188,15.63,-17.37,0.89,1785101136433.5042
0.2,-1.048,-0.217,6.26,-17.52,1.56,1785101136439.519
0.202,-1.005,-0.225,-3.33,-14.83,2.29,1785101136449.534
0.219,-1.026,-0.25,-8.94,-9.98,2.96,1785101136459.9358
0.217,-1.046,-0.259,-16.24,-5.65,0.03,1785101136473.294
0.202,-1.039,-0.254,-26.18,-4.15,-2.47,1785101136478.667
0.189,-1.024,-0.236,-35.65,-3.94,-2.14,1785101136489.099
0.183,-0.996,-0.197,-42.57,-4.79,0.15,1785101136499.595
0.186,-0.979,-0.179,-43.67,-5.77,0.55,1785101136509.8848
0.178,-0.983,-0.18,-42.39,-7.2,-0.85,1785101136523.478
0.163,-1.01,-0.169,-39.89,-8.42,-3.11,1785101136529.113
0.132,-1.015,-0.192,-34.82,-10.35,-5.13,1785101136539.3071
0.136,-1.027,-0.195,-25.61,-11.51,-2.62,1785101136549.893
0.144,-1.036,-0.198,-14.62,-12.97,-0.46,1785101136563.139
0.149,-1.016,-0.225,-6.04,-14.4,-0.03,1785101136569.236
0.165,-1.023,-0.261,1.07,-12.88,0.82,1785101136579.157
0.165,-1.012,-0.265,3.54,-9.74,0.52,1785101136589.51
0.164,-0.976,-0.257,1.46,-7.26,-0.06,1785101136600.199
0.158,-0.938,-0.245,-2.81,-4.39,0.49,1785101136610.2532
0.157,-0.885,-0.225,-9.13,-2.2,2.14,1785101136623.7349
0.152,-0.86,-0.207,-13.49,-0.09,3.72,1785101136629.37
0.15,-0.864,-0.197,-15.81,0.76,4.43,1785101136639.414
0.152,-0.898,-0.186,-16.02,0.55,2.9,1785101136649.847
0.149,-0.936,-0.172,-14.71,-1.46,-0.27,1785101136660.306
0.141,-0.972,-0.161,-11.54,-3.81,-2.96,1785101136673.6008
0.139,-0.955,-0.162,-7.54,-6.23,-3.11,1785101136679.387
0.151,-0.909,-0.156,-4.12,-8.3,0.18,1785101136689.248
0.167,-0.88,-0.124,-2.75,-9.34,4.09,1785101136699.6912
0.181,-0.922,-0.111,-3.72,-10.38,3.66,1785101136710.2131
0.172,-0.962,-0.124,-8.18,-12.02,-0.27,1785101136723.561
0.172,-1.009,-0.125,-10.22,-12.15,-1.37,1785101136729.41
0.18,-1.013,-0.161,-9.58,-12.57,-0.67,1785101136739.5752
0.191,-0.969,-0.21,-8.03,-12.6,1.59,1785101136749.9111
0.211,-0.913,-0.249,-6.71,-12.09,5.68,1785101136763.155
0.22,-0.902,-0.239,-8.03,-11.41,8.33,1785101136768.981
0.234,-0.941,-0.205,-10.44,-11.47,6.35,1785101136779.201
0.249,-0.994,-0.218,-10.74,-11.57,1.01,1785101136789.7349
0.252,-1.038,-0.256,-8.97,-9.86,-1.43,1785101136800.417
0.229,-1.007,-0.277,-7.97,-7.08,1.43,1785101136813.3782
0.218,-0.898,-0.251,-10.01,-5.31,9.64,1785101136819.0762
0.233,-0.853,-0.213,-11.26,-4.24,16.6,1785101136829.3179
0.244,-0.916,-0.215,-9.46,-2.5,15.69,1785101136840.39
0.231,-0.985,-0.245,-9.19,-1.37,9.89,1785101136850.108
0.217,-0.996,-0.267,-12.12,-1.98,6.87,1785101136863.376
0.209,-0.988,-0.261,-15.44,-3.69,7.69,1785101136869.3062
0.194,-0.985,-0.244,-17.0,-6.16,9.28,1785101136879.347
0.202,-1.013,-0.279,-14.71,-7.2,10.01,1785101136890.06
0.191,-1.027,-0.293,-12.82,-6.78,9.7,1785101136903.1392
0.164,-1.011,-0.298,-12.27,-5.77,10.86,1785101136909.12
0.151,-0.997,-0.29,-13.12,-4.43,12.15,1785101136919.276
0.145,-0.974,-0.263,-16.48,-4.58,11.29,1785101136929.703
0.133,-0.975,-0.235,-19.78,-5.62,9.67,1785101136940.2627
0.114,-1.006,-0.233,-20.17,-6.93,6.9,1785101136953.5151
0.103,-0.998,-0.235,-17.18,-6.99,5.13,1785101136959.465
0.108,-0.992,-0.24,-10.71,-6.04,5.22,1785101136969.449
0.102,-0.976,-0.263,-5.31,-5.28,4.46,1785101136979.852
0.102,-0.976,-0.263,-2.87,-4.67,4.58,1785101136990.382
0.094,-0.927,-0.268,0.82,-4.24,5.71,1785101137003.4548
0.103,-0.916,-0.301,2.66,-3.39,5.77,1785101137009.151
0.104,-0.937,-0.33,2.59,-2.96,5.37,1785101137019.0989
0.099,-0.966,-0.314,2.53,-3.39,4.0,1785101137029.538
0.098,-0.975,-0.293,2.53,-3.39,4.0,1785101137040.4028
0.099,-0.954,-0.274,0.21,-5.25,3.3,1785101137050.3198
0.086,-0.915,-0.256,-5.86,-7.63,2.62,1785101137063.5251
0.094,-0.94,-0.216,-11.11,-8.94,2.2,1785101137069.252
0.088,-0.985,-0.196,-16.05,-10.86,-1.37,1785101137079.5322
0.077,-1.018,-0.171,-17.7,-12.24,-4.49,1785101137090.266
0.086,-1.043,-0.198,-13.12,-12.67,-5.71,1785101137103.2651
0.11,-1.021,-0.268,-5.8,-10.83,-4.97,1785101137109.4202
0.116,-0.946,-0.312,3.11,-7.72,-0.61,1785101137119.188
0.13,-0.899,-0.323,10.77,-6.78,4.85,1785101137129.7058
0.145,-0.928,-0.318,12.7,-6.53,5.55,1785101137140.268
0.13,-0.962,-0.313,4.43,-7.75,1.43,1785101137153.418
0.128,-0.96,-0.293,-9.52,-8.64,-1.13,1785101137159.1338
0.124,-0.924,-0.284,-17.24,-8.09,-0.55,1785101137169.131
0.132,-0.888,-0.276,-15.44,-6.32,3.66,1785101137179.4187
0.154,-0.921,-0.266,-7.78,-4.24,6.23,1785101137190.0889
0.15,-0.972,-0.277,-1.56,-3.2,3.57,1785101137203.226
0.151,-0.996,-0.277,0.34,-1.71,0.79,1785101137208.9758
0.156,-1.021,-0.278,2.53,0.24,-0.49,1785101137218.9187
0.158,-1.025,-0.304,3.48,1.34,-1.37,1785101137229.3032
0.151,-0.997,-0.323,-0.43,1.43,-0.89,1785101137239.7283
0.137,-0.977,-0.327,-7.6,0.21,1.19,1785101137250.082
0.126,-0.968,-0.322,-15.08,-1.22,3.36,1785101137263.392
0.119,-0.947,-0.316,-20.94,-2.5,5.77,1785101137269.156
0.125,-0.952,-0.309,-21.88,-2.53,7.26,1785101137279.268
0.126,-0.942,-0.309,-21.03,-2.78,6.1,1785101137289.7751
0.127,-0.973,-0.31,-17.49,-2.81,3.54,1785101137300.214
0.11,-0.989,-0.317,-14.47,-3.36,0.27,1785101137313.487
0.097,-0.965,-0.309,-13.82,-4.15,-0.52,1785101137319.254
0.091,-0.962,-0.311,-11.87,-4.61,-0.55,1785101137329.448
0.085,-0.968,-0.323,-9.28,-4.15,-2.32,1785101137339.9238
0.073,-0.971,-0.333,-6.2,-2.72,-3.81,1785101137350.1282
0.067,-0.968,-0.332,-2.69,-0.64,-3.78,1785101137363.369
0.075,-0.959,-0.336,0.18,0.92,-2.99,1785101137369.043
0.082,-0.929,-0.337,1.19,2.41,-2.14,1785101137379.1108
0.094,-0.931,-0.336,3.2,3.75,-1.5,1785101137389.437
0.097,-0.951,-0.341,5.58,3.94,-3.2,1785101137399.7812
0.095,-0.984,-0.335,6.99,2.96,-6.07,1785101137410.2358
0.091,-0.998,-0.309,8.48,1.71,-8.97,1785101137423.47
0.097,-0.994,-0.294,11.99,0.98,-9.8,1785101137429.209
0.087,-0.923,-0.282,12.39,0.27,-8.45,1785101137439.335
0.095,-0.865,-0.239,5.25,-2.72,-4.91,1785101137449.7122
0.122,-0.897,-0.217,-4.27,-7.11,-4.61,1785101137460.142
0.132,-0.984,-0.169,-9.8,-8.03,-8.06,1785101137473.3638
0.131,-1.038,-0.195,-8.09,-9.43,-12.02,1785101137478.827
0.142,-1.027,-0.273,-3.3,-9.19,-11.72,1785101137489.006
0.162,-0.949,-0.354,3.72,-7.66,-6.35,1785101137499.726
0.188,-0.903,-0.379,13.06,-4.76,1.13,1785101137510.279
0.194,-0.89,-0.371,19.01,-2.87,4.43,1785101137523.357
0.185,-0.877,-0.337,14.16,-3.48,4.85,1785101137529.648
0.178,-0.886,-0.322,2.08,-5.04,4.3,1785101137539.113
0.166,-0.891,-0.308,-10.8,-5.62,3.2,1785101137549.602
0.168,-0.91,-0.293,-17.49,-4.61,2.59,1785101137560.273
0.172,-0.945,-0.309,-18.52,-3.3,1.74,1785101137573.527
0.17,-0.981,-0.314,-17.58,-2.14,1.43,1785101137579.227
0.159,-0.998,-0.294,-14.1,-1.13,2.38,1785101137589.27
0.163,-1.021,-0.286,-7.81,-0.31,3.02,1785101137599.593
0.153,-1.022,-0.317,-3.45,0.0,1.83,1785101137610.06
0.134,-0.966,-0.354,-6.29,-0.92,2.78,1785101137623.359
0.131,-0.925,-0.374,-10.96,-1.46,6.96,1785101137628.978
0.133,-0.932,-0.378,-13.12,-0.64,9.61,1785101137639.145
0.13,-0.941,-0.377,-14.83,0.06,9.25,1785101137649.582
0.116,-0.937,-0.373,-15.38,0.67,8.48,1785101137660.09
0.111,-0.934,-0.361,-13.82,0.98,8.33,1785101137673.455
0.116,-0.927,-0.352,-10.56,1.04,7.23,1785101137679.1758
0.118,-0.952,-0.358,-7.05,1.68,4.33,1785101137689.168
0.101,-0.972,-0.349,-7.84,1.65,0.79,1785101137699.5652
0.085,-0.983,-0.334,-10.16,0.46,-1.95,1785101137710.1199
0.073,-0.969,-0.326,-9.92,-0.31,-2.9,1785101137723.405
0.076,-0.961,-0.319,-4.58,0.09,-1.92,1785101137728.9321
0.073,-0.946,-0.329,2.29,1.25,-0.92,1785101137738.9062
0.077,-0.942,-0.334,7.75,2.66,0.03,1785101137749.312
0.089,-0.947,-0.339,8.67,3.27,-0.24,1785101137759.6792
0.084,-0.936,-0.355,6.68,3.81,-1.5,1785101137770.0889
0.085,-0.895,-0.36,2.96,4.18,-0.64,1785101137783.378
0.099,-0.901,-0.37,0.85,4.09,0.03,1785101137788.949
0.099,-0.914,-0.368,-1.28,4.21,-1.56,1785101137799.1008
0.094,-0.928,-0.341,-3.17,3.27,-2.99,1785101137809.3938
0.091,-0.936,-0.315,-3.45,1.5,-4.27,1785101137819.8801
0.09,-0.912,-0.28,-3.27,-0.06,-3.85,1785101137830.3699
0.1,-0.914,-0.225,-2.96,-1.86,-2.75,1785101137843.559
0.107,-0.95,-0.212,-2.81,-5.22,-4.76,1785101137849.772
0.108,-1.007,-0.209,-1.71,-6.93,-7.14,1785101137859.117
0.117,-1.023,-0.253,0.98,-7.35,-7.32,1785101137869.4138
0.131,-0.988,-0.343,6.78,-6.5,-3.69,1785101137879.8389
0.139,-0.913,-0.401,13.09,-4.27,2.93,1785101137890.412
0.161,-0.869,-0.387,16.45,-1.92,9.0,1785101137903.517
0.165,-0.897,-0.352,13.34,-1.65,8.51,1785101137909.502
0.157,-0.923,-0.326,1.22,-2.99,3.6,1785101137919.3752
0.139,-0.934,-0.324,-12.24,-4.15,-0.21,1785101137929.924
0.132,-0.927,-0.313,-20.29,-4.43,0.52,1785101137943.1711
0.13,-0.899,-0.296,-21.3,-4.15,3.85,1785101137948.9492
0.138,-0.891,-0.296,-17.37,-3.05,7.29,1785101137959.1282
0.147,-0.923,-0.316,-12.48,-2.38,6.9,1785101137969.523
0.147,-0.951,-0.325,-8.61,-0.85,4.49,1785101137979.699
0.142,-0.974,-0.321,-2.72,0.95,4.15,1785101137990.345
0.147,-1.007,-0.33,3.81,1.62,4.09,1785101138003.4849
0.139,-1.009,-0.357,6.44,0.98,4.12,1785101138009.393
0.127,-0.972,-0.383,5.22,0.64,7.29,1785101138019.228
0.132,-0.952,-0.4,2.96,1.22,10.99,1785101138029.6982
0.138,-0.927,-0.412,-1.22,1.74,11.81,1785101138040.2578
0.146,-0.928,-0.413,-3.57,2.78,11.08,1785101138053.385
0.144,-0.944,-0.408,-4.33,3.88,8.45,1785101138059.2651
0.132,-0.935,-0.388,-4.55,4.76,6.29,1785101138069.132
0.126,-0.95,-0.37,-2.99,5.22,4.88,1785101138079.544
0.121,-0.959,-0.346,-2.72,5.04,2.81,1785101138090.069
0.111,-0.973,-0.325,-2.87,3.91,-0.03,1785101138100.518
0.105,-0.98,-0.311,-2.75,2.62,-2.75,1785101138113.551
0.099,-0.995,-0.307,-0.58,1.56,-4.21,1785101138119.141
0.096,-0.993,-0.314,1.86,0.79,-4.18,1785101138129.2368
0.095,-0.961,-0.313,4.52,0.34,-2.38,1785101138139.6538
0.108,-0.961,-0.317,10.07,0.55,-0.31,1785101138150.1018
0.109,-0.964,-0.328,14.13,1.04,-0.79,1785101138163.372
0.115,-0.968,-0.336,14.16,1.16,-2.56,1785101138169.146
0.112,-0.972,-0.357,12.12,1.25,-5.37,1785101138179.3262
0.103,-0.941,-0.373,9.34,2.66,-6.59,1785101138189.523
0.102,-0.906,-0.384,7.23,4.39,-5.1,1785101138200.0698
0.099,-0.867,-0.38,3.6,5.1,-3.45,1785101138213.2878
0.099,-0.858,-0.381,-1.34,4.3,-3.36,1785101138218.886
0.098,-0.901,-0.368,-6.59,2.96,-5.55,1785101138228.8909
0.084,-0.941,-0.335,-10.35,1.31,-8.91,1785101138239.4739
0.082,-0.937,-0.299,-11.87,-1.19,-9.86,1785101138249.9148
0.086,-0.907,-0.261,-10.56,-3.6,-7.14,1785101138263.1262
0.107,-0.931,-0.204,-5.49,-4.82,-4.88,1785101138268.898
0.107,-0.931,-0.204,-1.28,-7.9,-6.56,1785101138278.8867
0.098,-0.956,-0.206,0.95,-9.4,-6.9,1785101138289.143
0.091,-0.981,-0.216,3.75,-10.47,-5.98,1785101138299.8809
0.099,-1.001,-0.249,8.88,-9.34,-4.3,1785101138310.0203
0.128,-0.999,-0.313,8.88,-9.34,-4.3,1785101138323.3818
0.136,-0.973,-0.396,18.92,-5.71,-1.71,1785101138329.1
0.124,-0.899,-0.409,25.54,-2.72,4.33,1785101138339.2388
0.135,-0.806,-0.378,20.94,-3.27,11.9,1785101138349.752
0.16,-0.814,-0.34,8.03,-5.68,13.06,1785101138360.226
0.153,-0.872,-0.335,-7.32,-7.42,6.62,1785101138373.503
0.132,-0.933,-0.349,-16.97,-6.13,1.46,1785101138379.2168
0.114,-0.975,-0.345,-17.61,-3.72,0.37,1785101138389.3381
0.109,-0.983,-0.324,-14.07,-3.6,1.89,1785101138399.784
0.122,-0.966,-0.303,-10.62,-4.33,4.88,1785101138410.114
0.136,-0.985,-0.308,-4.24,-3.36,6.56,1785101138423.336
0.132,-1.0,-0.327,3.3,-1.31,5.46,1785101138428.972
0.129,-1.011,-0.348,9.49,0.52,4.79,1785101138439.1812
0.122,-0.998,-0.376,11.96,0.85,5.55,1785101138449.6829
0.116,-0.95,-0.382,9.22,0.21,8.33,1785101138460.368
0.126,-0.965,-0.381,6.78,-0.06,9.64,1785101138473.289
0.121,-0.985,-0.385,4.18,0.09,6.81,1785101138478.58
0.114,-1.004,-0.381,1.74,0.09,4.36,1785101138489.084
0.105,-0.999,-0.372,-1.77,-0.52,2.84,1785101138499.447
0.094,-0.95,-0.355,-5.55,-1.22,2.2,1785101138509.6519
0.09,-0.913,-0.35,-7.14,-1.4,2.96,1785101138520.093
0.09,-0.904,-0.341,-7.57,-1.31,3.51,1785101138533.366
0.091,-0.929,-0.326,-8.3,-1.83,2.62,1785101138539.0342
0.088,-0.95,-0.318,-9.22,-2.5,0.43,1785101138548.887
0.088,-0.985,-0.323,-8.12,-2.53,-1.4,1785101138559.4531
0.079,-0.991,-0.334,-6.65,-2.44,-2.81,1785101138569.833
0.063,-0.956,-0.344,-4.43,-2.04,-1.13,1785101138580.425
0.068,-0.937,-0.344,-1.5,-1.5,2.96,1785101138593.503
0.078,-0.936,-0.359,1.4,-0.79,4.12,1785101138599.072
0.071,-0.915,-0.376,1.71,0.64,3.48,1785101138609.1367
0.073,-0.898,-0.382,-1.95,0.85,3.45,1785101138619.476
0.077,-0.9,-0.391,-8.91,-0.12,1.74,1785101138629.929
0.071,-0.869,-0.382,-18.28,-1.37,0.4,1785101138643.2058
0.077,-0.895,-0.362,-23.32,-2.75,0.21,1785101138648.9602
0.066,-0.91,-0.34,-23.9,-3.42,-1.62,1785101138659.071
0.057,-0.88,-0.303,-23.16,-4.33,-1.53,1785101138669.596
0.086,-0.902,-0.263,-20.48,-6.26,-0.82,1785101138680.0872
0.095,-0.96,-0.256,-13.49,-6.23,-3.85,1785101138693.595
0.094,-0.987,-0.269,-4.79,-5.98,-5.8,1785101138699.1018
0.1,-0.998,-0.318,2.47,-7.02,-4.73,1785101138709.085
0.108,-0.987,-0.35,4.97,-8.36,-1.37,1785101138722.528
0.127,-0.944,-0.374,4.18,-8.48,2.99,1785101138729.8088
0.149,-0.927,-0.389,7.29,-5.4,5.98,1785101138740.335
0.154,-0.917,-0.377,10.44,-3.11,6.04,1785101138753.4358
0.158,-0.914,-0.364,9.61,-2.17,4.82,1785101138759.377
0.143,-0.88,-0.356,4.97,-2.56,4.49,1785101138769.181
0.147,-0.868,-0.334,0.09,-2.9,5.98,1785101138779.595
0.147,-0.889,-0.332,-0.55,-1.43,4.79,1785101138790.121
0.145,-0.926,-0.333,0.7,0.21,2.75,1785101138800.302
0.149,-0.97,-0.345,1.5,0.79,0.55,1785101138813.626
0.132,-0.967,-0.347,1.19,2.01,-0.4,1785101138819.188
0.129,-0.961,-0.332,3.08,3.42,1.68,1785101138829.239
0.131,-0.971,-0.342,6.99,4.12,2.32,1785101138839.633
0.116,-0.956,-0.376,7.51,4.06,2.62,1785101138850.049
0.112,-0.933,-0.386,4.27,3.48,5.1,1785101138863.262
0.11,-0.934,-0.388,1.95,3.57,6.96,1785101138868.885
0.106,-0.933,-0.382,1.4,4.61,7.2,1785101138878.955
0.102,-0.926,-0.377,1.92,5.74,6.71,1785101138889.354
0.098,-0.923,-0.368,3.6,6.74,6.38,1785101138899.6602
0.094,-0.948,-0.365,6.59,7.35,5.4,1785101138910.071
0.077,-0.957,-0.366,7.97,7.39,3.48,1785101138923.473
0.061,-0.932,-0.36,6.56,7.23,2.72,1785101138928.985
0.057,-0.909,-0.344,4.49,6.53,3.75,1785101138939.106
0.056,-0.905,-0.324,3.63,5.31,4.85,1785101138949.375
0.066,-0.948,-0.312,4.03,3.88,4.0,1785101138959.958
0.057,-0.973,-0.32,4.79,2.9,1.25,1785101138970.143
0.048,-0.986,-0.339,7.45,2.53,0.27,1785101138983.5068
0.05,-0.984,-0.343,10.01,2.29,1.22,1785101138989.253
0.057,-0.984,-0.353,10.68,1.53,1.28,1785101138999.3557
0.053,-0.95,-0.359,8.45,0.79,1.04,1785101139009.671
0.056,-0.945,-0.359,6.59,0.85,1.77,1785101139020.02
0.056,-0.943,-0.361,4.7,1.13,0.98,1785101139033.2659
0.053,-0.939,-0.374,3.81,1.13,-0.67,1785101139038.9321
0.051,-0.938,-0.389,2.47,1.46,-1.62,1785101139048.935
0.052,-0.932,-0.395,-0.98,1.13,-1.83,1785101139059.336
0.046,-0.921,-0.382,-4.15,0.24,-1.28,1785101139069.707
0.047,-0.924,-0.336,-5.83,-0.52,-1.04,1785101139080.256
0.06,-0.922,-0.292,-7.42,-3.33,-2.01,1785101139093.4028
0.069,-0.952,-0.262,-7.63,-5.65,-4.67,1785101139099.0322
0.063,-0.995,-0.255,-6.38,-7.78,-8.18,1785101139109.052
0.06,-1.01,-0.246,-8.3,-10.93,-9.43,1785101139119.699
0.08,-1.018,-0.278,-9.55,-13.06,-7.97,1785101139129.983
0.085,-1.033,-0.359,-4.27,-12.18,-6.74,1785101139143.345
0.09,-0.987,-0.387,7.2,-6.07,-3.3,1785101139149.088
0.118,-0.943,-0.347,20.17,-1.46,0.73,1785101139159.063
0.121,-0.907,-0.34,27.28,-0.98,1.62,1785101139169.5261
0.105,-0.819,-0.329,20.33,-1.98,3.72,1785101139180.0762
0.121,-0.813,-0.325,7.84,-3.11,5.37,1785101139193.244
0.137,-0.916,-0.33,0.15,-1.74,-0.4,1785101139198.865
0.111,-0.964,-0.324,-5.34,0.4,-7.42,1785101139208.9111
0.102,-0.943,-0.314,-11.87,-0.46,-5.92,1785101139219.358
0.125,-0.949,-0.319,-13.95,-1.31,-1.25,1785101139229.847
0.129,-0.961,-0.336,-11.08,0.21,-0.58,1785101139240.5078
0.124,-0.955,-0.33,-7.81,2.32,-0.85,1785101139253.526
0.13,-0.969,-0.338,-3.75,4.46,-0.06,1785101139259.223
0.13,-0.985,-0.357,0.34,6.71,-0.12,1785101139269.2302
0.121,-0.972,-0.369,2.81,7.69,0.61,1785101139279.6091
0.117,-0.957,-0.371,3.91,7.17,3.39,1785101139290.069
0.118,-0.951,-0.382,4.55,5.86,6.53,1785101139303.2178
0.116,-0.934,-0.396,3.6,4.88,8.18,1785101139308.908
0.114,-0.898,-0.404,1.31,4.97,9.77,1785101139318.882
0.116,-0.896,-0.394,-0.21,5.13,11.08,1785101139329.447
0.113,-0.92,-0.375,-0.98,5.46,9.06,1785101139339.7861
0.108,-0.95,-0.362,-1.16,5.77,5.71,1785101139350.152
0.094,-0.974,-0.353,-0.18,5.77,3.14,1785101139363.372
0.082,-0.969,-0.347,1.13,5.49,2.38,1785101139369.055
0.073,-0.942,-0.347,2.66,5.37,3.78,1785101139379.101
0.081,-0.943,-0.34,3.91,5.71,5.43,1785101139389.449
0.082,-0.959,-0.333,3.6,5.68,4.91,1785101139399.869
0.074,-0.975,-0.332,2.72,5.68,3.2,1785101139410.1802
0.066,-0.965,-0.327,1.01,5.68,2.17,1785101139423.479
0.068,-0.94,-0.332,0.0,5.49,2.29,1785101139429.121
0.076,-0.931,-0.355,1.01,5.65,2.99,1785101139439.193
0.075,-0.932,-0.358,3.94,6.81,2.75,1785101139449.547
0.075,-0.927,-0.353,7.29,7.39,2.35,1785101139459.9219
0.074,-0.902,-0.339,6.93,7.29,2.08,1785101139470.27
0.071,-0.87,-0.31,0.24,5.34,1.89,1785101139483.631
0.074,-0.907,-0.277,-7.75,2.38,0.43,1785101139489.276
0.057,-0.964,-0.24,-11.66,0.34,-3.08,1785101139499.3643
0.041,-0.981,-0.209,-10.86,-1.04,-4.49,1785101139509.8188
0.067,-1.013,-0.214,-3.02,-2.29,-3.39,1785101139520.138
0.065,-1.038,-0.277,6.99,-4.27,-2.99,1785101139533.4111
0.07,-1.002,-0.301,12.42,-4.67,0.27,1785101139539.124
0.084,-0.963,-0.337,18.8,-3.69,3.72,1785101139549.262
0.084,-0.963,-0.337,20.63,-2.29,5.25,1785101139559.831
0.093,-0.932,-0.348,15.99,-3.14,4.3,1785101139570.195
0.098,-0.923,-0.365,7.93,-3.3,1.1,1785101139583.4172
0.11,-0.97,-0.362,-0.7,-3.17,-3.36,1785101139589.1167
0.102,-1.025,-0.344,-7.48,-2.87,-6.07,1785101139599.158
0.09,-1.04,-0.329,-7.48,-2.87,-6.07,1785101139609.522
0.072,-1.01,-0.317,-11.51,-2.38,-5.49,1785101139619.96
0.058,-0.928,-0.292,-13.92,-1.98,-2.01,1785101139633.232
0.077,-0.881,-0.277,-13.43,-1.65,1.8,1785101139641.111
0.102,-0.913,-0.291,-10.9,-1.5,-0.31,1785101139649.055
0.099,-0.938,-0.314,-8.12,-1.16,-4.33,1785101139659.5688
0.091,-0.95,-0.317,-2.69,-0.43,-3.17,1785101139669.677
0.106,-0.966,-0.318,4.15,-0.4,-1.19,1785101139680.116
0.112,-0.975,-0.341,8.94,-0.24,-1.53,1785101139693.614
0.102,-0.973,-0.365,10.47,-0.06,-1.04,1785101139699.276
0.092,-0.958,-0.391,8.12,-0.4,1.1,1785101139709.323
0.088,-0.914,-0.385,1.89,-0.67,3.81,1785101139719.787
0.098,-0.903,-0.376,-1.5,-0.18,5.01,1785101139730.097
0.091,-0.898,-0.372,-2.56,1.1,4.03,1785101139743.4348
0.088,-0.89,-0.362,-2.81,2.41,4.46,1785101139749.0771
0.084,-0.884,-0.349,-2.32,3.17,5.1,1785101139759.073
0.086,-0.903,-0.336,-1.43,3.69,5.34,1785101139769.381
0.085,-0.939,-0.332,-0.61,3.85,3.57,1785101139779.785
0.07,-0.95,-0.332,0.24,4.09,1.62,1785101139790.1052
0.077,-0.961,-0.337,2.04,4.18,1.98,1785101139803.214
0.081,-0.98,-0.35,2.99,4.21,1.8,1785101139808.8909
0.072,-0.971,-0.358,1.89,4.58,1.34,1785101139819.0532
0.076,-0.968,-0.357,1.56,5.31,1.95,1785101139829.427
0.084,-0.973,-0.355,0.43,5.89,1.68,1785101139840.232
0.075,-0.954,-0.353,-1.8,6.29,0.58,1785101139850.188
0.073,-0.95,-0.338,-2.2,7.05,0.55,1785101139863.483
0.076,-0.973,-0.328,-2.87,7.08,-1.25,1785101139869.203
0.063,-0.956,-0.326,-6.13,6.13,-4.79,1785101139879.1511
0.063,-0.922,-0.321,-8.67,4.43,-5.01,1785101139889.672
0.07,-0.938,-0.329,-7.45,2.47,-4.61,1785101139899.9119
0.059,-0.944,-0.314,-6.01,1.43,-5.34,1785101139910.2212
0.053,-0.911,-0.291,-5.65,0.0,-4.43,1785101139923.694
0.062,-0.877,-0.269,-6.99,-2.81,-2.08,1785101139929.0781
0.077,-0.902,-0.248,-6.26,-5.25,-1.4,1785101139939.242
0.083,-0.954,-0.249,-2.72,-6.62,-3.6,1785101139949.623
0.089,-0.989,-0.267,1.31,-7.87,-6.38,1785101139960.198
0.098,-1.032,-0.275,5.58,-7.72,-7.51,1785101139973.461
0.099,-1.034,-0.325,9.03,-7.51,-7.9,1785101139978.932
0.094,-0.982,-0.382,9.4,-6.93,-5.1,1785101139988.966
0.104,-0.936,-0.394,7.45,-5.55,0.4,1785101139999.297
0.126,-0.907,-0.388,4.94,-3.39,3.6,1785101140009.6929
0.126,-0.907,-0.375,0.67,-2.29,3.33,1785101140020.274
0.116,-0.919,-0.346,-9.25,-3.33,0.98,1785101140033.356
0.121,-0.955,-0.314,-19.01,-3.88,-2.14,1785101140039.088
0.117,-0.984,-0.308,-20.54,-2.87,-5.22,1785101140049.585
0.109,-0.974,-0.317,-13.43,-0.61,-4.49,1785101140059.6611
0.109,-0.934,-0.318,-3.72,0.92,0.0,1785101140070.0579
0.118,-0.926,-0.328,4.3,1.22,3.78,1785101140083.355
0.111,-0.932,-0.337,5.95,1.01,3.51,1785101140089.026
0.102,-0.942,-0.333,3.05,1.53,2.44,1785101140098.9639
0.098,-0.936,-0.336,-0.67,1.92,2.84,1785101140109.365
0.102,-0.913,-0.35,-2.66,2.01,4.7,1785101140119.663
0.12,-0.918,-0.38,-2.78,2.04,7.02,1785101140130.095
0.122,-0.939,-0.41,-4.58,1.43,6.87,1785101140143.405
0.118,-0.943,-0.414,-8.58,0.76,6.2,1785101140148.976
0.117,-0.962,-0.406,-9.95,0.92,5.31,1785101140159.173
0.111,-0.977,-0.392,-8.76,1.4,3.14,1785101140169.3562
0.107,-0.992,-0.381,-6.07,2.44,1.25,1785101140179.742
0.097,-1.013,-0.366,-1.83,3.42,-0.15,1785101140190.1519
0.073,-1.012,-0.351,3.39,4.18,-0.73,1785101140203.375
0.054,-0.985,-0.353,9.19,4.64,0.61,1785101140209.025
