ax,ay,az,gx,gy,gz,timestamp_ms
0.069,-0.881,-0.475,-0.21,-6.04,1.86,1785101179237.927
0.067,-0.897,-0.492,6.62,-3.57,2.62,1785101179278.7688
0.069,-0.888,-0.497,11.23,-2.32,3.17,1785101179279.0588
0.071,-0.868,-0.491,11.11,-1.53,3.69,1785101179279.337
0.064,-0.881,-0.495,10.1,-0.67,2.9,1785101179279.604
0.045,-0.897,-0.475,6.81,-0.37,1.46,1785101179279.8718
0.048,-0.898,-0.435,1.19,-0.95,1.56,1785101179280.125
0.062,-0.903,-0.437,-2.66,-1.37,2.26,1785101179280.3828
0.076,-0.921,-0.451,-3.05,-0.73,3.33,1785101179280.648
0.08,-0.926,-0.47,0.49,0.76,3.91,1785101179280.979
0.088,-0.91,-0.48,4.73,2.01,5.07,1785101179281.2468
0.09,-0.9,-0.472,6.53,2.59,5.89,1785101179281.517
0.093,-0.9,-0.466,3.66,2.44,5.46,1785101179281.782
0.083,-0.904,-0.467,-0.85,2.5,4.73,1785101179282.0388
0.08,-0.899,-0.458,-4.55,2.72,4.82,1785101179282.303
0.088,-0.904,-0.455,-5.46,3.6,5.4,1785101179282.5742
0.081,-0.879,-0.465,-5.89,4.85,5.95,1785101179282.848
0.094,-0.86,-0.472,-7.29,5.52,7.81,1785101179283.097
0.104,-0.898,-0.489,-8.0,6.26,6.35,1785101179283.36
0.089,-0.932,-0.506,-10.74,6.07,2.23,1785101179283.629
0.07,-0.929,-0.503,-14.8,4.67,1.1,1785101179283.8972
0.067,-0.934,-0.488,-16.27,3.36,3.27,1785101179284.185
0.071,-0.941,-0.475,-14.71,3.05,5.07,1785101179284.469
0.068,-0.939,-0.46,-10.9,3.33,5.4,1785101179284.7249
0.064,-0.93,-0.45,-6.38,3.33,5.31,1785101179285.003
0.06,-0.928,-0.447,-2.78,2.99,4.76,1785101179285.32
0.063,-0.899,-0.448,-2.23,2.01,4.52,1785101179285.609
0.063,-0.899,-0.448,-1.5,1.46,5.16,1785101179285.9001
0.074,-0.899,-0.455,-1.92,0.95,4.55,1785101179286.1838
0.067,-0.886,-0.459,-2.41,0.27,3.97,1785101179286.467
0.061,-0.874,-0.459,-3.23,-0.12,2.41,1785101179286.763
0.06,-0.896,-0.46,-5.55,-0.46,-0.34,1785101179287.0322
0.048,-0.908,-0.447,-5.55,-0.46,-0.34,1785101179287.267
0.044,-0.909,-0.438,-7.11,-1.1,-1.83,1785101179287.518
0.047,-0.909,-0.443,-6.2,-1.68,-2.26,1785101179287.742
0.048,-0.914,-0.446,-3.97,-1.83,-2.47,1785101179287.977
0.045,-0.91,-0.449,-1.8,-1.71,-2.56,1785101179288.209
0.044,-0.901,-0.466,0.43,-1.43,-2.56,1785101179288.436
0.044,-0.893,-0.478,2.04,-0.7,-2.72,1785101179288.665
0.043,-0.89,-0.48,2.66,-0.18,-3.36,1785101179288.9202
0.041,-0.89,-0.477,1.74,0.4,-4.33,1785101179289.158
0.033,-0.886,-0.476,0.61,0.64,-5.07,1785101179289.427
0.03,-0.869,-0.472,0.0,1.13,-4.43,1785101179289.7139
0.031,-0.861,-0.474,2.01,1.53,-3.66,1785101179289.9893
0.036,-0.841,-0.476,2.99,1.53,-4.03,1785101179290.2532
0.039,-0.84,-0.472,4.0,1.77,-4.49,1785101179290.5269
0.04,-0.867,-0.472,6.32,1.68,-5.28,1785101179290.8079
0.041,-0.879,-0.477,7.26,1.16,-6.44,1785101179291.054
0.031,-0.867,-0.477,6.53,0.31,-5.65,1785101179291.29
0.035,-0.854,-0.472,6.96,-0.27,-2.47,1785101179291.531
0.036,-0.849,-0.459,9.55,0.12,0.4,1785101179291.7703
0.033,-0.845,-0.461,12.54,0.49,1.25,1785101179292.001
0.032,-0.839,-0.465,11.54,-0.46,1.74,1785101179292.244
0.033,-0.835,-0.442,4.64,-2.69,2.2,1785101179292.479
0.044,-0.851,-0.432,-1.68,-4.55,2.2,1785101179292.703
0.042,-0.878,-0.446,-2.2,-5.16,1.01,1785101179292.9238
0.043,-0.899,-0.461,-0.34,-5.04,0.98,1785101179293.142
0.046,-0.908,-0.482,0.49,-5.34,2.59,1785101179293.3608
0.027,-0.885,-0.519,0.64,-5.8,4.73,1785101179293.5833
0.039,-0.868,-0.53,1.77,-4.49,7.69,1785101179293.8062
0.051,-0.898,-0.491,4.24,-1.71,7.57,1785101179294.029
0.043,-0.889,-0.47,3.69,0.15,4.97,1785101179294.2378
0.048,-0.89,-0.452,0.43,0.67,5.1,1785101179294.451
0.054,-0.915,-0.444,0.12,1.86,4.88,1785101179294.6628
0.045,-0.911,-0.443,3.66,3.27,4.46,1785101179294.873
0.052,-0.873,-0.443,2.44,2.5,5.98,1785101179295.0898
0.068,-0.87,-0.457,0.15,1.71,7.6,1785101179295.316
0.073,-0.884,-0.449,0.98,2.11,7.2,1785101179295.5278
0.075,-0.892,-0.461,3.69,3.48,6.81,1785101179295.758
0.076,-0.907,-0.454,6.32,5.07,7.26,1785101179295.9832
0.077,-0.924,-0.446,7.39,6.23,6.35,1785101179296.208
0.075,-0.935,-0.453,6.38,6.78,5.22,1785101179296.418
0.072,-0.93,-0.462,4.79,6.81,5.43,1785101179296.663
0.077,-0.899,-0.459,3.11,6.99,6.38,1785101179296.8801
0.079,-0.866,-0.448,2.96,7.29,7.57,1785101179297.0938
0.087,-0.884,-0.443,5.25,7.93,7.78,1785101179297.3171
0.083,-0.92,-0.437,6.62,8.27,5.34,1785101179297.545
0.071,-0.922,-0.423,5.71,7.57,2.9,1785101179297.7578
0.077,-0.928,-0.421,6.26,7.42,2.78,1785101179297.985
0.081,-0.945,-0.439,7.97,8.45,2.01,1785101179298.217
0.077,-0.945,-0.448,7.81,9.03,0.7,1785101179298.444
0.078,-0.951,-0.467,5.31,8.85,-0.06,1785101179298.6519
0.076,-0.967,-0.473,1.37,8.3,-0.52,1785101179298.86
0.067,-0.967,-0.466,-2.87,6.78,-1.1,1785101179299.071
0.069,-0.969,-0.469,-5.16,5.68,-1.22,1785101179299.273
0.064,-0.959,-0.475,-7.17,5.04,-0.92,1785101179299.4822
0.059,-0.923,-0.468,-9.52,4.24,1.07,1785101179299.7
0.061,-0.898,-0.45,-9.67,3.17,3.17,1785101179299.904
0.066,-0.901,-0.442,-7.63,2.23,2.72,1785101179300.119
0.063,-0.926,-0.435,-4.97,1.56,0.15,1785101179300.3298
0.055,-0.94,-0.432,-3.42,0.64,-2.38,1785101179300.533
0.049,-0.958,-0.439,-2.26,-0.4,-3.88,1785101179300.74
0.039,-0.947,-0.438,-3.6,-1.59,-4.61,1785101179300.952
0.033,-0.935,-0.428,-5.68,-2.96,-4.18,1785101179301.162
0.021,-0.927,-0.422,-7.97,-4.18,-3.91,1785101179301.37
0.019,-0.901,-0.433,-10.47,-4.79,-4.36,1785101179301.5781
0.026,-0.882,-0.438,-9.83,-4.82,-4.24,1785101179301.7832
0.037,-0.893,-0.453,-6.41,-4.55,-4.58,1785101179301.983
0.035,-0.902,-0.454,-4.73,-4.33,-6.41,1785101179302.1929
0.027,-0.904,-0.453,-5.04,-4.33,-8.06,1785101179302.4001
0.024,-0.891,-0.45,-5.52,-4.52,-8.42,1785101179302.5989
0.023,-0.875,-0.449,-3.63,-4.36,-7.75,1785101179302.806
0.027,-0.877,-0.456,-1.04,-4.12,-7.72,1785101179303.0168
0.024,-0.859,-0.469,-1.31,-4.12,-8.27,1785101179303.2231
0.015,-0.832,-0.466,-1.25,-3.51,-6.35,1785101179303.446
0.028,-0.837,-0.47,0.55,-2.75,-4.61,1785101179303.659
0.032,-0.854,-0.478,1.65,-2.38,-5.65,1785101179303.894
0.033,-0.866,-0.475,1.65,-2.2,-7.05,1785101179304.0938
0.031,-0.867,-0.479,2.23,-2.23,-7.6,1785101179304.299
0.029,-0.856,-0.488,3.78,-2.35,-6.32,1785101179304.501
0.032,-0.857,-0.488,5.55,-2.14,-4.27,1785101179304.696
0.032,-0.856,-0.488,6.65,-1.8,-3.2,1785101179304.899
0.032,-0.841,-0.483,6.93,-1.16,-1.83,1785101179305.099
0.039,-0.82,-0.494,6.65,-1.19,-0.27,1785101179305.3162
0.041,-0.84,-0.472,5.68,-0.64,0.12,1785101179305.545
0.037,-0.828,-0.449,0.95,-1.89,-0.46,1785101179305.79
0.043,-0.852,-0.424,-2.69,-2.04,-0.09,1785101179306.1042
0.034,-0.858,-0.414,-4.7,-2.93,0.0,1785101179306.3208
0.035,-0.867,-0.418,-2.26,-2.93,1.25,1785101179306.5269
0.035,-0.871,-0.428,1.86,-2.81,2.84,1785101179306.725
0.044,-0.866,-0.448,4.21,-3.54,5.28,1785101179306.915
0.055,-0.854,-0.468,5.62,-2.69,7.11,1785101179307.1208
0.064,-0.859,-0.473,5.74,-1.65,7.42,1785101179307.322
0.069,-0.878,-0.468,3.91,-0.4,6.59,1785101179307.5142
0.068,-0.876,-0.471,0.89,0.37,6.47,1785101179307.7178
0.068,-0.877,-0.486,-0.58,0.49,7.29,1785101179307.921
0.067,-0.884,-0.484,-0.21,1.56,8.39,1785101179308.117
0.072,-0.876,-0.478,-0.58,2.29,9.37,1785101179308.306
0.069,-0.882,-0.472,-1.71,2.93,9.77,1785101179308.5
0.074,-0.895,-0.457,-4.0,2.78,9.13,1785101179308.703
0.08,-0.925,-0.455,-4.88,3.02,7.66,1785101179308.8948
0.073,-0.926,-0.455,-4.88,3.17,7.02,1785101179309.091
0.085,-0.929,-0.456,-3.63,3.48,8.03,1785101179309.302
0.083,-0.944,-0.465,-0.27,3.91,8.45,1785101179309.5142
0.083,-0.952,-0.465,2.99,4.27,8.88,1785101179309.708
0.081,-0.943,-0.478,5.52,4.61,8.85,1785101179309.907
0.082,-0.936,-0.495,7.05,4.76,8.76,1785101179310.0989
0.084,-0.938,-0.482,6.99,5.43,8.73,1785101179310.294
0.082,-0.949,-0.471,6.78,6.38,7.81,1785101179310.497
0.066,-0.927,-0.467,5.68,7.17,7.05,1785101179310.694
0.058,-0.891,-0.452,3.85,7.75,7.66,1785101179310.883
0.065,-0.899,-0.432,4.09,8.27,7.32,1785101179311.081
0.085,-0.954,-0.423,6.13,10.01,3.05,1785101179311.282
0.076,-0.99,-0.427,8.64,12.21,-1.95,1785101179311.4739
0.061,-0.977,-0.436,9.55,12.36,-2.69,1785101179311.6748
0.072,-0.966,-0.459,8.15,10.9,-1.65,1785101179311.877
0.077,-0.952,-0.478,2.99,8.91,-1.74,1785101179312.0708
0.073,-0.935,-0.482,-3.51,7.48,-1.89,1785101179312.269
0.064,-0.928,-0.475,-7.02,6.81,-1.34,1785101179312.4658
0.062,-0.92,-0.468,-7.11,5.89,-0.37,1785101179312.673
0.059,-0.92,-0.455,-3.88,5.58,-0.06,1785101179312.855
0.06,-0.943,-0.445,0.82,5.43,-0.46,1785101179313.048
0.044,-0.943,-0.437,4.61,5.22,-2.35,1785101179313.241
0.034,-0.919,-0.428,6.71,4.67,-3.2,1785101179313.4248
0.029,-0.894,-0.426,7.26,3.81,-3.27,1785101179313.614
0.033,-0.889,-0.426,6.87,3.3,-3.66,1785101179313.8052
0.033,-0.889,-0.426,3.42,2.44,-5.22,1785101179313.984
0.026,-0.883,-0.42,-0.34,1.19,-5.62,1785101179314.177
0.028,-0.885,-0.412,-1.86,0.18,-5.65,1785101179314.369
0.029,-0.899,-0.413,-1.92,-0.15,-5.71,1785101179314.5542
0.021,-0.887,-0.417,-1.92,-0.15,-5.71,1785101179314.745
0.023,-0.863,-0.421,-1.01,-0.52,-4.55,1785101179314.9387
0.024,-0.847,-0.424,-0.06,-1.04,-3.27,1785101179315.126
0.027,-0.851,-0.422,-0.49,-1.59,-3.11,1785101179315.3123
0.032,-0.87,-0.42,-1.5,-2.08,-4.27,1785101179315.5068
0.023,-0.866,-0.422,-1.04,-2.32,-5.4,1785101179315.701
0.024,-0.856,-0.424,1.34,-1.8,-4.33,1785101179315.882
0.028,-0.862,-0.428,3.63,-1.22,-3.69,1785101179316.083
0.024,-0.863,-0.428,3.85,-1.16,-4.0,1785101179316.275
0.026,-0.867,-0.423,4.24,-0.85,-3.81,1785101179316.4548
0.03,-0.865,-0.431,5.77,-0.46,-3.54,1785101179316.6357
0.03,-0.836,-0.44,6.96,-0.03,-2.47,1785101179316.812
0.039,-0.835,-0.452,9.55,0.34,-0.67,1785101179316.99
0.052,-0.858,-0.439,6.96,-1.28,0.06,1785101179317.538
0.05,-0.849,-0.426,4.06,-1.92,1.43,1785101179317.7139
-0.208,-1.014,-0.769,50.9,2.2,-36.96,1785101179317.893
-0.265,-1.004,-0.778,47.52,1.56,-49.99,1785101179318.0798
-0.316,-0.991,-0.752,40.28,0.55,-62.62,1785101179318.256
-0.324,-0.968,-0.722,35.0,-1.95,-75.87,1785101179320.1877
-0.273,-0.93,-0.679,32.38,-4.94,-87.34,1785101179330.7952
-0.227,-0.884,-0.65,28.9,-9.0,-98.45,1785101179344.002
-0.223,-0.835,-0.647,20.51,-13.73,-109.65,1785101179349.6902
-0.23,-0.811,-0.658,9.52,-16.57,-118.17,1785101179360.48
-0.232,-0.817,-0.668,0.21,-17.24,-124.85,1785101179373.738
-0.237,-0.829,-0.647,-4.91,-16.69,-130.31,1785101179379.372
-0.221,-0.825,-0.631,-3.97,-17.15,-132.24,1785101179390.196
-0.158,-0.796,-0.605,2.41,-18.31,-129.8,1785101179403.441
-0.158,-0.796,-0.605,12.73,-21.03,-124.67,1785101179409.176
-0.074,-0.746,-0.572,22.22,-25.88,-118.26,1785101179420.0608
-0.003,-0.671,-0.554,26.67,-31.04,-111.09,1785101179430.8213
0.035,-0.574,-0.544,27.65,-35.0,-104.07,1785101179444.133
0.076,-0.519,-0.556,26.76,-37.51,-100.5,1785101179449.889
0.115,-0.522,-0.585,26.76,-37.51,-100.5,1785101179460.783
0.154,-0.53,-0.602,22.43,-39.92,-99.0,1785101179474.426
0.211,-0.527,-0.598,15.75,-42.3,-96.47,1785101179479.819
0.261,-0.536,-0.569,10.44,-45.96,-92.68,1785101179490.752
0.307,-0.554,-0.571,7.63,-51.06,-88.5,1785101179503.832
0.317,-0.516,-0.556,2.23,-57.07,-83.19,1785101179509.628
0.331,-0.45,-0.563,-5.31,-63.05,-74.68,1785101179520.177
0.355,-0.429,-0.579,-10.8,-66.56,-66.59,1785101179530.88
0.368,-0.451,-0.599,-12.79,-68.18,-62.38,1785101179544.1667
0.36,-0.48,-0.642,-10.83,-67.75,-59.97,1785101179550.017
0.367,-0.481,-0.67,-6.68,-65.98,-56.25,1785101179560.459
0.382,-0.466,-0.684,-0.37,-64.42,-51.15,1785101179571.003
0.395,-0.443,-0.698,6.68,-63.6,-44.65,1785101179584.0588
0.398,-0.423,-0.71,12.76,-63.26,-37.42,1785101179590.5862
0.398,-0.417,-0.704,16.69,-62.87,-30.79,1785101179600.5981
0.385,-0.427,-0.682,20.02,-62.38,-25.7,1785101179613.8281
0.343,-0.407,-0.678,23.71,-63.17,-21.91,1785101179619.8179
0.441,-0.455,-0.857,37.75,-56.76,-16.82,1785101179630.351
0.545,-0.648,-1.078,59.72,-36.87,-22.83,1785101179641.07
0.489,-0.696,-1.177,65.22,-20.17,-32.01,1785101179654.198
0.434,-0.599,-1.075,66.59,-9.77,-21.55,1785101179660.236
0.431,-0.591,-1.04,76.3,-6.32,-4.91,1785101179670.3843
0.372,-0.552,-1.033,65.92,-2.44,1.43,1785101179680.927
0.326,-0.477,-0.95,33.27,-0.43,5.74,1785101179694.24
0.354,-0.461,-0.885,-6.93,-0.37,5.68,1785101179699.8022
0.435,-0.488,-0.88,-43.21,1.8,-1.71,1785101179709.9731
0.456,-0.64,-0.944,-52.71,11.87,-10.44,1785101179720.628
0.382,-0.66,-0.721,-43.46,14.86,-12.57,1785101179733.867
0.401,-0.68,-0.652,-14.37,7.97,-8.36,1785101179740.2493
0.431,-0.741,-0.65,19.93,6.01,-5.16,1785101179749.9412
0.433,-0.713,-0.693,47.03,3.54,-2.9,1785101179760.47
0.444,-0.616,-0.798,64.79,4.0,1.98,1785101179770.883
0.469,-0.511,-0.846,68.94,5.71,7.78,1785101179784.091
0.501,-0.444,-0.851,57.56,5.65,11.44,1785101179790.229
0.516,-0.441,-0.827,37.39,6.23,12.94,1785101179800.22
0.5,-0.498,-0.809,17.7,7.26,13.18,1785101179810.817
0.471,-0.578,-0.812,2.41,7.81,12.67,1785101179824.201
0.441,-0.646,-0.799,-8.82,8.18,12.27,1785101179829.8572
0.424,-0.69,-0.79,-15.26,8.58,12.45,1785101179840.328
0.419,-0.696,-0.773,-17.21,9.7,13.95,1785101179850.598
0.416,-0.663,-0.754,-17.52,9.34,17.37,1785101179863.986
0.43,-0.596,-0.755,-20.81,7.9,20.78,1785101179869.7861
0.435,-0.547,-0.73,-26.46,6.78,22.4,1785101179880.0928
0.427,-0.539,-0.717,-29.63,6.32,21.64,1785101179891.0378
0.406,-0.587,-0.715,-28.78,7.26,19.78,1785101179903.931
0.369,-0.681,-0.709,-25.39,8.76,17.21,1785101179909.832
0.317,-0.747,-0.704,-20.51,9.89,13.79,1785101179920.135
0.28,-0.775,-0.693,-10.9,11.11,12.82,1785101179930.7607
0.264,-0.781,-0.701,3.63,11.87,14.5,1785101179944.19
0.271,-0.774,-0.717,20.45,13.37,18.28,1785101179949.685
0.271,-0.742,-0.725,36.13,16.36,21.15,1785101179960.3013
0.265,-0.708,-0.722,48.01,19.41,22.58,1785101179971.067
0.261,-0.715,-0.716,55.12,22.43,22.49,1785101179984.268
0.241,-0.751,-0.711,55.82,24.99,20.14,1785101179990.565
0.216,-0.773,-0.685,51.33,27.56,15.99,1785101180000.716
0.192,-0.781,-0.667,45.35,29.85,12.57,1785101180013.968
0.197,-0.789,-0.66,39.4,31.31,10.28,1785101180019.897
0.199,-0.773,-0.646,33.91,33.45,7.42,1785101180030.309
0.221,-0.781,-0.632,30.85,35.43,5.68,1785101180041.049
0.241,-0.794,-0.626,28.47,35.37,3.6,1785101180054.2532
0.248,-0.78,-0.619,26.86,35.1,1.83,1785101180059.8818
0.252,-0.754,-0.603,27.34,35.19,2.66,1785101180070.6401
0.268,-0.742,-0.582,29.15,35.19,4.06,1785101180080.9478
0.277,-0.761,-0.563,32.26,35.07,3.91,1785101180094.155
0.275,-0.794,-0.537,36.77,34.18,3.08,1785101180100.039
0.265,-0.81,-0.508,42.27,32.53,1.98,1785101180110.354
0.256,-0.804,-0.486,47.91,30.3,1.83,1785101180120.893
0.265,-0.786,-0.487,51.52,27.28,2.29,1785101180134.098
0.279,-0.767,-0.489,51.64,23.9,2.47,1785101180140.3289
0.286,-0.752,-0.49,48.37,20.72,2.32,1785101180150.364
0.291,-0.751,-0.497,42.7,17.91,1.83,1785101180160.949
0.292,-0.766,-0.494,35.8,15.14,0.55,1785101180174.309
0.287,-0.776,-0.482,28.47,12.36,-0.85,1785101180180.66
0.282,-0.772,-0.473,21.39,9.61,-1.01,1785101180190.332
0.293,-0.769,-0.469,15.32,7.35,-0.76,1785101180200.6882
0.305,-0.783,-0.477,11.57,6.07,-1.25,1785101180213.923
0.302,-0.788,-0.478,8.51,5.31,-2.66,1785101180219.73
0.294,-0.77,-0.481,6.26,3.6,-2.41,1785101180229.513
0.297,-0.757,-0.499,5.68,2.56,0.03,1785101180240.261
0.3,-0.763,-0.492,6.13,2.38,1.62,1785101180250.637
0.309,-0.775,-0.488,7.57,2.04,0.58,1785101180260.943
0.31,-0.787,-0.48,10.38,2.26,-1.04,1785101180274.373
0.313,-0.793,-0.475,14.07,1.62,-2.01,1785101180280.0132
0.325,-0.802,-0.478,17.94,0.85,-2.04,1785101180290.156
0.335,-0.792,-0.472,21.12,0.12,-1.53,1785101180300.478
0.348,-0.772,-0.477,24.32,-0.67,0.03,1785101180311.054
0.368,-0.762,-0.49,29.11,-1.37,1.74,1785101180324.231
0.385,-0.756,-0.517,32.69,-2.81,2.9,1785101180330.056
0.406,-0.749,-0.531,32.81,-3.14,3.88,1785101180340.3389
0.417,-0.749,-0.506,31.95,-2.04,3.91,1785101180350.593
0.424,-0.773,-0.494,32.5,-1.62,2.99,1785101180363.969
0.426,-0.803,-0.487,32.56,-2.23,2.81,1785101180369.7422
0.426,-0.828,-0.474,31.71,-3.33,2.87,1785101180379.936
0.417,-0.841,-0.468,29.88,-4.91,2.81,1785101180390.497
0.41,-0.824,-0.469,25.97,-7.42,3.17,1785101180400.7039
0.41,-0.822,-0.474,21.97,-9.7,3.72,1785101180413.9788
0.406,-0.823,-0.494,16.66,-12.18,3.88,1785101180420.086
0.407,-0.801,-0.521,9.52,-14.47,5.28,1785101180430.1199
0.436,-0.783,-0.515,5.28,-14.74,8.0,1785101180440.5178
0.46,-0.841,-0.512,11.32,-12.76,7.75,1785101180451.005
0.459,-0.91,-0.51,20.6,-10.74,3.48,1785101180464.268
0.444,-0.96,-0.488,28.84,-9.86,-1.56,1785101180470.281
0.424,-0.975,-0.454,36.23,-9.98,-4.43,1785101180480.064
0.424,-0.963,-0.421,43.06,-10.28,-3.54,1785101180491.03
0.42,-0.948,-0.391,49.53,-10.86,-1.13,1785101180504.19
0.412,-0.897,-0.361,52.92,-12.48,1.89,1785101180510.2
0.409,-0.842,-0.345,56.06,-14.5,5.71,1785101180520.068
0.406,-0.833,-0.353,62.53,-15.41,9.09,1785101180530.6292
0.395,-0.821,-0.347,66.62,-16.69,12.09,1785101180544.18
0.38,-0.799,-0.338,68.73,-19.26,14.74,1785101180550.291
0.376,-0.814,-0.349,68.12,-22.0,16.88,1785101180560.611
0.36,-0.826,-0.342,58.44,-25.03,16.69,1785101180573.889
0.339,-0.838,-0.338,43.09,-28.38,16.02,1785101180579.7498
0.32,-0.866,-0.367,28.93,-30.24,15.23,1785101180590.391
0.301,-0.852,-0.382,17.15,-30.12,14.37,1785101180600.877
0.293,-0.859,-0.382,11.32,-29.05,14.13,1785101180614.16
0.271,-0.878,-0.385,7.75,-29.36,13.0,1785101180620.065
0.26,-0.88,-0.374,3.48,-30.37,13.25,1785101180630.404
0.243,-0.89,-0.361,1.19,-30.43,14.44,1785101180641.039
0.233,-0.898,-0.352,2.99,-29.73,15.81,1785101180654.238
0.218,-0.918,-0.36,9.55,-27.92,16.02,1785101180660.3643
0.195,-0.914,-0.375,16.24,-26.61,16.24,1785101180670.681
0.181,-0.896,-0.38,20.26,-25.97,18.31,1785101180684.61
0.181,-0.896,-0.38,22.19,-25.7,21.0,1785101180690.013
0.169,-0.875,-0.381,24.51,-25.39,22.74,1785101180700.246
0.165,-0.87,-0.373,29.48,-24.35,21.64,1785101180710.8918
0.158,-0.902,-0.377,34.0,-23.22,19.47,1785101180724.172
0.132,-0.916,-0.387,35.46,-22.86,19.47,1785101180730.2021
0.112,-0.894,-0.397,35.46,-22.86,19.47,1785101180740.672
0.11,-0.887,-0.4,35.65,-22.0,20.87,1785101180756.282
0.102,-0.905,-0.398,34.42,-21.06,20.42,1785101180759.371
0.081,-0.922,-0.381,31.07,-18.95,17.98,1785101180769.999
0.063,-0.911,-0.368,25.79,-17.82,16.63,1785101180780.79
0.046,-0.916,-0.343,19.71,-18.16,15.66,1785101180794.229
0.031,-0.924,-0.297,13.92,-18.19,13.37,1785101180800.1877
0.04,-0.952,-0.229,12.63,-16.85,11.35,1785101180810.5159
0.041,-0.982,-0.204,17.4,-15.35,9.0,1785101180824.022
0.046,-1.001,-0.203,25.91,-14.44,8.39,1785101180829.8298
0.068,-0.986,-0.222,33.94,-15.02,9.13,1785101180840.141
0.094,-0.962,-0.242,40.44,-14.95,11.29,1785101180850.843
0.118,-0.936,-0.305,47.7,-12.76,13.21,1785101180864.038
0.127,-0.916,-0.312,53.1,-9.37,14.4,1785101180869.929
0.137,-0.898,-0.306,50.9,-9.49,14.25,1785101180880.2822
0.151,-0.929,-0.322,42.82,-10.28,11.84,1785101180891.0022
0.15,-0.958,-0.349,29.85,-10.19,7.51,1785101180903.9978
0.146,-0.95,-0.362,15.05,-9.46,4.91,1785101180910.175
0.15,-0.945,-0.351,4.33,-7.29,6.23,1785101180920.0671
0.162,-0.966,-0.317,-1.4,-4.7,7.6,1785101180930.42
0.167,-1.022,-0.296,-3.72,-3.08,5.92,1785101180940.792
0.155,-1.04,-0.307,-5.95,-2.01,3.39,1785101180954.362
0.15,-1.008,-0.312,-7.97,-0.61,3.91,1785101180959.924
0.16,-1.005,-0.333,-7.51,1.01,5.04,1785101180969.919
0.165,-1.008,-0.359,-9.95,1.89,4.76,1785101180980.196
0.164,-1.011,-0.365,-14.95,1.25,5.8,1785101180990.693
0.177,-1.013,-0.368,-20.05,-0.79,6.29,1785101181003.99
0.181,-1.009,-0.382,-22.55,-1.77,5.55,1785101181009.836
0.184,-1.01,-0.39,-21.03,-1.31,5.46,1785101181019.98
0.181,-1.024,-0.386,-16.17,-0.61,5.07,1785101181030.3801
0.181,-1.047,-0.386,-11.32,-0.34,3.45,1785101181040.8389
0.174,-1.05,-0.381,-9.64,0.0,0.82,1785101181054.027
0.157,-1.038,-0.373,-11.51,0.15,-1.19,1785101181059.829
0.142,-1.012,-0.355,-14.5,0.46,-1.56,1785101181069.913
0.146,-1.014,-0.34,-14.71,1.25,-1.65,1785101181080.354
0.141,-1.019,-0.341,-13.95,1.86,-3.69,1785101181091.2268
0.131,-0.991,-0.334,-14.71,2.01,-5.28,1785101181104.009
0.134,-0.969,-0.326,-14.1,2.59,-5.07,1785101181109.88
0.147,-0.988,-0.337,-10.59,3.02,-5.92,1785101181119.9639
0.139,-0.995,-0.344,-7.39,3.02,-8.88,1785101181130.2942
0.131,-0.985,-0.332,-4.88,2.99,-11.32,1785101181140.866
0.137,-0.959,-0.302,-3.02,3.3,-12.42,1785101181154.0488
0.147,-0.961,-0.285,-1.56,2.44,-13.31,1785101181160.032
0.15,-0.982,-0.277,-1.68,0.27,-15.38,1785101181170.046
0.145,-0.989,-0.27,-1.95,-1.56,-17.03,1785101181180.4841
0.141,-0.968,-0.267,-0.52,-2.14,-15.93,1785101181191.025
0.15,-0.946,-0.268,0.76,-3.11,-12.54,1785101181204.2097
0.163,-0.936,-0.297,0.31,-4.94,-9.55,1785101181210.2568
0.174,-0.922,-0.279,-0.37,-3.42,-6.62,1785101181219.9402
0.199,-0.923,-0.252,1.92,-1.43,-5.49,1785101181230.295
0.217,-0.928,-0.27,4.39,-0.67,-7.39,1785101181240.8298
0.208,-0.937,-0.281,1.8,-1.65,-8.45,1785101181253.9468
0.211,-0.912,-0.286,-7.39,-4.39,-7.63,1785101181259.9941
0.236,-0.916,-0.297,-12.57,-5.65,-6.16,1785101181269.805
0.237,-0.896,-0.318,-11.78,-5.01,-5.46,1785101181280.1777
0.243,-0.852,-0.33,-8.94,-4.24,-1.71,1785101181290.664
0.257,-0.835,-0.346,-6.71,-4.09,3.27,1785101181300.938
0.264,-0.863,-0.352,-7.14,-3.91,4.61,1785101181314.1802
0.257,-0.887,-0.365,-11.51,-3.85,2.44,1785101181319.911
0.258,-0.906,-0.368,-18.28,-3.05,1.16,1785101181330.205
0.255,-0.937,-0.353,-22.22,-1.19,0.98,1785101181340.5881
0.249,-0.972,-0.331,-20.87,1.37,1.59,1785101181350.956
0.237,-0.984,-0.338,-16.66,3.33,2.11,1785101181364.198
0.227,-0.962,-0.353,-14.5,4.06,3.91,1785101181370.103
0.23,-0.952,-0.362,-13.76,3.14,6.59,1785101181380.032
0.224,-0.927,-0.372,-15.41,1.71,7.75,1785101181391.067
0.21,-0.882,-0.369,-17.76,1.13,9.16,1785101181403.91
0.202,-0.855,-0.35,-17.67,0.7,11.26,1785101181409.8562
0.215,-0.903,-0.343,-14.89,0.61,10.07,1785101181420.043
0.2,-0.971,-0.34,-12.36,1.1,3.88,1785101181430.475
0.161,-0.98,-0.327,-9.98,1.4,-1.46,1785101181440.927
0.144,-0.967,-0.323,-5.89,0.92,-1.25,1785101181454.062
0.143,-0.937,-0.324,-1.77,-0.06,1.25,1785101181459.831
0.156,-0.942,-0.325,3.63,0.0,2.29,1785101181469.7312
0.155,-0.971,-0.332,6.9,0.52,-0.52,1785101181479.903
0.129,-0.943,-0.34,5.92,0.55,-4.27,1785101181490.425
0.121,-0.912,-0.337,5.8,1.62,-3.72,1785101181500.968
0.12,-0.89,-0.346,6.13,2.56,-2.66,1785101181514.2322
0.136,-0.889,-0.324,6.35,3.17,-2.23,1785101181519.801
0.146,-0.962,-0.315,9.95,3.54,-5.19,1785101181529.8638
0.137,-0.996,-0.302,12.33,3.17,-10.19,1785101181540.563
0.135,-0.99,-0.297,15.53,1.68,-12.02,1785101181550.9917
0.139,-0.954,-0.32,18.59,0.67,-9.95,1785101181564.286
0.143,-0.868,-0.353,17.06,-0.09,-6.2,1785101181570.25
0.156,-0.825,-0.371,14.56,0.24,-1.19,1785101181580.1667
0.166,-0.842,-0.376,10.71,0.43,0.89,1785101181590.7131
0.16,-0.87,-0.367,3.6,-0.67,-0.7,1785101181600.96
0.151,-0.898,-0.334,-4.06,-2.23,-2.35,1785101181614.2249
0.145,-0.9,-0.302,-11.14,-4.18,-3.08,1785101181620.1448
0.14,-0.898,-0.272,-17.58,-7.26,-2.04,1785101181630.281
0.139,-0.914,-0.259,-21.79,-11.08,-0.73,1785101181640.83
0.148,-0.946,-0.258,-20.66,-12.63,-0.89,1785101181653.9058
0.148,-0.962,-0.272,-17.82,-13.7,-1.25,1785101181659.831
0.157,-0.945,-0.317,-15.26,-14.62,-0.24,1785101181670.1172
0.164,-0.929,-0.38,-10.96,-14.13,2.32,1785101181680.6829
0.175,-0.899,-0.402,-4.36,-10.74,5.62,1785101181693.957
0.185,-0.869,-0.383,0.82,-7.81,8.42,1785101181699.6118
0.198,-0.885,-0.369,1.1,-7.6,8.39,1785101181709.665
0.203,-0.952,-0.355,-3.69,-7.69,4.43,1785101181720.011
0.189,-0.967,-0.357,-9.86,-7.11,0.27,1785101181730.377
0.192,-0.954,-0.359,-11.47,-5.37,1.22,1785101181740.986
0.207,-0.942,-0.36,-7.97,-3.45,3.94,1785101181754.1758
0.203,-0.939,-0.359,-4.39,-2.47,4.79,1785101181759.959
0.191,-0.923,-0.356,-4.94,-2.9,5.1,1785101181769.9258
0.192,-0.921,-0.352,-7.69,-2.99,5.37,1785101181780.2188
0.199,-0.923,-0.359,-9.22,-2.29,4.82,1785101181790.742
0.208,-0.945,-0.376,-7.26,-1.31,3.45,1785101181800.927
0.204,-0.948,-0.404,-5.55,-1.13,2.17,1785101181814.199
0.203,-0.941,-0.421,-5.52,-1.13,3.72,1785101181819.8508
0.204,-0.948,-0.433,-6.01,-1.07,5.22,1785101181829.8882
0.2,-0.952,-0.435,-7.11,-1.1,4.82,1785101181840.332
0.193,-0.957,-0.433,-6.44,-0.37,3.72,1785101181850.657
0.183,-0.938,-0.432,-4.18,1.25,2.99,1785101181861.024
0.175,-0.923,-0.422,-0.24,3.42,3.05,1785101181874.868
0.176,-0.937,-0.415,3.75,4.88,2.66,1785101181879.8232
0.174,-0.961,-0.403,5.77,5.4,0.37,1785101181890.188
0.168,-0.978,-0.393,5.49,5.68,-2.62,1785101181900.32
0.166,-0.967,-0.396,3.63,5.55,-4.33,1785101181910.725
0.169,-0.954,-0.4,1.53,5.31,-4.76,1785101181924.5132
0.169,-0.938,-0.402,-0.79,5.31,-5.1,1785101181929.6738
0.172,-0.946,-0.393,-2.69,5.89,-5.1,1785101181939.7812
0.163,-0.948,-0.391,-4.58,6.35,-6.23,1785101181949.986
0.153,-0.916,-0.393,-6.93,6.84,-5.58,1785101181960.4102
0.157,-0.885,-0.382,-7.81,7.39,-3.36,1785101181970.7598
0.157,-0.885,-0.382,-4.21,7.63,-2.87,1785101181983.89
0.174,-0.899,-0.386,1.31,8.03,-5.28,1785101181989.665
0.174,-0.915,-0.395,7.26,8.06,-6.04,1785101181999.678
0.158,-0.904,-0.397,12.45,7.02,-3.94,1785101182009.961
0.159,-0.905,-0.397,14.53,5.68,-2.66,1785101182020.479
0.156,-0.916,-0.389,14.53,5.68,-2.66,1785101182033.9219
0.142,-0.879,-0.363,12.88,4.39,-1.71,1785101182039.8801
0.151,-0.851,-0.323,9.89,2.35,1.77,1785101182049.9683
0.155,-0.851,-0.264,6.01,-0.95,3.75,1785101182060.121
0.181,-0.9,-0.229,5.4,-2.47,2.38,1785101182070.465
0.177,-0.957,-0.258,10.41,-2.66,-1.74,1785101182080.998
0.166,-0.984,-0.274,12.91,-4.39,-3.17,1785101182094.322
0.175,-0.974,-0.308,11.6,-7.78,-1.16,1785101182100.2751
0.18,-0.93,-0.361,9.74,-9.83,2.96,1785101182110.2002
0.198,-0.856,-0.391,9.46,-8.0,8.79,1785101182120.4858
0.212,-0.839,-0.38,13.15,-4.67,12.45,1785101182131.0989
0.213,-0.85,-0.358,11.6,-4.3,10.5,1785101182144.938
0.21,-0.89,-0.355,2.53,-5.58,5.28,1785101182150.166
0.201,-0.945,-0.352,-8.7,-5.1,0.21,1785101182160.117
0.191,-0.971,-0.341,-13.55,-2.99,-1.43,1785101182170.891
0.196,-0.956,-0.333,-9.98,-0.79,1.43,1785101182180.99
0.192,-0.907,-0.326,-4.67,0.27,6.29,1785101182194.2908
0.181,-0.854,-0.317,-3.57,-0.15,10.1,1785101182199.927
0.185,-0.871,-0.326,-4.03,0.18,10.65,1785101182210.0889
0.19,-0.921,-0.341,-5.28,1.62,6.04,1785101182220.3782
0.178,-0.95,-0.341,-5.92,3.54,2.11,1785101182231.018
0.179,-0.979,-0.325,-2.69,5.16,2.44,1785101182244.102
0.185,-1.001,-0.334,2.29,5.74,2.66,1785101182249.707
0.176,-0.972,-0.361,5.25,5.55,3.54,1785101182259.783
0.172,-0.935,-0.38,5.95,5.31,7.23,1785101182270.117
0.176,-0.914,-0.385,4.33,5.01,9.83,1785101182280.552
0.178,-0.91,-0.387,2.69,4.76,8.76,1785101182291.168
0.176,-0.921,-0.381,2.23,5.19,6.2,1785101182304.1128
0.169,-0.948,-0.37,2.62,5.46,3.85,1785101182309.8381
0.162,-0.972,-0.36,4.61,5.52,2.41,1785101182319.824
0.15,-0.989,-0.354,7.81,5.4,1.77,1785101182330.194
0.13,-0.972,-0.348,9.95,4.91,1.53,1785101182340.6147
0.123,-0.957,-0.342,10.56,4.24,1.83,1785101182351.145
0.132,-0.954,-0.335,9.13,3.36,0.92,1785101182364.288
0.135,-0.952,-0.336,6.84,2.2,-1.16,1785101182369.945
0.133,-0.955,-0.344,5.1,1.56,-2.23,1785101182379.725
0.129,-0.96,-0.35,3.72,1.56,-2.99,1785101182390.6418
0.125,-0.961,-0.356,3.42,1.74,-3.91,1785101182400.7092
0.12,-0.941,-0.36,3.94,2.32,-4.39,1785101182413.975
0.129,-0.921,-0.352,4.15,3.17,-3.6,1785101182419.616
0.134,-0.924,-0.357,5.4,3.85,-3.91,1785101182429.6428
0.139,-0.921,-0.368,6.07,4.12,-4.73,1785101182440.248
0.135,-0.915,-0.375,7.26,3.91,-5.55,1785101182450.4167
0.133,-0.922,-0.355,8.76,4.0,-4.85,1785101182460.7942
0.129,-0.936,-0.332,10.38,3.23,-4.94,1785101182474.3381
0.126,-0.942,-0.311,10.38,1.8,-5.65,1785101182479.501
0.131,-0.947,-0.272,8.45,0.09,-5.37,1785101182490.033
0.132,-0.918,-0.257,4.76,-2.78,-4.76,1785101182500.324
0.15,-0.926,-0.243,1.92,-4.49,-3.6,1785101182510.678
0.162,-0.962,-0.233,-0.58,-6.78,-4.79,1785101182521.0571
0.166,-0.971,-0.239,-3.2,-9.64,-6.41,1785101182534.287
0.175,-0.963,-0.271,-4.06,-11.35,-5.71,1785101182540.217
0.184,-0.944,-0.316,-3.02,-12.12,-3.57,1785101182550.14
0.189,-0.924,-0.344,-1.83,-12.33,-1.19,1785101182560.638
0.199,-0.897,-0.349,-2.01,-11.72,0.34,1785101182571.0872
0.218,-0.913,-0.338,-2.56,-10.86,0.12,1785101182584.3892
0.224,-0.953,-0.349,-2.2,-9.37,-2.96,1785101182590.873
0.209,-0.94,-0.36,-3.75,-7.84,-4.79,1785101182600.0798
0.214,-0.915,-0.351,-5.31,-6.78,-2.44,1785101182610.484
0.215,-0.885,-0.344,-5.83,-5.4,0.34,1785101182620.8892
0.21,-0.864,-0.343,-6.44,-4.21,2.84,1785101182634.0999
0.209,-0.889,-0.343,-7.32,-4.03,3.63,1785101182639.931
0.219,-0.928,-0.352,-8.85,-3.27,1.13,1785101182649.907
0.216,-0.961,-0.356,-8.94,-1.74,-1.13,1785101182660.174
0.209,-0.977,-0.343,-6.29,-0.34,-0.24,1785101182670.519
0.214,-0.97,-0.351,-3.54,-0.43,1.95,1785101182680.918
0.222,-0.949,-0.383,-3.63,-0.76,4.33,1785101182694.249
0.227,-0.953,-0.398,-5.55,-0.85,6.5,1785101182699.798
0.213,-0.954,-0.408,-8.42,-1.37,6.65,1785101182710.04
0.195,-0.938,-0.408,-11.2,-1.68,6.9,1785101182720.316
0.198,-0.936,-0.405,-12.67,-1.28,7.08,1785101182730.7783
0.2,-0.944,-0.404,-13.31,-0.49,6.32,1785101182744.205
0.189,-0.945,-0.394,-12.45,0.06,5.31,1785101182749.949
0.18,-0.954,-0.381,-8.39,0.79,4.43,1785101182759.7383
0.168,-0.966,-0.375,-2.26,1.34,2.66,1785101182770.507
0.162,-0.98,-0.369,2.59,1.77,0.82,1785101182781.7988
0.154,-0.99,-0.36,3.91,1.37,-0.89,1785101182791.204
0.142,-0.977,-0.364,1.89,0.98,-2.01,1785101182804.1511
0.132,-0.932,-0.352,-1.59,0.43,-1.28,1785101182809.6772
0.141,-0.928,-0.344,-2.5,-0.18,-0.52,1785101182819.953
0.141,-0.925,-0.334,-2.44,-0.46,-2.2,1785101182830.459
0.146,-0.957,-0.328,-0.7,-0.52,-5.07,1785101182840.873
0.142,-0.978,-0.336,1.1,-0.58,-8.76,1785101182851.082
0.135,-0.971,-0.343,3.11,-0.49,-10.32,1785101182864.476
0.139,-0.94,-0.349,5.4,-0.37,-9.61,1785101182870.1272
0.145,-0.891,-0.362,7.29,-0.09,-7.57,1785101182879.8962
0.148,-0.852,-0.375,9.22,0.64,-5.34,1785101182891.0752
0.154,-0.85,-0.376,10.8,1.86,-3.97,1785101182900.954
0.154,-0.887,-0.379,11.05,2.93,-5.43,1785101182914.198
0.141,-0.902,-0.381,8.03,3.45,-7.93,1785101182919.934
0.143,-0.898,-0.377,4.43,3.63,-8.09,1785101182929.9797
0.149,-0.917,-0.37,2.87,3.54,-7.14,1785101182940.4778
0.152,-0.921,-0.366,1.25,3.05,-6.71,1785101182950.712
0.152,-0.89,-0.35,-1.1,2.14,-5.04,1785101182963.99
0.159,-0.875,-0.334,-1.59,1.5,-2.11,1785101182969.6318
0.156,-0.879,-0.325,-1.46,0.06,-1.37,1785101182979.684
0.15,-0.896,-0.297,-3.42,-2.04,-2.38,1785101182990.241
0.151,-0.913,-0.296,-5.4,-4.52,-4.15,1785101183000.407
0.153,-0.953,-0.292,-4.85,-5.19,-5.28,1785101183011.029
0.16,-0.972,-0.289,-4.43,-6.47,-5.49,1785101183024.107
0.167,-0.96,-0.316,-4.03,-8.55,-3.3,1785101183029.844
0.184,-0.947,-0.339,-4.3,-9.55,0.37,1785101183040.0
0.205,-0.932,-0.358,-1.16,-6.84,2.59,1785101183050.088
0.203,-0.923,-0.354,4.03,-3.94,3.6,1785101183060.535
0.205,-0.913,-0.349,4.85,-3.36,3.6,1785101183070.925
0.214,-0.945,-0.351,3.08,-3.42,2.14,1785101183084.1301
0.211,-0.978,-0.356,1.34,-3.08,-0.76,1785101183090.118
0.213,-0.984,-0.356,1.62,-1.83,-1.74,1785101183099.794
0.22,-0.957,-0.355,4.33,-0.67,0.95,1785101183110.2249
0.21,-0.917,-0.353,5.65,-0.79,5.52,1785101183120.419
0.19,-0.827,-0.336,-0.34,-2.47,11.14,1785101183131.327
0.199,-0.814,-0.34,-8.0,-3.45,14.86,1785101183144.351
0.207,-0.863,-0.381,-13.76,-3.3,10.56,1785101183150.272
0.203,-0.891,-0.368,-19.75,-2.5,5.77,1785101183160.346
0.204,-0.944,-0.336,-17.33,-1.01,6.29,1785101183170.785
0.199,-0.985,-0.356,-9.09,0.43,6.65,1785101183184.053
0.189,-0.938,-0.386,-4.61,1.19,7.42,1785101183189.9058
0.195,-0.899,-0.417,-1.01,1.43,11.29,1785101183199.761
0.208,-0.913,-0.433,2.23,1.04,13.86,1785101183210.113
0.202,-0.948,-0.44,2.47,0.95,12.76,1785101183220.606
0.183,-0.955,-0.425,-0.92,1.25,10.22,1785101183233.9893
0.181,-0.961,-0.401,-2.96,1.83,9.46,1785101183240.217
0.176,-0.985,-0.391,-1.53,2.29,8.97,1785101183249.8792
0.15,-0.945,-0.37,0.31,2.72,9.09,1785101183260.167
0.15,-0.945,-0.37,5.52,3.3,11.66,1785101183270.6042
0.154,-0.935,-0.346,10.96,3.66,10.9,1785101183283.9082
0.156,-0.951,-0.342,12.05,3.63,7.32,1785101183289.792
0.14,-0.943,-0.355,9.43,3.17,5.89,1785101183299.774
0.126,-0.919,-0.361,9.43,3.17,5.89,1785101183310.173
0.13,-0.923,-0.361,6.47,2.66,5.65,1785101183320.6191
0.132,-0.948,-0.362,3.72,2.81,3.57,1785101183330.871
0.128,-0.955,-0.369,0.15,3.11,0.92,1785101183344.3142
0.126,-0.952,-0.378,-2.5,3.39,-0.31,1785101183349.776
0.121,-0.928,-0.379,-4.33,3.97,-0.03,1785101183359.9097
0.131,-0.917,-0.378,-4.24,5.1,0.43,1785101183370.348
0.124,-0.908,-0.392,-2.87,5.55,-0.67,1785101183380.5662
0.119,-0.889,-0.409,-2.81,4.85,-0.76,1785101183391.016
0.116,-0.882,-0.402,-4.3,4.03,-0.18,1785101183404.284
0.112,-0.878,-0.367,-6.53,2.84,0.18,1785101183409.931
0.105,-0.854,-0.313,-10.22,0.34,0.98,1785101183419.963
0.118,-0.869,-0.244,-13.12,-2.87,1.95,1785101183430.6401
0.116,-0.915,-0.238,-9.95,-5.1,0.46,1785101183440.8928
0.117,-0.935,-0.241,-3.51,-5.86,-0.43,1785101183454.08
0.128,-0.961,-0.252,2.75,-7.9,-0.09,1785101183459.786
0.141,-1.001,-0.302,8.45,-8.39,0.03,1785101183469.722
0.137,-0.969,-0.385,11.81,-7.66,1.56,1785101183480.0051
0.146,-0.881,-0.408,11.14,-5.68,7.42,1785101183490.809
0.173,-0.844,-0.382,7.11,-5.22,12.24,1785101183504.055
0.19,-0.884,-0.356,0.73,-6.07,10.35,1785101183509.8738
0.185,-0.972,-0.346,-4.24,-5.52,3.85,1785101183519.867
0.157,-0.993,-0.359,-6.23,-4.3,-0.37,1785101183530.179
0.147,-0.908,-0.355,-6.26,-3.91,3.78,1785101183540.587
0.165,-0.825,-0.342,-4.73,-3.94,11.57,1785101183551.157
0.181,-0.83,-0.331,-3.63,-3.45,15.11,1785101183564.274
0.177,-0.9,-0.345,-3.88,-3.36,10.62,1785101183570.165
0.157,-0.903,-0.366,-7.2,-3.36,6.62,1785101183580.163
0.154,-0.885,-0.363,-6.29,-2.69,9.55,1785101183590.5762
0.179,-0.905,-0.352,-1.04,-1.83,12.39,1785101183600.9888
0.186,-0.926,-0.361,3.66,-0.21,11.05,1785101183614.2412
0.175,-0.962,-0.362,10.8,3.17,10.65,1785101183620.158
0.161,-0.994,-0.356,20.26,6.26,10.8,1785101183630.2131
0.15,-0.992,-0.37,28.02,8.3,10.5,1785101183641.007
0.14,-0.972,-0.38,32.72,10.16,11.14,1785101183654.2231
0.125,-0.961,-0.383,33.17,10.96,12.6,1785101183662.125
0.117,-0.957,-0.38,28.29,11.08,12.6,1785101183670.403
0.116,-0.966,-0.362,22.43,11.35,11.35,1785101183683.937
0.11,-0.973,-0.36,18.95,11.35,10.19,1785101183690.001
0.102,-0.955,-0.344,16.51,10.86,9.52,1785101183700.2207
0.099,-0.939,-0.323,14.62,10.1,8.64,1785101183710.785
0.092,-0.936,-0.302,14.4,9.37,7.14,1785101183723.9402
0.089,-0.956,-0.286,16.72,8.67,5.62,1785101183729.665
0.08,-0.969,-0.28,19.32,7.54,4.03,1785101183740.1118
0.066,-0.954,-0.273,20.91,6.01,3.42,1785101183750.418
0.077,-0.964,-0.271,22.19,4.36,4.0,1785101183760.9292
0.086,-0.991,-0.287,21.94,2.81,2.75,1785101183774.2798
0.09,-1.009,-0.309,18.49,1.01,0.61,1785101183780.004
0.083,-0.983,-0.321,12.57,-0.52,0.34,1785101183790.535
0.097,-0.976,-0.32,8.79,-1.04,2.35,1785101183800.436
0.099,-0.98,-0.333,6.84,-0.67,1.59,1785101183810.876
0.089,-0.958,-0.331,3.45,-0.27,0.24,1785101183823.989
0.088,-0.95,-0.308,-1.28,-0.7,-0.46,1785101183829.438
0.091,-0.966,-0.283,-4.52,-1.4,-2.11,1785101183839.754
0.094,-0.985,-0.273,-5.04,-2.29,-4.36,1785101183850.182
0.081,-0.981,-0.28,-1.07,-2.5,-5.46,1785101183860.5361
0.085,-0.965,-0.284,4.64,-3.05,-3.6,1785101183870.93
0.083,-0.954,-0.294,9.28,-3.72,-2.2,1785101183884.165
0.078,-0.934,-0.315,12.42,-4.55,-0.61,1785101183890.035
0.089,-0.937,-0.33,15.47,-4.94,1.43,1785101183899.9941
0.091,-0.955,-0.318,18.49,-4.12,0.98,1785101183910.6008
0.099,-0.954,-0.311,20.2,-3.54,0.43,1785101183920.929
0.097,-0.949,-0.29,17.55,-3.27,-0.31,1785101183934.211
0.093,-0.923,-0.27,8.48,-5.28,-0.89,1785101183940.1238
0.095,-0.936,-0.249,-1.46,-7.75,-1.56,1785101183949.8298
0.104,-0.976,-0.22,-6.65,-8.51,-2.84,1785101183960.3699
0.113,-1.0,-0.222,-7.72,-10.56,-4.03,1785101183971.0137
0.125,-1.026,-0.249,-4.97,-11.11,-3.6,1785101183984.011
0.133,-1.016,-0.302,1.86,-7.93,-3.11,1785101183989.818
0.134,-0.952,-0.345,10.35,-3.05,-0.12,1785101183999.8982
0.156,-0.904,-0.349,15.23,0.34,4.76,1785101184010.415
0.161,-0.91,-0.351,15.26,2.26,5.52,1785101184020.937
0.152,-0.928,-0.325,7.51,2.59,2.96,1785101184034.1692
0.157,-0.969,-0.292,-3.17,2.59,-0.27,1785101184039.884
0.146,-0.995,-0.278,-10.93,2.9,-3.23,1785101184049.8528
0.139,-0.981,-0.272,-15.38,2.23,-2.69,1785101184060.331
0.151,-0.981,-0.253,-12.88,2.04,-0.27,1785101184070.925
0.146,-0.976,-0.25,-5.43,2.14,0.98,1785101184084.0269
0.14,-0.94,-0.268,0.7,2.08,2.72,1785101184090.1929
0.147,-0.928,-0.277,3.51,1.8,4.7,1785101184099.7031
0.159,-0.973,-0.273,3.51,1.95,3.33,1785101184110.091
0.158,-1.024,-0.277,2.04,3.17,-0.64,1785101184120.457
0.148,-1.039,-0.295,0.0,4.97,-2.53,1785101184130.859
0.136,-1.02,-0.319,-2.69,5.8,-0.92,1785101184144.157
0.131,-0.962,-0.336,-7.57,5.22,2.38,1785101184149.5261
0.138,-0.945,-0.333,-12.18,4.64,4.33,1785101184159.8599
0.135,-0.959,-0.312,-15.72,3.6,2.53,1785101184170.333
0.134,-0.971,-0.291,-17.21,2.5,0.06,1785101184180.892
0.136,-0.998,-0.277,-15.29,2.04,-1.74,1785101184194.062
0.131,-0.997,-0.265,-11.66,1.01,-2.59,1785101184199.741
0.124,-0.988,-0.257,-6.1,-0.31,-1.83,1785101184209.884
0.121,-0.99,-0.26,0.43,-1.5,-0.55,1785101184220.2603
0.116,-0.999,-0.27,5.19,-2.69,-0.34,1785101184230.665
0.103,-0.98,-0.286,6.23,-3.94,-1.01,1785101184241.131
