ax,ay,az,gx,gy,gz,timestamp_ms
0.001,-0.958,-0.403,1.68,1.34,-2.17,1785100963388.695
0.003,-0.942,-0.411,2.56,1.56,-1.92,1785100963388.9512
0.008,-0.928,-0.419,3.33,2.08,-2.01,1785100963389.206
0.012,-0.912,-0.427,3.05,2.44,-2.84,1785100963389.458
0.008,-0.906,-0.427,2.9,2.99,-3.88,1785100963389.707
0.003,-0.913,-0.435,2.84,3.6,-5.43,1785100963389.96
-0.004,-0.894,-0.428,2.04,4.3,-5.98,1785100963390.207
0.005,-0.908,-0.416,2.32,4.67,-5.37,1785100963390.4463
-0.005,-0.911,-0.414,2.11,4.06,-6.62,1785100963390.687
-0.01,-0.912,-0.407,1.53,3.2,-7.02,1785100963390.925
-0.008,-0.912,-0.405,1.4,1.86,-6.47,1785100963391.155
-0.01,-0.911,-0.395,1.71,0.06,-4.7,1785100963391.377
-0.01,-0.9,-0.362,1.07,-1.65,-2.44,1785100963391.598
0.002,-0.895,-0.334,0.18,-3.85,-1.62,1785100963391.822
0.014,-0.926,-0.319,-0.27,-6.01,-3.45,1785100963392.0488
0.016,-0.963,-0.33,0.4,-6.78,-7.51,1785100963392.271
0.007,-0.975,-0.366,3.85,-6.68,-9.22,1785100963392.55
0.008,-0.954,-0.404,8.06,-5.74,-7.08,1785100963392.811
0.012,-0.898,-0.448,13.4,-3.75,-3.08,1785100963393.069
0.027,-0.85,-0.462,17.46,-1.8,1.37,1785100963393.3152
0.039,-0.827,-0.455,16.72,-1.07,3.54,1785100963393.61
0.045,-0.857,-0.434,9.43,-1.56,2.04,1785100963393.8691
0.035,-0.901,-0.419,-3.08,-2.62,-2.62,1785100963394.093
0.029,-0.942,-0.389,-15.2,-3.39,-5.98,1785100963394.322
0.023,-0.955,-0.379,-17.94,-2.66,-6.9,1785100963394.5488
0.024,-0.917,-0.383,-10.04,-0.43,-3.54,1785100963394.772
0.029,-0.869,-0.38,3.11,1.1,3.17,1785100963394.99
0.046,-0.857,-0.365,13.12,0.89,7.48,1785100963395.2131
0.059,-0.889,-0.375,15.29,0.73,5.22,1785100963395.4539
0.053,-0.93,-0.395,11.26,1.8,0.95,1785100963395.675
0.045,-0.945,-0.408,6.5,3.51,-0.73,1785100963395.8972
0.033,-0.943,-0.412,3.94,4.88,0.09,1785100963396.118
0.031,-0.925,-0.428,1.13,4.73,2.62,1785100963396.3508
0.041,-0.93,-0.453,-2.44,4.27,5.52,1785100963396.5703
0.038,-0.933,-0.447,-5.65,4.0,7.54,1785100963396.7932
0.039,-0.93,-0.421,-6.01,3.66,8.33,1785100963397.017
0.028,-0.917,-0.394,-5.1,3.14,7.08,1785100963397.2302
0.02,-0.892,-0.386,-5.55,2.32,6.13,1785100963397.441
-0.001,-0.85,-0.389,-5.68,1.19,7.63,1785100963397.649
-0.008,-0.814,-0.365,-4.46,-0.37,12.39,1785100963397.861
0.02,-0.855,-0.359,-3.08,-2.5,14.65,1785100963398.072
0.026,-0.9,-0.386,-5.92,-4.58,10.8,1785100963398.283
0.008,-0.941,-0.409,-9.16,-5.04,7.02,1785100963398.4902
-0.004,-0.954,-0.409,-10.1,-5.68,6.81,1785100963398.698
-0.001,-0.962,-0.41,-8.39,-6.2,7.75,1785100963398.899
0.005,-0.974,-0.429,-5.13,-5.58,6.99,1785100963399.103
-0.001,-0.986,-0.457,-0.7,-3.2,5.01,1785100963399.302
-0.02,-0.976,-0.457,0.92,-1.43,4.03,1785100963399.497
-0.014,-0.965,-0.43,-1.56,-1.31,3.63,1785100963399.7
-0.004,-0.977,-0.413,-3.6,-1.04,1.56,1785100963399.9019
-0.009,-0.986,-0.414,-1.95,0.85,-0.67,1785100963400.107
-0.015,-0.961,-0.412,2.47,2.44,-1.13,1785100963400.3047
-0.005,-0.948,-0.432,9.16,3.63,-0.52,1785100963400.507
0.006,-0.949,-0.447,14.13,5.4,-1.16,1785100963400.712
0.005,-0.951,-0.454,15.81,7.48,-3.42,1785100963400.9148
-0.003,-0.934,-0.461,14.44,9.28,-4.88,1785100963401.1199
-0.003,-0.934,-0.461,9.67,9.95,-4.7,1785100963401.323
-0.008,-0.901,-0.455,1.5,8.91,-3.91,1785100963401.529
-0.011,-0.857,-0.425,-8.09,6.84,-3.63,1785100963401.728
0.003,-0.85,-0.401,-15.02,4.52,-5.74,1785100963401.9329
0.011,-0.89,-0.398,-16.85,2.87,-9.46,1785100963402.142
0.008,-0.957,-0.386,-16.85,2.87,-9.46,1785100963402.352
-0.0,-0.972,-0.37,-14.19,1.59,-11.63,1785100963402.555
0.009,-0.956,-0.355,-6.84,0.58,-9.58,1785100963402.756
0.014,-0.906,-0.356,0.03,-0.31,-5.86,1785100963402.9592
0.026,-0.872,-0.348,1.62,-2.23,-2.23,1785100963403.157
0.024,-0.891,-0.335,-2.17,-5.4,-1.98,1785100963403.362
0.017,-0.913,-0.329,-7.05,-7.9,-3.85,1785100963403.564
0.022,-0.93,-0.34,-7.9,-8.55,-4.46,1785100963403.764
0.028,-0.932,-0.373,-4.3,-7.2,-3.14,1785100963403.963
0.022,-0.902,-0.41,0.58,-6.96,0.27,1785100963404.166
0.03,-0.875,-0.427,4.55,-7.6,5.89,1785100963404.369
0.04,-0.873,-0.436,10.04,-7.23,9.92,1785100963404.5708
0.045,-0.864,-0.432,15.35,-5.74,10.74,1785100963404.778
0.042,-0.852,-0.429,17.37,-4.85,9.92,1785100963404.978
0.036,-0.848,-0.424,14.71,-4.73,9.06,1785100963405.1763
0.03,-0.88,-0.406,10.19,-4.88,8.33,1785100963405.366
0.022,-0.927,-0.372,5.52,-4.39,7.05,1785100963405.558
0.017,-0.98,-0.38,5.34,-3.08,5.58,1785100963405.7478
0.016,-1.023,-0.395,9.16,-0.89,4.64,1785100963405.943
0.019,-1.006,-0.404,11.84,0.7,3.54,1785100963406.178
0.025,-1.003,-0.457,12.94,2.47,2.66,1785100963406.404
0.014,-0.975,-0.499,9.28,4.64,2.56,1785100963406.647
-0.006,-0.897,-0.513,2.93,6.29,4.58,1785100963406.867
-0.0,-0.869,-0.513,-0.73,8.12,8.51,1785100963407.064
0.01,-0.878,-0.491,-3.94,9.67,9.28,1785100963407.286
0.007,-0.864,-0.45,-7.75,10.01,7.32,1785100963407.5032
0.008,-0.904,-0.417,-7.54,9.8,5.37,1785100963407.724
-0.005,-0.933,-0.374,-7.32,8.24,2.44,1785100963407.9338
-0.018,-0.923,-0.342,-8.15,5.49,0.55,1785100963408.129
-0.021,-0.936,-0.335,-6.93,3.23,0.15,1785100963408.319
-0.021,-0.95,-0.32,-5.04,0.95,0.76,1785100963408.517
-0.022,-0.953,-0.319,-1.89,-1.04,1.68,1785100963408.717
-0.017,-0.97,-0.332,3.48,-2.32,2.35,1785100963408.911
-0.013,-0.98,-0.353,8.55,-2.9,1.5,1785100963409.1038
-0.013,-0.981,-0.383,11.81,-3.05,-0.09,1785100963409.302
-0.011,-0.985,-0.415,14.01,-1.92,-0.7,1785100963409.4983
-0.012,-0.987,-0.433,15.56,0.0,-0.92,1785100963409.688
-0.016,-0.957,-0.433,14.13,1.34,-1.37,1785100963409.882
-0.012,-0.917,-0.431,10.71,2.26,-1.68,1785100963410.074
-0.009,-0.918,-0.432,7.9,3.75,-2.78,1785100963410.297
-0.018,-0.905,-0.418,3.17,4.85,-5.07,1785100963410.495
-0.02,-0.9,-0.406,-0.95,5.62,-6.81,1785100963410.6902
-0.024,-0.896,-0.42,-2.62,6.99,-8.42,1785100963410.8748
-0.035,-0.884,-0.437,-3.39,8.42,-8.3,1785100963411.0588
-0.053,-0.86,-0.438,-5.22,9.28,-5.71,1785100963411.242
-0.061,-0.826,-0.412,-6.07,9.77,-1.77,1785100963411.4292
-0.05,-0.794,-0.382,-4.49,9.34,0.95,1785100963411.614
-0.035,-0.838,-0.358,-2.32,8.33,0.06,1785100963411.793
-0.042,-0.834,-0.314,-6.9,6.16,-4.21,1785100963411.983
-0.013,-0.892,-0.272,-8.79,3.42,-7.14,1785100963412.1667
-0.01,-0.989,-0.264,-4.61,3.66,-12.12,1785100963412.354
-0.025,-0.989,-0.293,2.84,5.74,-13.86,1785100963412.537
-0.031,-0.934,-0.346,11.99,5.86,-8.24,1785100963412.723
-0.012,-0.874,-0.384,17.64,4.49,1.34,1785100963412.9072
0.025,-0.835,-0.386,21.0,6.56,8.48,1785100963413.091
0.045,-0.827,-0.379,23.68,8.91,10.44,1785100963413.28
0.059,-0.858,-0.37,21.73,8.73,9.74,1785100963413.465
0.051,-0.902,-0.371,16.82,7.84,7.23,1785100963413.649
0.027,-0.897,-0.367,13.4,7.35,6.32,1785100963413.832
0.028,-0.864,-0.351,12.6,6.13,10.68,1785100963414.021
0.057,-0.877,-0.357,13.73,4.79,15.5,1785100963414.2048
0.068,-0.931,-0.366,14.07,4.39,15.56,1785100963414.389
0.057,-0.969,-0.367,12.67,4.12,13.43,1785100963414.5742
0.048,-0.989,-0.375,9.58,3.91,11.99,1785100963414.756
0.049,-1.013,-0.391,6.35,4.58,10.44,1785100963414.939
0.045,-1.024,-0.404,2.66,5.31,9.16,1785100963415.118
0.038,-1.035,-0.418,-1.56,5.22,9.61,1785100963415.3
0.025,-1.045,-0.434,-6.01,4.91,11.41,1785100963415.484
0.019,-1.02,-0.434,-9.4,5.16,13.86,1785100963415.6748
0.02,-1.006,-0.432,-8.61,5.65,15.26,1785100963415.8608
0.02,-0.987,-0.447,-6.99,5.74,14.31,1785100963416.047
0.021,-0.954,-0.444,-7.17,6.23,13.7,1785100963416.232
0.026,-0.948,-0.428,-6.23,6.56,12.73,1785100963416.415
0.03,-0.98,-0.422,-4.43,7.23,8.82,1785100963416.5981
0.019,-1.025,-0.404,-5.01,7.51,2.99,1785100963416.775
-0.0,-1.017,-0.372,-6.96,6.84,-0.95,1785100963416.95
-0.001,-1.039,-0.353,-4.12,6.04,-2.17,1785100963417.123
-0.006,-1.034,-0.349,-3.14,4.64,-4.12,1785100963417.296
-0.013,-1.024,-0.352,-4.55,3.45,-5.49,1785100963417.471
-0.013,-1.008,-0.348,-5.31,2.99,-5.68,1785100963417.6482
0.001,-1.001,-0.349,-3.48,2.84,-5.1,1785100963417.821
0.007,-0.964,-0.348,-1.34,2.81,-5.07,1785100963418.038
0.018,-0.928,-0.347,1.04,3.02,-4.49,1785100963418.238
0.027,-0.943,-0.355,5.19,3.39,-5.28,1785100963418.414
0.024,-0.957,-0.363,6.68,3.45,-8.55,1785100963418.626
0.014,-0.958,-0.368,5.07,3.14,-11.05,1785100963418.821
0.009,-0.938,-0.375,3.6,3.33,-11.63,1785100963419.0002
0.014,-0.916,-0.378,3.17,3.6,-10.77,1785100963419.21
0.011,-0.913,-0.377,2.56,3.78,-10.56,1785100963419.41
0.007,-0.912,-0.375,0.55,3.91,-10.65,1785100963419.5881
0.004,-0.91,-0.362,-2.41,3.57,-10.56,1785100963419.765
0.001,-0.922,-0.354,-4.03,2.81,-10.5,1785100963419.9412
-0.005,-0.909,-0.333,-6.13,1.89,-10.1,1785100963420.122
0.002,-0.907,-0.318,-7.02,0.58,-9.0,1785100963420.299
0.001,-0.927,-0.321,-4.58,0.12,-8.97,1785100963420.476
-0.006,-0.921,-0.333,-0.76,0.12,-8.91,1785100963420.654
-0.01,-0.905,-0.346,3.42,-0.06,-6.99,1785100963420.831
-0.006,-0.888,-0.36,6.84,-0.27,-5.28,1785100963421.0059
-0.002,-0.894,-0.369,8.33,-0.27,-4.73,1785100963421.181
-0.008,-0.882,-0.361,6.35,-0.24,-4.94,1785100963421.3572
-0.011,-0.876,-0.343,2.23,-0.92,-3.78,1785100963421.532
-0.013,-0.876,-0.322,-3.54,-2.53,-3.02,1785100963421.706
-0.004,-0.912,-0.295,-8.7,-3.63,-3.97,1785100963421.8792
-0.007,-0.946,-0.292,-10.25,-3.94,-7.2,1785100963422.0537
-0.01,-0.952,-0.297,-6.71,-3.51,-7.84,1785100963422.2322
-0.007,-0.924,-0.312,0.64,-3.11,-5.34,1785100963422.411
0.003,-0.896,-0.333,10.99,-1.83,-0.98,1785100963422.584
0.009,-0.89,-0.352,21.18,0.15,2.04,1785100963422.755
0.004,-0.907,-0.37,26.89,2.41,2.2,1785100963422.9272
-0.015,-0.918,-0.376,24.84,3.85,0.7,1785100963423.1
-0.029,-0.926,-0.33,17.03,4.82,-0.03,1785100963423.273
-0.056,-0.956,-0.248,16.45,8.51,-1.34,1785100963423.6108
-0.063,-0.991,-0.247,28.44,10.96,-1.71,1785100963423.786
-0.248,-0.919,-0.785,33.2,14.13,-4.03,1785100963424.106
-0.283,-0.931,-0.766,65.0,16.63,-12.33,1785100963424.278
-0.314,-0.871,-0.79,89.48,18.31,-21.64,1785100963426.6628
-0.327,-0.812,-0.805,103.85,19.65,-32.9,1785100963439.905
-0.336,-0.775,-0.823,111.88,20.23,-47.85,1785100963445.698
-0.336,-0.775,-0.823,115.21,20.63,-64.03,1785100963456.648
-0.32,-0.759,-0.841,109.74,19.93,-79.41,1785100963469.858
-0.314,-0.722,-0.846,97.05,17.79,-92.44,1785100963475.642
-0.322,-0.676,-0.819,84.75,15.32,-102.48,1785100963486.578
-0.312,-0.675,-0.804,73.85,14.31,-111.85,1785100963499.819
-0.314,-0.704,-0.807,73.85,14.31,-111.85,1785100963505.6091
-0.331,-0.72,-0.786,64.67,15.02,-119.66,1785100963516.5
-0.325,-0.732,-0.767,61.01,15.41,-124.27,1785100963529.771
-0.258,-0.731,-0.76,61.83,15.66,-125.43,1785100963535.5771
-0.174,-0.709,-0.717,62.84,14.92,-123.81,1785100963546.541
-0.116,-0.657,-0.652,60.85,11.6,-119.79,1785100963559.762
-0.084,-0.615,-0.588,56.89,7.02,-113.65,1785100963565.485
-0.062,-0.605,-0.542,52.89,1.8,-108.1,1785100963576.337
-0.044,-0.591,-0.511,48.49,-3.11,-105.01,1785100963586.977
-0.022,-0.573,-0.508,43.43,-7.05,-102.27,1785100963600.216
0.038,-0.572,-0.533,38.15,-10.01,-98.97,1785100963606.103
0.111,-0.553,-0.509,30.7,-12.76,-95.19,1785100963616.727
0.174,-0.535,-0.476,22.95,-16.3,-90.3,1785100963630.259
0.224,-0.527,-0.474,18.52,-20.48,-83.96,1785100963636.31
0.259,-0.526,-0.495,15.84,-24.2,-77.52,1785100963647.382
0.277,-0.526,-0.522,12.24,-27.31,-72.33,1785100963657.237
0.299,-0.514,-0.544,6.81,-28.6,-68.7,1785100963670.391
0.353,-0.5,-0.534,0.21,-29.97,-63.94,1785100963675.957
0.418,-0.472,-0.493,-4.21,-32.93,-58.35,1785100963686.471
0.455,-0.464,-0.459,-4.06,-36.59,-52.86,1785100963697.013
0.453,-0.473,-0.443,-1.95,-40.8,-47.85,1785100963710.63
0.422,-0.492,-0.442,3.63,-43.73,-42.88,1785100963716.394
0.395,-0.535,-0.468,15.17,-45.32,-35.8,1785100963726.845
0.402,-0.56,-0.556,28.81,-45.23,-28.14,1785100963737.343
0.437,-0.564,-0.644,40.83,-42.54,-21.27,1785100963750.46
0.501,-0.552,-0.705,47.94,-40.01,-15.72,1785100963756.2659
0.564,-0.526,-0.741,49.1,-37.51,-10.99,1785100963767.1838
0.587,-0.52,-0.723,46.78,-34.97,-6.01,1785100963780.032
0.579,-0.535,-0.68,43.52,-33.54,-1.95,1785100963785.829
0.549,-0.579,-0.634,42.91,-32.2,0.09,1785100963796.609
0.51,-0.617,-0.591,45.5,-31.46,2.2,1785100963806.814
0.489,-0.649,-0.579,53.29,-31.07,5.92,1785100963820.221
0.486,-0.667,-0.607,63.88,-31.01,9.74,1785100963832.221
0.511,-0.653,-0.679,71.26,-30.73,13.18,1785100963836.478
0.548,-0.621,-0.722,70.56,-30.09,16.82,1785100963847.0242
0.563,-0.607,-0.741,62.23,-30.21,20.42,1785100963860.2449
0.549,-0.631,-0.751,48.34,-29.69,23.04,1785100963866.146
0.505,-0.658,-0.709,32.96,-28.2,24.54,1785100963876.847
0.465,-0.691,-0.672,25.57,-26.95,25.67,1785100963890.29
0.439,-0.715,-0.666,26.0,-25.54,26.49,1785100963896.263
0.42,-0.704,-0.668,29.42,-23.16,28.17,1785100963906.7168
0.418,-0.708,-0.656,35.16,-20.87,31.13,1785100963917.349
0.439,-0.736,-0.651,43.55,-19.26,32.59,1785100963930.5962
0.448,-0.763,-0.625,53.16,-18.46,32.65,1785100963936.516
0.451,-0.769,-0.585,62.56,-17.58,32.14,1785100963947.0542
0.428,-0.794,-0.575,72.54,-19.17,33.75,1785100963960.329
0.444,-0.831,-0.557,82.67,-21.24,39.28,1785100963966.347
0.422,-0.835,-0.529,94.33,-19.93,39.55,1785100963976.5278
0.395,-0.841,-0.538,104.71,-22.28,39.46,1785100963990.1409
0.411,-0.842,-0.586,111.0,-22.89,39.98,1785100963996.023
0.407,-0.841,-0.635,112.13,-18.71,37.45,1785100964006.9902
0.379,-0.873,-0.657,106.11,-15.63,34.58,1785100964019.873
0.362,-0.918,-0.63,95.0,-14.28,34.3,1785100964025.7048
0.355,-0.965,-0.589,85.51,-11.9,33.75,1785100964036.343
0.334,-0.971,-0.559,76.82,-11.51,31.43,1785100964047.193
0.326,-0.946,-0.52,67.11,-13.52,30.24,1785100964060.3171
0.32,-0.929,-0.496,58.57,-14.53,28.26,1785100964066.407
0.303,-0.918,-0.473,50.26,-15.11,26.0,1785100964076.6753
0.291,-0.93,-0.45,44.74,-16.6,25.27,1785100964090.229
0.292,-0.981,-0.441,44.22,-17.98,25.42,1785100964096.114
0.282,-1.012,-0.461,47.73,-19.78,24.05,1785100964106.578
0.289,-1.029,-0.488,53.93,-19.75,22.1,1785100964117.0627
0.28,-1.022,-0.531,58.02,-18.68,18.98,1785100964130.7058
0.272,-1.008,-0.538,57.04,-17.12,17.12,1785100964136.429
0.26,-1.002,-0.5,52.49,-15.96,15.72,1785100964146.88
0.243,-1.009,-0.461,46.27,-15.5,14.98,1785100964160.175
0.233,-1.03,-0.429,41.99,-14.8,14.86,1785100964165.687
0.224,-1.064,-0.411,40.8,-14.16,14.56,1785100964176.826
0.222,-1.084,-0.411,40.13,-13.79,13.92,1785100964187.375
0.228,-1.056,-0.434,38.51,-14.01,14.44,1785100964200.244
0.251,-1.039,-0.454,38.12,-13.82,16.11,1785100964205.9688
0.269,-1.051,-0.452,35.86,-13.64,14.59,1785100964216.7139
0.271,-1.033,-0.447,28.9,-13.7,10.5,1785100964229.938
0.271,-1.013,-0.44,21.67,-13.18,8.3,1785100964236.267
0.251,-1.003,-0.423,16.11,-13.0,6.71,1785100964246.181
0.233,-0.976,-0.39,11.44,-13.37,6.32,1785100964256.812
0.231,-0.975,-0.357,10.25,-14.19,6.93,1785100964270.3809
0.237,-0.996,-0.337,10.93,-14.74,7.6,1785100964276.356
0.246,-1.017,-0.336,11.57,-15.26,7.75,1785100964286.5469
0.249,-1.054,-0.327,14.04,-15.14,8.67,1785100964297.495
0.222,-1.065,-0.304,17.55,-14.8,8.91,1785100964310.184
0.204,-1.046,-0.282,22.8,-13.43,10.22,1785100964315.827
0.192,-1.027,-0.305,30.4,-12.57,11.35,1785100964326.699
0.184,-0.98,-0.331,33.88,-12.3,13.4,1785100964337.404
0.18,-0.943,-0.329,32.81,-12.7,17.55,1785100964350.605
0.176,-0.942,-0.33,27.95,-13.43,20.08,1785100964356.616
0.162,-0.942,-0.308,18.28,-14.01,18.71,1785100964367.1538
0.141,-0.965,-0.283,7.26,-14.68,14.89,1785100964380.0981
0.115,-1.028,-0.274,-2.29,-15.23,10.28,1785100964385.903
0.075,-1.054,-0.243,-12.67,-16.51,6.68,1785100964396.2722
0.047,-1.047,-0.217,-21.15,-18.4,5.46,1785100964406.902
0.029,-1.025,-0.227,-27.01,-19.87,5.25,1785100964420.065
0.01,-1.003,-0.233,-31.98,-20.54,5.43,1785100964425.744
-0.018,-0.968,-0.215,-36.56,-22.31,4.88,1785100964436.4229
-0.013,-0.958,-0.262,-39.12,-24.87,3.23,1785100964446.749
-0.002,-0.969,-0.318,-44.8,-27.34,-0.73,1785100964460.121
-0.016,-0.992,-0.35,-47.79,-27.04,-3.05,1785100964465.761
-0.016,-1.032,-0.386,-40.99,-23.29,-2.93,1785100964476.9202
-0.016,-1.005,-0.439,-29.3,-18.1,-4.82,1785100964487.1008
-0.013,-0.977,-0.444,-12.09,-11.05,-5.77,1785100964500.248
-0.019,-0.959,-0.407,5.13,-5.07,-7.39,1785100964506.0999
-0.024,-1.013,-0.371,16.69,-1.71,-11.54,1785100964516.284
-0.056,-1.079,-0.308,17.98,-1.01,-19.9,1785100964526.769
-0.083,-1.069,-0.225,10.8,-2.59,-26.37,1785100964539.5808
-0.077,-1.071,-0.183,6.87,-4.0,-28.17,1785100964550.573
-0.086,-1.046,-0.185,5.86,-5.71,-27.8,1785100964557.447
-0.093,-0.952,-0.213,6.29,-7.93,-23.56,1785100964566.602
-0.056,-0.89,-0.225,10.77,-10.38,-16.75,1785100964577.481
-0.034,-0.851,-0.245,13.76,-14.5,-14.1,1785100964590.539
-0.031,-0.837,-0.263,14.74,-17.37,-15.32,1785100964596.545
-0.027,-0.847,-0.272,15.02,-18.8,-17.73,1785100964606.946
-0.026,-0.845,-0.288,13.31,-20.08,-20.08,1785100964620.2358
-0.012,-0.85,-0.323,11.87,-20.94,-20.87,1785100964626.6938
-0.005,-0.853,-0.311,10.5,-20.87,-20.54,1785100964636.6729
0.003,-0.842,-0.308,8.27,-21.58,-17.91,1785100964647.1912
0.002,-0.822,-0.302,5.13,-21.7,-13.76,1785100964660.547
0.019,-0.812,-0.271,-0.03,-22.19,-8.97,1785100964666.686
0.05,-0.819,-0.268,-6.26,-22.46,-6.38,1785100964676.495
0.06,-0.82,-0.283,-10.96,-21.97,-5.01,1785100964686.974
0.087,-0.83,-0.302,-10.44,-21.15,-2.32,1785100964700.293
0.099,-0.848,-0.292,-6.41,-21.49,1.16,1785100964706.298
0.068,-0.842,-0.268,-2.81,-21.88,4.33,1785100964716.286
0.071,-0.777,-0.274,-5.8,-23.35,8.27,1785100964726.75
0.071,-0.777,-0.274,-7.87,-21.94,11.51,1785100964737.322
0.098,-0.794,-0.302,-5.86,-19.68,11.44,1785100964750.617
0.114,-0.829,-0.343,-4.09,-16.6,10.38,1785100964756.579
0.15,-0.886,-0.344,-3.05,-13.52,8.85,1785100964766.6838
0.155,-0.925,-0.379,-3.39,-10.53,11.23,1785100964777.15
0.143,-0.951,-0.396,-3.39,-10.53,11.23,1785100964790.3472
0.128,-0.941,-0.378,-4.88,-8.39,13.82,1785100964796.303
0.137,-0.923,-0.349,-6.1,-5.34,15.56,1785100964806.504
0.137,-0.935,-0.342,-3.05,-0.73,16.45,1785100964816.7622
0.139,-0.959,-0.318,-0.49,1.95,16.42,1785100964830.2341
0.155,-0.999,-0.333,-2.01,2.08,14.25,1785100964836.053
0.14,-1.008,-0.361,-4.88,2.78,12.85,1785100964846.156
0.125,-0.986,-0.36,-8.0,3.36,14.62,1785100964856.666
0.123,-1.006,-0.357,-9.43,3.54,15.47,1785100964867.084
0.103,-1.024,-0.365,-11.44,3.57,14.31,1785100964880.4119
0.083,-1.013,-0.364,-15.93,3.42,14.07,1785100964886.36
0.077,-1.023,-0.376,-19.29,3.6,12.97,1785100964896.559
0.048,-1.021,-0.354,-22.46,3.14,10.65,1785100964907.223
0.035,-0.988,-0.33,-27.41,0.76,10.04,1785100964920.4622
0.041,-0.985,-0.305,-29.82,-0.82,10.01,1785100964926.494
0.048,-1.02,-0.282,-26.0,-1.86,7.66,1785100964936.32
0.034,-1.026,-0.283,-18.68,-2.81,4.03,1785100964946.887
0.015,-1.005,-0.289,-9.37,-3.75,3.78,1785100964957.3948
0.018,-0.981,-0.311,-3.66,-5.55,3.81,1785100964970.491
0.016,-0.981,-0.344,-1.46,-6.1,1.71,1785100964976.176
-0.004,-0.984,-0.355,-0.58,-5.4,-1.28,1785100964986.219
-0.005,-1.004,-0.36,1.65,-5.01,-3.05,1785100964996.572
-0.012,-1.011,-0.361,2.38,-5.46,-5.49,1785100965007.279
-0.014,-0.999,-0.353,3.78,-4.97,-7.02,1785100965017.3472
-0.008,-0.992,-0.341,8.51,-4.67,-7.45,1785100965030.602
-0.01,-0.992,-0.329,16.21,-4.09,-7.17,1785100965036.322
-0.004,-0.957,-0.323,22.31,-3.75,-5.77,1785100965046.493
0.006,-0.927,-0.315,27.38,-2.75,-3.72,1785100965057.039
0.003,-0.9,-0.297,30.46,-1.4,-3.6,1785100965067.4172
0.022,-0.845,-0.282,24.93,-4.06,-2.11,1785100965080.72
0.041,-0.866,-0.29,21.67,-4.82,0.09,1785100965086.633
0.033,-0.878,-0.299,21.12,-3.75,-0.55,1785100965096.5728
0.026,-0.85,-0.294,18.4,-4.36,0.64,1785100965107.1099
0.022,-0.866,-0.273,20.2,-4.61,3.27,1785100965120.3552
0.021,-0.885,-0.275,24.66,-4.39,3.14,1785100965126.314
0.027,-0.892,-0.294,25.45,-3.85,3.48,1785100965136.268
0.032,-0.903,-0.311,24.45,-3.17,5.1,1785100965146.7842
0.032,-0.907,-0.336,23.1,-2.62,6.62,1785100965157.376
0.033,-0.917,-0.344,19.26,-2.56,8.18,1785100965170.511
0.044,-0.938,-0.323,11.72,-3.02,8.79,1785100965176.342
0.05,-0.953,-0.292,1.5,-3.27,8.06,1785100965186.3198
0.047,-0.981,-0.284,-7.87,-3.72,5.86,1785100965196.581
0.045,-0.996,-0.268,-14.16,-3.75,4.09,1785100965207.425
0.04,-0.987,-0.281,-15.32,-3.57,3.88,1785100965220.255
0.045,-0.96,-0.289,-15.75,-4.18,5.28,1785100965226.027
0.064,-0.954,-0.281,-15.87,-4.49,7.14,1785100965236.185
0.051,-0.935,-0.296,-13.18,-4.73,7.66,1785100965246.7
0.076,-0.948,-0.283,-12.6,-5.98,8.03,1785100965257.094
0.08,-0.989,-0.294,-11.72,-7.29,5.13,1785100965270.4902
0.063,-1.002,-0.312,-12.18,-8.61,3.51,1785100965275.886
0.073,-0.998,-0.307,-14.01,-8.67,4.52,1785100965286.166
0.076,-1.007,-0.308,-12.48,-7.17,5.04,1785100965297.056
0.069,-1.017,-0.342,-11.05,-5.43,5.07,1785100965307.1238
0.049,-0.999,-0.394,-14.77,-3.66,4.3,1785100965320.658
0.036,-0.947,-0.397,-22.71,-3.08,5.98,1785100965326.109
0.057,-0.952,-0.391,-25.97,-3.14,7.78,1785100965336.7258
0.078,-1.003,-0.397,-23.8,-2.47,6.5,1785100965347.05
0.075,-1.022,-0.389,-21.7,-2.69,4.21,1785100965360.3699
0.06,-1.014,-0.385,-21.97,-3.17,3.63,1785100965366.6948
0.035,-0.99,-0.375,-24.48,-3.17,3.94,1785100965376.2358
0.01,-0.931,-0.347,-29.97,-4.33,5.68,1785100965386.7122
-0.001,-0.904,-0.319,-34.42,-5.62,7.93,1785100965397.029
-0.001,-0.944,-0.283,-35.1,-7.63,7.45,1785100965410.577
-0.008,-0.974,-0.274,-31.31,-9.8,4.88,1785100965416.094
-0.016,-0.963,-0.297,-22.95,-10.44,3.94,1785100965426.412
-0.013,-0.959,-0.335,-13.79,-10.35,4.09,1785100965436.9731
-0.01,-0.961,-0.364,-8.61,-9.77,2.26,1785100965447.451
-0.023,-0.937,-0.382,-6.78,-8.27,0.52,1785100965460.597
-0.032,-0.927,-0.396,-3.23,-5.55,0.31,1785100965466.418
-0.052,-0.932,-0.421,3.11,-2.5,-0.34,1785100965478.309
-0.044,-0.942,-0.461,7.2,0.73,-0.92,1785100965486.5908
-0.037,-0.959,-0.433,8.85,4.09,-1.68,1785100965496.968
-0.043,-0.952,-0.366,13.06,6.41,-0.95,1785100965510.43
-0.047,-0.962,-0.319,19.44,6.81,-1.53,1785100965516.0132
-0.052,-0.956,-0.286,22.19,6.2,-4.27,1785100965526.0842
-0.049,-0.93,-0.265,27.04,5.58,-4.49,1785100965536.543
-0.049,-0.892,-0.243,37.66,5.62,-0.52,1785100965546.8809
-0.022,-0.837,-0.272,45.38,4.46,4.49,1785100965560.217
-0.011,-0.809,-0.292,46.11,2.56,6.2,1785100965565.98
-0.002,-0.824,-0.296,42.05,-0.52,5.4,1785100965576.214
0.0,-0.873,-0.283,36.68,-2.72,3.51,1785100965586.7378
-0.009,-0.889,-0.298,33.97,-3.69,2.84,1785100965597.009
0.011,-0.883,-0.31,30.52,-3.27,4.85,1785100965610.313
0.016,-0.896,-0.307,28.02,-2.14,5.77,1785100965615.9219
0.006,-0.916,-0.297,25.94,-1.34,5.65,1785100965626.5203
0.0,-0.911,-0.295,21.85,-0.37,6.35,1785100965636.926
0.004,-0.886,-0.299,11.38,-1.01,7.48,1785100965647.362
0.011,-0.863,-0.299,-2.87,-3.27,8.48,1785100965660.713
0.027,-0.869,-0.272,-13.31,-4.52,10.41,1785100965666.757
0.017,-0.866,-0.288,-16.48,-4.15,11.11,1785100965676.768
0.012,-0.868,-0.309,-16.75,-3.88,11.84,1785100965687.332
0.013,-0.891,-0.291,-16.27,-4.52,12.82,1785100965700.4329
0.002,-0.901,-0.264,-14.98,-5.13,14.22,1785100965706.414
0.0,-0.919,-0.267,-12.85,-6.1,16.57,1785100965716.736
-0.005,-0.922,-0.294,-10.71,-6.47,18.16,1785100965727.287
-0.01,-0.92,-0.274,-9.25,-6.26,20.97,1785100965740.752
-0.004,-0.956,-0.282,-5.65,-4.58,22.06,1785100965746.446
0.004,-1.0,-0.321,2.29,-0.55,20.48,1785100965756.285
0.02,-1.047,-0.374,7.97,2.81,17.21,1785100965766.895
-0.003,-1.064,-0.439,4.7,4.15,12.88,1785100965777.418
-0.038,-1.051,-0.44,-6.71,3.88,11.96,1785100965790.6548
-0.037,-1.024,-0.405,-16.51,3.78,15.08,1785100965796.627
-0.03,-1.021,-0.371,-19.47,4.33,16.85,1785100965806.7068
-0.026,-1.014,-0.361,-19.84,4.39,15.93,1785100965817.3
-0.026,-1.029,-0.337,-16.6,4.67,12.82,1785100965830.6902
-0.041,-1.03,-0.306,-12.05,3.63,8.55,1785100965836.537
-0.053,-1.03,-0.265,-9.46,1.07,5.52,1785100965846.45
-0.055,-1.04,-0.25,-7.78,-1.95,2.9,1785100965856.7158
-0.063,-1.056,-0.248,-5.19,-4.06,0.34,1785100965866.946
-0.069,-1.05,-0.272,-1.77,-5.58,-0.92,1785100965880.269
-0.067,-1.017,-0.302,2.81,-5.58,-0.12,1785100965885.7378
-0.041,-1.015,-0.337,9.77,-4.61,0.52,1785100965895.9438
-0.028,-0.988,-0.367,13.28,-4.09,-2.44,1785100965906.532
-0.023,-0.992,-0.403,12.48,-3.33,-6.78,1785100965917.0898
-0.038,-0.986,-0.397,11.9,-1.4,-8.58,1785100965930.4011
-0.046,-0.97,-0.377,15.75,1.28,-8.61,1785100965936.2039
-0.048,-0.973,-0.343,18.49,2.99,-10.74,1785100965946.457
-0.067,-0.955,-0.288,13.92,2.2,-12.85,1785100965957.0142
-0.082,-0.973,-0.26,12.85,1.59,-12.7,1785100965969.998
-0.086,-0.962,-0.266,18.43,2.78,-12.09,1785100965975.9329
-0.075,-0.929,-0.272,26.52,3.6,-9.58,1785100965986.2131
-0.056,-0.923,-0.292,34.61,3.88,-7.9,1785100965996.7283
-0.044,-0.92,-0.306,38.97,4.94,-8.51,1785100966007.188
-0.038,-0.902,-0.355,39.12,6.13,-8.33,1785100966020.327
-0.038,-0.902,-0.355,37.05,7.72,-6.59,1785100966026.016
-0.035,-0.891,-0.37,34.61,8.73,-5.4,1785100966037.391
-0.033,-0.894,-0.357,30.34,9.89,-5.92,1785100966046.8499
-0.042,-0.899,-0.33,24.51,10.77,-6.99,1785100966057.579
-0.061,-0.903,-0.318,19.14,11.57,-7.02,1785100966070.8152
-0.046,-0.922,-0.303,19.14,11.57,-7.02,1785100966076.659
-0.05,-0.968,-0.269,18.01,11.54,-6.16,1785100966086.6912
-0.027,-0.967,-0.274,21.24,11.93,-4.3,1785100966097.336
0.006,-0.966,-0.277,23.83,12.18,-1.43,1785100966110.7002
0.009,-0.949,-0.273,19.78,11.41,0.37,1785100966116.632
0.023,-0.936,-0.266,17.15,12.36,3.78,1785100966126.91
0.026,-0.928,-0.291,19.53,13.89,6.47,1785100966137.332
0.038,-0.934,-0.286,16.94,15.02,7.17,1785100966150.7002
0.044,-0.912,-0.281,12.09,15.5,6.71,1785100966156.6
0.032,-0.94,-0.291,-1.59,11.78,6.56,1785100966166.804
0.021,-0.972,-0.274,-27.56,6.47,4.09,1785100966177.3801
0.01,-1.01,-0.214,-48.77,3.66,4.15,1785100966190.2888
0.005,-1.018,-0.187,-55.42,2.9,5.13,1785100966196.1182
0.007,-1.004,-0.19,-48.07,2.35,7.05,1785100966206.429
0.023,-0.971,-0.203,-36.65,-0.43,9.22,1785100966216.8372
0.035,-0.965,-0.238,-29.33,-2.9,11.32,1785100966227.689
0.031,-0.986,-0.282,-28.75,-3.6,10.71,1785100966240.778
0.034,-1.035,-0.294,-31.89,-2.93,7.2,1785100966246.649
0.018,-1.074,-0.287,-34.61,-2.38,3.36,1785100966256.835
-0.024,-1.065,-0.28,-34.55,-1.53,3.27,1785100966267.3088
-0.033,-1.036,-0.334,-32.26,-0.7,5.58,1785100966280.449
-0.012,-1.025,-0.354,-31.8,-0.55,6.59,1785100966286.263
-0.003,-1.037,-0.332,-31.5,-2.2,5.46,1785100966296.4292
-0.004,-1.043,-0.308,-32.2,-4.24,3.57,1785100966306.9219
-0.002,-1.038,-0.335,-32.44,-4.97,1.16,1785100966317.3198
-0.011,-1.02,-0.344,-34.52,-5.55,-1.59,1785100966330.559
-0.009,-1.009,-0.351,-42.39,-8.06,-4.94,1785100966336.3928
-0.01,-1.02,-0.372,-52.25,-9.06,-8.76,1785100966346.7751
-0.029,-1.022,-0.347,-57.74,-9.43,-9.49,1785100966357.2358
-0.048,-0.977,-0.33,-56.22,-10.62,-8.0,1785100966370.2642
-0.032,-0.951,-0.341,-47.55,-10.71,-7.17,1785100966376.1333
-0.033,-0.943,-0.354,-35.74,-10.19,-9.19,1785100966386.6409
-0.036,-0.914,-0.364,-25.03,-9.83,-10.1,1785100966397.0771
-0.026,-0.955,-0.37,-13.79,-9.16,-10.9,1785100966410.321
-0.047,-0.948,-0.39,-6.07,-8.39,-14.5,1785100966416.1548
-0.045,-0.928,-0.396,-0.06,-7.02,-14.95,1785100966426.388
-0.045,-0.922,-0.42,4.06,-5.68,-15.69,1785100966436.765
-0.046,-0.922,-0.438,6.59,-3.2,-15.81,1785100966447.17
-0.046,-0.925,-0.453,10.35,-0.73,-15.44,1785100966460.546
-0.06,-0.929,-0.458,16.08,1.22,-16.54,1785100966466.467
-0.079,-0.932,-0.415,24.75,3.36,-15.44,1785100966476.738
-0.049,-0.945,-0.381,34.42,5.74,-14.31,1785100966487.186
-0.023,-0.931,-0.391,38.33,6.29,-15.81,1785100966500.6367
-0.043,-0.909,-0.374,36.53,6.32,-17.52,1785100966506.431
-0.041,-0.873,-0.336,29.82,5.04,-16.3,1785100966516.604
-0.031,-0.851,-0.308,22.28,3.51,-13.03,1785100966527.2378
-0.026,-0.844,-0.287,18.28,2.72,-9.98,1785100966540.549
-0.007,-0.847,-0.308,19.38,2.14,-8.39,1785100966546.4128
-0.003,-0.85,-0.319,23.44,1.59,-5.86,1785100966556.226
0.027,-0.844,-0.348,26.0,1.43,-2.38,1785100966566.854
0.05,-0.846,-0.391,28.81,2.99,0.76,1785100966577.097
0.039,-0.849,-0.418,30.46,5.16,3.05,1785100966590.335
0.017,-0.855,-0.396,25.48,6.07,4.64,1785100966595.98
0.031,-0.844,-0.339,11.6,4.49,7.14,1785100966606.229
0.027,-0.849,-0.321,-0.89,3.63,8.33,1785100966616.7522
0.03,-0.884,-0.315,-9.13,2.32,8.3,1785100966626.948
0.023,-0.939,-0.302,-14.65,0.34,7.11,1785100966640.4229
0.018,-0.944,-0.323,-18.77,0.03,7.45,1785100966645.9739
0.023,-0.925,-0.346,-21.67,0.21,10.74,1785100966656.342
0.031,-0.95,-0.361,-22.19,0.34,12.18,1785100966666.892
0.029,-0.987,-0.346,-20.33,0.64,11.23,1785100966680.151
0.014,-1.003,-0.331,-15.32,1.46,11.05,1785100966685.7478
0.029,-0.98,-0.357,-11.05,3.05,12.51,1785100966696.254
0.041,-1.002,-0.385,-5.98,6.44,12.97,1785100966706.7651
0.049,-1.037,-0.407,-4.09,8.51,11.05,1785100966717.1882
0.031,-1.04,-0.415,-7.26,9.61,8.88,1785100966730.536
0.017,-0.996,-0.388,-12.97,8.51,10.22,1785100966736.021
0.029,-0.985,-0.337,-15.87,6.2,12.82,1785100966746.475
0.026,-1.004,-0.317,-17.21,3.39,10.71,1785100966757.118
0.0,-1.007,-0.33,-19.93,1.89,7.2,1785100966770.356
-0.011,-0.992,-0.328,-22.71,0.52,6.41,1785100966775.979
0.005,-0.97,-0.348,-26.86,-1.43,4.82,1785100966786.124
-0.011,-0.975,-0.364,-33.39,-2.84,0.92,1785100966796.76
-0.031,-0.958,-0.368,-39.58,-3.81,-2.08,1785100966807.2122
-0.02,-0.986,-0.354,-36.07,-3.72,-2.53,1785100966820.8262
-0.018,-1.02,-0.366,-25.76,-3.11,-5.28,1785100966826.757
-0.042,-1.012,-0.387,-15.5,-1.59,-8.15,1785100966836.71
-0.054,-0.959,-0.375,-8.79,-0.85,-7.6,1785100966846.8472
-0.037,-0.954,-0.381,-1.5,-0.55,-7.11,1785100966857.3708
-0.029,-0.96,-0.399,4.33,0.58,-9.4,1785100966870.4053
-0.028,-0.955,-0.414,8.33,2.5,-11.78,1785100966876.6301
-0.033,-0.921,-0.432,11.51,4.43,-12.05,1785100966886.401
-0.029,-0.902,-0.44,14.01,5.98,-11.32,1785100966896.975
-0.029,-0.887,-0.442,13.58,6.62,-12.6,1785100966910.219
-0.04,-0.894,-0.418,13.92,6.74,-14.07,1785100966915.8132
-0.049,-0.913,-0.372,17.09,6.16,-15.32,1785100966926.5798
-0.044,-0.932,-0.334,23.13,5.16,-16.3,1785100966937.059
-0.05,-0.924,-0.324,28.57,3.3,-16.94,1785100966950.145
-0.052,-0.883,-0.307,26.37,0.46,-15.5,1785100966955.8079
-0.045,-0.854,-0.271,17.64,-4.24,-12.54,1785100966966.2761
-0.025,-0.854,-0.238,11.47,-7.2,-9.06,1785100966976.821
-0.004,-0.873,-0.254,13.82,-6.96,-7.63,1785100966989.974
0.012,-0.877,-0.325,19.29,-5.86,-7.81,1785100966996.257
0.028,-0.864,-0.398,23.04,-4.15,-6.01,1785100967005.985
0.041,-0.843,-0.429,29.45,-0.49,-1.04,1785100967016.3892
0.036,-0.794,-0.43,37.6,2.99,4.52,1785100967027.1758
0.05,-0.792,-0.431,38.12,4.33,7.81,1785100967040.4631
0.033,-0.855,-0.425,24.54,3.39,4.27,1785100967046.282
0.016,-0.895,-0.395,-2.96,1.16,0.06,1785100967055.9832
0.021,-0.937,-0.369,-22.92,1.68,0.34,1785100967067.014
0.017,-0.942,-0.374,-23.8,3.69,3.05,1785100967076.951
0.009,-0.902,-0.346,-16.36,4.61,8.91,1785100967090.132
0.029,-0.885,-0.319,-10.68,4.15,13.37,1785100967096.411
0.046,-0.922,-0.328,-8.79,3.05,12.97,1785100967106.584
0.039,-0.958,-0.343,-10.13,2.2,10.77,1785100967116.96
0.039,-0.97,-0.338,-13.4,1.74,10.38,1785100967130.2678
0.053,-0.978,-0.348,-15.26,1.86,11.05,1785100967135.899
0.051,-1.005,-0.39,-14.4,3.51,11.23,1785100967146.463
0.04,-1.016,-0.412,-15.66,4.21,11.11,1785100967157.0828
0.031,-1.017,-0.415,-18.98,3.91,12.09,1785100967170.434
0.027,-1.002,-0.419,-20.97,4.18,14.59,1785100967176.316
0.024,-0.979,-0.413,-20.42,4.97,16.24,1785100967186.6182
0.027,-0.954,-0.396,-19.17,5.07,16.17,1785100967196.9722
0.037,-0.962,-0.39,-17.88,4.27,14.01,1785100967210.16
0.034,-0.992,-0.389,-18.52,3.11,10.16,1785100967215.893
0.023,-1.025,-0.37,-19.71,1.53,7.11,1785100967226.35
0.007,-1.038,-0.368,-20.02,-0.64,4.43,1785100967236.804
0.007,-1.022,-0.355,-22.25,-2.66,2.23,1785100967247.224
-0.007,-1.018,-0.36,-24.84,-4.61,0.98,1785100967260.547
-0.026,-0.996,-0.358,-26.0,-5.04,0.7,1785100967266.1287
-0.017,-0.992,-0.344,-22.22,-6.07,0.31,1785100967276.4238
0.0,-1.008,-0.36,-15.47,-6.65,-3.23,1785100967286.7788
-0.004,-0.997,-0.385,-9.34,-6.13,-7.75,1785100967297.152
-0.006,-0.996,-0.409,-3.51,-5.07,-10.1,1785100967310.361
-0.006,-0.996,-0.409,0.67,-4.06,-12.02,1785100967315.931
-0.011,-0.985,-0.429,2.72,-2.23,-13.28,1785100967326.4792
-0.024,-0.954,-0.428,2.99,-0.49,-12.82,1785100967336.8499
-0.027,-0.912,-0.419,3.39,0.95,-13.31,1785100967347.3123
-0.019,-0.914,-0.408,3.39,0.95,-13.31,1785100967360.509
-0.017,-0.919,-0.407,1.68,1.77,-16.57,1785100967366.151
-0.03,-0.9,-0.386,-1.56,1.74,-18.59,1785100967376.336
-0.021,-0.887,-0.363,-1.19,0.73,-18.1,1785100967386.8152
-0.012,-0.871,-0.373,3.54,0.73,-17.58,1785100967400.4229
-0.011,-0.878,-0.382,10.8,1.31,-17.12,1785100967406.2632
-0.021,-0.878,-0.389,14.65,0.52,-17.18,1785100967416.477
-0.021,-0.878,-0.4,16.66,-0.18,-15.81,1785100967426.9177
-0.013,-0.894,-0.413,19.93,0.27,-14.53,1785100967440.417
-0.021,-0.876,-0.43,21.85,1.5,-13.79,1785100967446.362
-0.021,-0.87,-0.429,23.44,3.14,-11.51,1785100967456.355
-0.022,-0.873,-0.414,25.88,4.15,-9.86,1785100967466.948
-0.022,-0.87,-0.393,28.47,5.25,-8.45,1785100967477.488
-0.012,-0.844,-0.371,29.51,6.01,-6.93,1785100967490.686
0.011,-0.836,-0.369,28.05,5.65,-5.83,1785100967496.127
0.02,-0.855,-0.348,25.03,5.1,-6.01,1785100967506.5999
0.018,-0.865,-0.323,20.26,3.36,-5.65,1785100967517.11
0.02,-0.86,-0.313,15.08,1.4,-3.72,1785100967530.425
0.029,-0.871,-0.303,11.51,0.21,-1.59,1785100967536.151
0.033,-0.865,-0.307,7.87,-2.26,0.67,1785100967546.2
0.047,-0.879,-0.33,7.45,-3.11,3.57,1785100967556.558
0.055,-0.892,-0.348,9.86,-2.04,7.05,1785100967566.91
0.071,-0.895,-0.364,15.99,1.37,10.68,1785100967577.53
0.065,-0.876,-0.371,20.94,2.93,11.96,1785100967590.803
0.084,-0.898,-0.37,18.49,2.59,13.86,1785100967596.677
0.057,-0.923,-0.4,12.57,3.2,13.49,1785100967606.996
0.055,-0.924,-0.376,-0.73,2.9,13.52,1785100967617.4788
0.071,-0.946,-0.344,-11.75,3.27,13.12,1785100967630.74
0.067,-0.946,-0.309,-14.34,4.91,13.89,1785100967636.5251
0.066,-0.909,-0.316,-10.56,5.43,16.08,1785100967646.85
0.072,-0.895,-0.343,-7.39,3.81,18.43,1785100967657.622
0.081,-0.941,-0.36,-9.34,2.38,17.79,1785100967670.6099
0.074,-0.993,-0.347,-13.92,2.14,15.38,1785100967676.5298
0.06,-1.009,-0.337,-14.44,2.78,14.5,1785100967686.6528
0.049,-1.05,-0.362,-8.42,4.58,13.37,1785100967697.145
0.018,-1.046,-0.378,-3.48,5.34,12.05,1785100967710.5222
0.013,-1.025,-0.374,-1.37,5.13,14.4,1785100967716.257
0.028,-1.035,-0.361,-1.07,4.21,15.75,1785100967726.303
0.035,-1.027,-0.374,-5.07,2.38,13.37,1785100967736.825
0.023,-1.009,-0.375,-11.47,1.46,11.44,1785100967747.4502
0.012,-0.966,-0.372,-17.98,-0.73,11.26,1785100967760.765
0.017,-0.933,-0.37,-19.78,-1.68,11.87,1785100967766.197
0.024,-0.977,-0.361,-14.53,-1.19,8.85,1785100967776.527
0.001,-1.023,-0.362,-10.59,-1.16,1.62,1785100967786.966
-0.02,-1.038,-0.339,-10.99,-2.72,-3.11,1785100967800.428
-0.022,-1.039,-0.329,-12.27,-5.1,-5.52,1785100967805.773
-0.024,-1.034,-0.34,-10.38,-5.86,-6.96,1785100967816.384
-0.034,-1.002,-0.355,-6.1,-5.25,-6.96,1785100967826.729
-0.041,-0.954,-0.362,-0.76,-5.04,-5.65,1785100967837.1301
-0.025,-0.937,-0.371,2.84,-5.25,-4.82,1785100967847.475
-0.02,-0.928,-0.374,2.66,-5.16,-6.01,1785100967860.738
-0.025,-0.918,-0.371,2.2,-5.04,-7.51,1785100967866.369
-0.03,-0.917,-0.375,2.23,-5.07,-9.46,1785100967876.39
-0.031,-0.935,-0.377,4.33,-4.46,-11.29,1785100967886.902
-0.032,-0.966,-0.381,7.39,-4.03,-13.79,1785100967897.1462
-0.044,-0.954,-0.403,7.2,-4.03,-16.08,1785100967910.3967
-0.043,-0.902,-0.402,4.33,-3.66,-14.34,1785100967916.414
-0.033,-0.875,-0.412,3.27,-3.78,-11.72,1785100967926.272
-0.042,-0.838,-0.419,2.84,-3.91,-10.22,1785100967937.029
-0.041,-0.859,-0.395,5.49,-3.54,-8.24,1785100967947.621
-0.032,-0.883,-0.355,8.58,-4.21,-8.15,1785100967960.665
-0.028,-0.952,-0.357,15.59,-3.85,-10.32,1785100967966.492
-0.047,-0.965,-0.37,19.93,-3.36,-12.33,1785100967976.689
-0.053,-0.937,-0.353,19.14,-3.51,-9.74,1785100967987.118
-0.044,-0.911,-0.37,12.45,-6.41,-5.68,1785100968000.3462
-0.04,-0.918,-0.333,5.62,-7.39,-2.78,1785100968006.102
-0.023,-0.904,-0.328,1.22,-7.72,-1.37,1785100968016.156
-0.016,-0.911,-0.398,3.17,-6.29,-0.43,1785100968026.3413
-0.016,-0.933,-0.427,5.19,-5.58,0.85,1785100968036.887
-0.004,-0.925,-0.422,3.45,-5.52,2.56,1785100968047.272
0.015,-0.93,-0.395,5.34,-2.26,3.97,1785100968060.5928
0.012,-0.907,-0.415,5.65,-0.55,2.62,1785100968066.36
0.002,-0.844,-0.433,-4.24,-1.92,4.52,1785100968076.311
0.019,-0.857,-0.407,-10.62,-1.56,8.61,1785100968086.6958
0.013,-0.924,-0.377,-11.08,-0.24,5.74,1785100968097.154
0.007,-0.931,-0.339,-12.51,0.61,3.72,1785100968110.505
0.019,-0.913,-0.343,-9.03,1.59,7.11,1785100968116.197
0.031,-0.885,-0.387,-5.25,1.74,10.68,1785100968126.2998
0.059,-0.913,-0.392,-9.31,0.89,10.65,1785100968136.681
0.053,-0.976,-0.383,-14.65,1.25,7.14,1785100968146.961
0.038,-1.017,-0.365,-13.12,3.17,6.04,1785100968160.4622
0.031,-0.985,-0.364,-7.17,4.91,6.99,1785100968166.361
0.042,-0.922,-0.364,-3.36,6.2,10.22,1785100968176.285
0.06,-0.935,-0.355,-0.43,8.27,11.81,1785100968186.9968
0.058,-0.974,-0.368,0.15,10.25,7.57,1785100968197.191
0.043,-1.01,-0.377,-2.47,11.23,2.72,1785100968210.5168
0.033,-0.999,-0.386,-8.18,10.5,1.16,1785100968216.321
0.043,-0.96,-0.381,-13.21,9.67,2.93,1785100968228.123
0.056,-0.973,-0.361,-14.01,8.91,4.46,1785100968236.612
0.054,-0.998,-0.361,-14.65,7.87,2.69,1785100968247.073
0.034,-1.009,-0.344,-14.83,6.74,1.34,1785100968260.597
0.018,-0.987,-0.322,-13.89,4.52,1.4,1785100968266.5688
0.017,-0.964,-0.302,-10.74,2.78,1.59,1785100968276.564
0.005,-0.969,-0.287,-5.62,1.65,0.09,1785100968286.849
-0.014,-0.963,-0.264,-4.82,-0.82,-2.14,1785100968297.3298
-0.01,-0.991,-0.26,-5.77,-3.27,-5.43,1785100968310.534
-0.029,-1.007,-0.282,-5.77,-4.91,-10.83,1785100968316.243
-0.056,-0.939,-0.299,-5.07,-6.65,-12.67,1785100968326.333
-0.039,-0.899,-0.312,-2.62,-8.18,-10.71,1785100968336.8242
