ax,ay,az,gx,gy,gz,timestamp_ms
0.088,-0.939,-0.188,-24.9,-3.63,4.85,1785101100223.047
0.081,-0.947,-0.194,-24.38,-6.74,4.97,1785101100223.298
0.084,-0.951,-0.203,-25.03,-10.32,4.49,1785101100223.5469
0.097,-0.973,-0.21,-25.15,-12.85,4.46,1785101100223.796
0.098,-0.983,-0.23,-23.71,-14.5,3.17,1785101100224.0388
0.095,-0.99,-0.26,-20.14,-15.05,1.65,1785101100224.29
0.087,-0.966,-0.281,-17.27,-15.66,0.79,1785101100224.54
0.093,-0.971,-0.296,-13.06,-15.35,1.22,1785101100224.787
0.091,-0.998,-0.322,-8.03,-14.04,0.24,1785101100225.023
0.085,-1.005,-0.348,-4.0,-11.57,-0.82,1785101100225.275
0.082,-0.99,-0.357,-1.46,-8.76,-1.16,1785101100225.5308
0.081,-0.965,-0.366,1.89,-5.8,-0.52,1785101100225.7842
0.089,-0.939,-0.368,2.84,-3.23,0.12,1785101100226.017
0.089,-0.956,-0.363,0.55,-1.1,-1.28,1785101100226.263
0.07,-0.934,-0.332,-3.72,-0.37,-3.78,1785101100226.493
0.083,-0.949,-0.279,-6.84,-2.26,-4.49,1785101100226.741
0.087,-1.01,-0.235,-7.11,-4.24,-8.0,1785101100226.971
0.087,-1.01,-0.235,-4.82,-6.53,-10.13,1785101100227.1948
0.077,-1.01,-0.216,-0.64,-9.19,-7.93,1785101100227.4182
0.076,-0.989,-0.206,2.23,-11.63,-5.55,1785101100227.644
0.091,-0.971,-0.204,5.28,-12.85,-5.37,1785101100227.875
0.105,-0.97,-0.234,5.28,-12.85,-5.37,1785101100228.101
0.108,-0.97,-0.261,7.84,-11.99,-6.29,1785101100228.341
0.118,-0.948,-0.336,10.53,-10.59,-6.01,1785101100228.613
0.128,-0.905,-0.402,13.09,-7.57,-2.93,1785101100228.9001
0.139,-0.885,-0.396,16.3,-3.08,1.8,1785101100229.158
0.146,-0.901,-0.36,16.75,-0.27,2.59,1785101100229.428
0.138,-0.943,-0.313,9.64,-0.15,-1.07,1785101100229.655
0.124,-0.998,-0.28,-0.46,-0.31,-6.5,1785101100229.886
0.102,-1.015,-0.259,-4.85,1.34,-9.34,1785101100230.1062
0.1,-0.953,-0.26,-1.34,3.39,-5.92,1785101100230.34
0.109,-0.866,-0.25,5.4,4.39,1.34,1785101100230.571
0.136,-0.879,-0.23,9.06,3.94,5.01,1785101100230.81
0.133,-0.944,-0.261,5.55,2.26,1.68,1785101100231.055
0.121,-0.978,-0.287,-2.75,1.01,-0.95,1785101100231.314
0.124,-0.99,-0.281,-6.87,1.53,-0.34,1785101100231.549
0.127,-0.997,-0.283,-6.32,2.47,-0.76,1785101100231.773
0.111,-0.978,-0.3,-7.29,3.97,-1.53,1785101100231.997
0.09,-0.942,-0.299,-10.41,4.88,0.43,1785101100232.2131
0.092,-0.895,-0.286,-13.4,4.0,3.97,1785101100232.4219
0.11,-0.923,-0.285,-13.25,2.84,4.27,1785101100232.649
0.107,-0.958,-0.29,-13.76,1.53,0.79,1785101100232.875
0.103,-0.979,-0.267,-13.67,0.18,-0.98,1785101100233.085
0.107,-0.994,-0.256,-9.67,-1.25,-0.76,1785101100233.2979
0.108,-0.993,-0.266,-3.05,-1.95,0.34,1785101100233.508
0.103,-0.977,-0.285,3.2,-2.29,2.72,1785101100233.7122
0.097,-0.942,-0.286,7.6,-2.99,5.71,1785101100233.9368
0.097,-0.911,-0.29,11.66,-2.87,6.99,1785101100234.147
0.102,-0.935,-0.295,14.4,-2.14,5.4,1785101100234.3591
0.102,-0.969,-0.301,12.6,-1.83,1.46,1785101100234.594
0.094,-0.977,-0.292,8.97,-1.95,-1.43,1785101100234.798
0.099,-0.988,-0.294,8.12,-1.98,-2.14,1785101100234.999
0.109,-1.005,-0.315,7.69,-1.43,-3.05,1785101100235.199
0.102,-0.985,-0.32,3.08,-1.07,-4.0,1785101100235.4019
0.098,-0.962,-0.317,-1.95,-0.58,-3.27,1785101100235.6028
0.1,-0.946,-0.311,-4.21,0.21,-2.26,1785101100235.809
0.098,-0.933,-0.316,-3.81,1.1,-2.01,1785101100236.011
0.104,-0.953,-0.307,-3.36,1.95,-1.98,1785101100236.216
0.106,-0.965,-0.28,-4.06,1.65,-3.14,1785101100236.424
0.101,-0.985,-0.262,-2.99,1.16,-4.79,1785101100236.622
0.092,-0.986,-0.263,-0.03,1.01,-5.89,1785101100236.825
0.086,-0.96,-0.265,3.39,0.58,-4.88,1785101100237.029
0.102,-0.942,-0.289,5.4,0.0,-2.99,1785101100237.238
0.113,-0.959,-0.316,6.04,0.37,-2.66,1785101100237.438
0.113,-0.961,-0.326,5.37,1.04,-3.17,1785101100237.67
0.121,-0.965,-0.337,5.13,2.11,-3.27,1785101100237.877
0.115,-0.959,-0.336,4.09,3.48,-3.51,1785101100238.078
0.111,-0.951,-0.33,3.17,4.46,-3.33,1785101100238.2788
0.103,-0.944,-0.317,2.78,5.28,-3.45,1785101100238.4807
0.099,-0.94,-0.296,4.67,6.47,-2.96,1785101100238.6812
0.107,-0.97,-0.27,8.85,7.42,-2.59,1785101100238.882
0.097,-0.974,-0.259,10.83,6.71,-4.0,1785101100239.0862
0.091,-0.979,-0.262,12.33,5.8,-3.42,1785101100239.292
0.095,-0.992,-0.269,15.53,5.71,-1.89,1785101100239.4932
0.109,-0.984,-0.276,18.43,6.16,0.15,1785101100239.6958
0.128,-0.936,-0.277,17.73,5.58,2.35,1785101100239.899
0.135,-0.913,-0.265,12.51,4.79,3.23,1785101100240.0918
0.13,-0.904,-0.271,4.15,2.35,1.77,1785101100240.2827
0.122,-0.964,-0.234,-0.73,0.64,0.4,1785101100240.4932
0.113,-0.988,-0.211,-2.01,-0.85,-0.67,1785101100240.711
0.11,-0.97,-0.223,-0.15,-2.41,1.01,1785101100240.9448
0.125,-0.955,-0.227,2.14,-1.95,3.17,1785101100241.136
0.142,-0.953,-0.243,4.18,-0.82,3.36,1785101100241.3271
0.14,-0.952,-0.246,2.35,-0.43,2.84,1785101100241.517
0.143,-0.963,-0.243,-1.74,-1.46,2.41,1785101100241.7148
0.156,-0.975,-0.26,-4.12,-1.95,1.92,1785101100241.919
0.141,-0.98,-0.277,-3.51,-1.22,1.83,1785101100242.113
0.124,-0.944,-0.285,-8.03,-2.35,3.48,1785101100242.305
0.145,-0.947,-0.259,-17.09,-3.94,6.84,1785101100242.5078
0.153,-0.989,-0.257,-20.05,-4.21,5.74,1785101100242.7148
0.134,-0.985,-0.274,-17.06,-3.14,3.11,1785101100242.906
0.128,-0.953,-0.288,-11.78,-2.04,3.36,1785101100243.1099
0.134,-0.951,-0.303,-7.45,-0.95,5.07,1785101100243.31
0.136,-0.966,-0.308,-7.35,-0.03,5.07,1785101100243.505
0.131,-0.991,-0.314,-10.32,0.09,3.23,1785101100243.7031
0.108,-0.989,-0.313,-15.38,-1.16,2.08,1785101100243.9028
0.112,-0.99,-0.288,-20.08,-2.84,2.99,1785101100244.1
0.116,-1.01,-0.277,-21.12,-3.78,2.66,1785101100244.2932
0.108,-0.994,-0.28,-21.36,-3.94,2.5,1785101100244.5
0.111,-0.995,-0.294,-20.54,-4.33,3.91,1785101100244.706
0.114,-0.993,-0.32,-20.29,-4.46,3.27,1785101100244.896
0.114,-0.985,-0.333,-21.61,-3.72,1.25,1785101100245.092
0.113,-0.969,-0.333,-23.19,-3.23,-1.01,1785101100245.3142
0.105,-0.963,-0.332,-23.04,-2.66,-2.78,1785101100245.5051
0.099,-0.966,-0.319,-20.45,-1.95,-3.45,1785101100245.7012
0.092,-0.978,-0.312,-17.58,-1.74,-4.67,1785101100245.8958
0.082,-0.948,-0.298,-16.39,-1.8,-4.85,1785101100246.083
0.094,-0.935,-0.298,-13.89,-2.08,-3.6,1785101100246.269
0.097,-0.928,-0.305,-11.78,-2.41,-3.72,1785101100246.4631
0.092,-0.921,-0.306,-10.07,-2.35,-3.72,1785101100246.6628
0.088,-0.894,-0.334,-9.37,-2.17,-3.6,1785101100246.86
0.103,-0.886,-0.348,-6.78,-0.95,-2.35,1785101100247.082
0.113,-0.925,-0.348,-1.04,-0.4,-2.62,1785101100247.2917
0.108,-0.961,-0.345,2.5,0.58,-5.13,1785101100247.5
0.099,-0.994,-0.338,5.55,2.26,-7.05,1785101100247.712
0.094,-1.002,-0.338,9.74,4.55,-8.27,1785101100247.9182
0.094,-0.979,-0.341,13.43,6.62,-7.42,1785101100248.16
0.089,-0.942,-0.343,15.69,7.32,-5.28,1785101100248.368
0.087,-0.919,-0.339,18.16,7.29,-2.69,1785101100248.5618
0.101,-0.942,-0.322,22.43,6.99,-0.82,1785101100248.7947
0.1,-0.93,-0.305,23.74,5.86,-1.25,1785101100248.9788
0.103,-0.905,-0.274,20.05,3.75,-0.06,1785101100249.171
0.113,-0.897,-0.235,10.59,0.55,0.64,1785101100249.3708
0.121,-0.892,-0.224,1.68,-3.57,0.24,1785101100249.5571
0.123,-0.942,-0.209,1.5,-6.23,-0.61,1785101100249.742
0.131,-0.963,-0.215,3.11,-7.66,-1.28,1785101100249.919
0.132,-0.96,-0.267,7.66,-7.32,-0.76,1785101100250.0952
0.132,-0.941,-0.322,13.18,-5.68,0.85,1785101100250.283
0.134,-0.921,-0.357,17.88,-3.17,3.17,1785101100250.467
0.138,-0.906,-0.369,19.5,-1.86,6.04,1785101100250.667
0.133,-0.922,-0.365,16.97,-1.43,7.51,1785101100250.849
0.135,-0.933,-0.343,7.93,-1.74,6.81,1785101100251.0369
0.136,-0.96,-0.322,-2.29,-1.8,4.21,1785101100251.224
0.127,-0.988,-0.305,-7.66,-1.04,2.2,1785101100251.401
0.134,-1.013,-0.297,-5.74,0.64,2.11,1785101100251.586
0.128,-1.012,-0.295,-0.76,1.59,2.87,1785101100251.77
0.123,-0.968,-0.3,0.09,0.98,4.0,1785101100251.947
0.132,-0.946,-0.307,-3.45,1.13,5.37,1785101100252.141
0.139,-0.964,-0.309,-6.93,2.44,5.77,1785101100252.3257
0.133,-0.979,-0.316,-7.57,3.78,5.16,1785101100252.51
0.121,-0.981,-0.332,-6.74,4.49,5.31,1785101100252.688
0.115,-0.962,-0.335,-6.9,4.18,6.53,1785101100252.876
0.113,-0.942,-0.331,-7.39,3.14,8.12,1785101100253.064
0.122,-0.924,-0.335,-9.06,1.62,9.37,1785101100253.24
0.136,-0.955,-0.318,-9.0,0.85,9.67,1785101100253.427
0.136,-0.955,-0.318,-7.72,0.31,7.14,1785101100253.6143
0.139,-0.991,-0.31,-4.21,0.24,3.66,1785101100253.7898
0.128,-1.027,-0.298,0.85,0.09,1.31,1785101100253.975
0.111,-1.068,-0.287,4.61,-0.18,0.7,1785101100254.1702
0.087,-1.064,-0.296,3.63,-0.7,3.08,1785101100254.364
0.068,-0.995,-0.313,3.63,-0.7,3.08,1785101100254.543
0.062,-0.882,-0.314,-3.05,-1.83,7.9,1785101100254.721
0.091,-0.879,-0.318,-7.2,-1.53,10.19,1785101100254.9
0.098,-0.947,-0.317,-7.66,0.0,4.91,1785101100255.075
0.081,-0.982,-0.306,-7.48,1.04,-2.17,1785101100255.252
0.067,-0.975,-0.301,-6.26,1.25,-5.22,1785101100255.43
0.071,-0.958,-0.306,-2.66,2.01,-5.01,1785101100255.604
0.075,-0.939,-0.312,2.11,3.57,-4.64,1785101100255.782
0.08,-0.932,-0.321,6.65,5.07,-4.33,1785101100255.958
0.075,-0.918,-0.33,7.39,5.13,-4.97,1785101100256.129
0.073,-0.905,-0.332,4.49,3.6,-6.13,1785101100256.304
0.079,-0.919,-0.303,2.14,2.5,-6.35,1785101100256.481
0.08,-0.961,-0.262,5.07,2.66,-6.81,1785101100256.66
0.069,-0.953,-0.246,9.25,2.35,-7.63,1785101100256.8318
0.076,-0.944,-0.214,12.76,1.25,-6.2,1785101100257.0088
0.096,-0.968,-0.188,15.08,-0.55,-6.35,1785101100257.188
0.113,-0.976,-0.191,16.91,-1.37,-8.58,1785101100257.3818
0.116,-0.96,-0.207,17.61,-2.26,-8.42,1785101100257.58
0.137,-0.962,-0.25,18.62,-2.56,-5.92,1785101100257.7732
0.144,-0.931,-0.315,21.39,-1.4,-2.9,1785101100257.954
0.133,-0.888,-0.376,25.82,0.06,2.5,1785101100258.1272
0.136,-0.884,-0.351,25.91,1.01,7.57,1785101100258.308
0.15,-0.967,-0.312,14.86,1.74,0.31,1785101100258.6711
0.138,-0.983,-0.316,6.13,2.44,-2.69,1785101100258.84
-0.032,-0.916,-0.396,-26.64,-2.47,1.46,1785101100259.171
-0.107,-0.965,-0.36,-30.73,-3.72,-3.17,1785101100259.341
-0.168,-1.029,-0.295,-30.73,-5.62,-7.97,1785101100259.516
-0.213,-1.187,-0.247,-22.68,-9.09,-17.15,1785101100269.3848
-0.287,-1.363,-0.294,-17.3,-14.5,-35.58,1785101100282.6628
-0.385,-1.401,-0.37,-24.81,-19.07,-56.86,1785101100288.294
-0.436,-1.345,-0.401,-35.92,-20.81,-73.27,1785101100299.1118
-0.454,-1.286,-0.453,-42.76,-20.26,-93.02,1785101100312.5398
-0.514,-1.157,-0.5,-54.72,-17.4,-118.32,1785101100318.134
-0.591,-1.007,-0.482,-69.37,-11.17,-138.31,1785101100329.0
-0.612,-0.924,-0.417,-77.12,-4.15,-148.93,1785101100342.341
-0.509,-0.967,-0.38,-77.79,0.0,-153.69,1785101100347.949
-0.372,-0.998,-0.328,-77.52,0.34,-159.25,1785101100358.721
-0.283,-0.938,-0.289,-75.41,-2.78,-161.47,1785101100369.3362
-0.223,-0.84,-0.322,-68.0,-6.32,-156.13,1785101100382.679
-0.172,-0.747,-0.402,-59.11,-7.14,-147.65,1785101100388.326
-0.125,-0.664,-0.459,-50.69,-3.85,-140.54,1785101100399.0981
-0.11,-0.572,-0.431,-38.64,1.65,-133.21,1785101100412.4531
-0.036,-0.497,-0.406,-22.1,3.27,-122.35,1785101100418.0989
0.126,-0.438,-0.408,-5.19,1.59,-111.09,1785101100428.746
0.275,-0.376,-0.411,8.51,-1.53,-101.69,1785101100439.289
0.37,-0.309,-0.44,19.26,-4.09,-91.56,1785101100452.575
0.442,-0.301,-0.503,29.15,-4.18,-79.62,1785101100465.5317
0.476,-0.319,-0.58,34.0,-0.27,-69.7,1785101100468.78
0.481,-0.345,-0.593,35.55,7.54,-61.43,1785101100479.216
0.483,-0.411,-0.533,39.89,13.98,-53.25,1785101100492.353
0.506,-0.459,-0.425,46.66,14.98,-45.35,1785101100498.103
0.583,-0.487,-0.343,55.21,9.8,-36.32,1785101100508.7092
0.667,-0.483,-0.274,60.82,2.72,-24.75,1785101100519.243
0.684,-0.49,-0.186,64.64,-5.19,-10.35,1785101100532.5398
0.653,-0.525,-0.19,70.04,-13.64,2.75,1785101100538.14
0.608,-0.567,-0.306,78.25,-16.91,12.18,1785101100548.81
0.55,-0.618,-0.393,88.69,-14.19,19.44,1785101100562.064
0.523,-0.639,-0.402,92.41,-13.92,26.34,1785101100567.816
0.571,-0.636,-0.444,82.83,-17.55,32.99,1785101100578.46
0.614,-0.648,-0.453,64.36,-19.53,38.79,1785101100589.109
0.614,-0.699,-0.395,50.97,-21.85,42.15,1785101100602.497
0.583,-0.74,-0.373,42.85,-27.25,42.91,1785101100608.0918
0.562,-0.766,-0.436,32.75,-31.89,42.82,1785101100618.9849
0.553,-0.796,-0.55,17.67,-32.81,41.54,1785101100632.2
0.552,-0.824,-0.687,-5.86,-30.46,39.06,1785101100637.825
0.532,-0.8,-0.781,-40.71,-24.87,36.41,1785101100648.619
0.516,-0.762,-0.787,-82.03,-19.29,35.74,1785101100659.2551
0.542,-0.755,-0.763,-122.04,-16.45,35.43,1785101100672.4492
0.569,-0.767,-0.714,-153.63,-15.02,33.91,1785101100678.313
0.566,-0.782,-0.636,-170.08,-14.44,32.14,1785101100689.121
0.533,-0.798,-0.576,-167.58,-15.26,30.64,1785101100702.444
0.503,-0.787,-0.537,-150.76,-17.67,30.88,1785101100708.249
0.485,-0.756,-0.536,-125.55,-20.51,33.51,1785101100719.203
0.469,-0.72,-0.553,-96.77,-22.1,36.99,1785101100732.447
0.459,-0.694,-0.608,-67.08,-22.98,40.31,1785101100738.208
0.475,-0.683,-0.67,-38.09,-21.49,41.93,1785101100748.93
0.506,-0.691,-0.711,-12.73,-19.75,39.46,1785101100762.178
0.523,-0.716,-0.732,7.11,-22.16,39.83,1785101100767.9329
0.524,-0.755,-0.73,26.8,-21.52,40.16,1785101100778.5442
0.485,-0.814,-0.756,43.18,-20.33,37.42,1785101100789.169
0.46,-0.851,-0.77,52.1,-19.29,35.22,1785101100802.613
0.445,-0.853,-0.783,55.7,-16.39,32.14,1785101100808.606
0.438,-0.856,-0.814,53.13,-14.28,29.76,1785101100819.114
0.449,-0.862,-0.808,46.33,-10.41,28.69,1785101100832.338
0.452,-0.865,-0.793,39.09,-5.28,26.03,1785101100838.1482
0.46,-0.861,-0.775,30.64,-4.3,25.45,1785101100848.7869
0.473,-0.861,-0.715,24.38,-2.08,24.41,1785101100859.154
0.46,-0.877,-0.666,23.04,2.23,20.02,1785101100872.261
0.432,-0.898,-0.64,23.59,2.59,17.03,1785101100878.3271
0.422,-0.896,-0.602,27.19,1.77,17.4,1785101100888.4731
0.416,-0.887,-0.587,36.32,3.3,17.09,1785101100899.2551
0.422,-0.893,-0.61,47.18,2.93,17.91,1785101100913.306
0.441,-0.876,-0.623,57.8,3.3,17.21,1785101100918.344
0.45,-0.849,-0.637,66.65,5.1,14.89,1785101100928.7888
0.454,-0.828,-0.642,70.53,6.13,12.57,1785101100939.04
0.44,-0.827,-0.616,70.04,6.68,9.34,1785101100949.7659
0.423,-0.853,-0.592,67.96,6.62,6.35,1785101100962.937
0.412,-0.878,-0.582,64.18,5.89,3.69,1785101100968.918
0.405,-0.884,-0.571,59.18,5.62,1.01,1785101100978.871
0.41,-0.871,-0.573,52.8,5.68,-1.04,1785101100989.1882
0.41,-0.871,-0.573,45.01,5.4,-3.27,1785101101002.577
0.42,-0.848,-0.569,36.5,4.3,-5.43,1785101101008.519
0.43,-0.824,-0.556,29.79,2.99,-7.84,1785101101018.444
0.442,-0.827,-0.552,24.2,1.34,-10.32,1785101101029.086
0.434,-0.822,-0.546,18.89,0.0,-10.53,1785101101039.797
0.436,-0.799,-0.51,18.89,0.0,-10.53,1785101101053.0132
0.435,-0.791,-0.511,16.48,-1.16,-10.68,1785101101058.923
0.428,-0.793,-0.514,14.34,-1.8,-11.17,1785101101069.153
0.41,-0.804,-0.502,12.51,-2.62,-11.81,1785101101079.627
0.398,-0.826,-0.496,9.22,-3.63,-13.12,1785101101092.764
0.384,-0.827,-0.493,3.81,-4.24,-14.47,1785101101098.429
0.387,-0.818,-0.485,-0.55,-5.13,-14.62,1785101101108.9438
0.404,-0.807,-0.491,-1.92,-5.92,-14.59,1785101101119.211
0.42,-0.789,-0.493,0.67,-5.43,-14.34,1785101101132.519
0.421,-0.777,-0.486,7.11,-4.94,-14.22,1785101101138.347
0.408,-0.774,-0.467,14.07,-5.19,-13.67,1785101101148.536
0.395,-0.772,-0.443,18.46,-5.86,-13.15,1785101101159.1091
0.364,-0.77,-0.455,19.9,-6.74,-13.28,1785101101169.646
0.333,-0.745,-0.449,15.93,-7.39,-12.51,1785101101182.8767
0.315,-0.764,-0.422,12.48,-7.45,-11.99,1785101101188.988
0.296,-0.822,-0.431,9.55,-8.0,-13.49,1785101101198.981
0.272,-0.895,-0.453,7.57,-6.96,-14.86,1785101101209.4531
0.252,-0.934,-0.464,4.88,-5.58,-14.77,1785101101224.0332
0.258,-0.941,-0.461,2.9,-5.28,-13.21,1785101101228.474
0.273,-0.926,-0.462,4.55,-3.72,-10.62,1785101101238.59
0.274,-0.902,-0.449,11.51,-0.58,-6.9,1785101101249.2642
0.268,-0.888,-0.43,26.22,2.59,-3.11,1785101101260.438
0.266,-0.89,-0.403,44.89,5.13,-0.06,1785101101272.733
0.252,-0.898,-0.384,61.74,6.26,1.77,1785101101278.421
0.231,-0.91,-0.34,73.12,6.59,1.95,1785101101288.8909
0.223,-0.907,-0.295,76.42,4.24,1.13,1785101101299.217
0.247,-0.887,-0.313,73.0,2.26,1.1,1785101101309.751
0.263,-0.897,-0.319,70.22,1.4,1.68,1785101101322.9102
0.269,-0.93,-0.337,71.84,-0.52,0.7,1785101101328.821
0.278,-0.95,-0.359,76.66,-1.04,0.15,1785101101338.892
0.282,-0.932,-0.388,84.23,-0.55,0.98,1785101101349.142
0.284,-0.91,-0.398,92.07,1.04,2.59,1785101101362.566
0.292,-0.913,-0.355,97.99,3.66,3.88,1785101101368.3992
0.294,-0.889,-0.294,99.95,6.07,3.81,1785101101378.562
0.295,-0.851,-0.228,97.6,6.93,4.97,1785101101388.9658
0.283,-0.834,-0.187,93.81,4.97,5.86,1785101101399.468
0.295,-0.823,-0.133,87.04,1.04,6.47,1785101101412.7622
0.323,-0.869,-0.102,84.78,-1.56,6.93,1785101101418.614
0.333,-0.936,-0.069,87.95,-3.54,5.52,1785101101428.643
0.32,-0.985,-0.044,90.85,-7.05,2.62,1785101101439.1328
0.306,-0.999,-0.044,87.83,-12.51,1.07,1785101101449.666
0.301,-0.986,-0.049,76.45,-17.46,1.95,1785101101463.0698
0.305,-0.965,-0.067,58.38,-22.46,4.21,1785101101468.495
0.318,-0.959,-0.092,36.19,-27.01,6.13,1785101101478.909
0.316,-0.963,-0.055,15.29,-30.09,6.13,1785101101489.769
0.308,-0.986,-0.034,4.97,-32.75,5.49,1785101101502.6528
0.296,-1.01,-0.04,2.75,-34.97,5.28,1785101101508.432
0.286,-0.999,-0.054,3.23,-37.35,6.81,1785101101518.919
0.301,-0.993,-0.093,3.69,-40.41,8.64,1785101101529.3638
0.31,-0.95,-0.168,2.35,-42.12,8.85,1785101101542.572
0.317,-0.91,-0.208,-3.39,-41.93,11.2,1785101101548.5598
0.308,-0.909,-0.206,-10.5,-40.47,11.75,1785101101558.6492
0.283,-0.948,-0.173,-15.02,-39.03,9.16,1785101101569.207
0.262,-0.999,-0.172,-15.26,-37.9,5.28,1785101101582.612
0.257,-1.042,-0.189,-13.43,-36.87,2.96,1785101101588.5662
0.245,-1.043,-0.186,-11.78,-35.62,3.39,1785101101598.783
0.234,-1.014,-0.176,-7.93,-34.18,6.35,1785101101609.678
0.236,-0.984,-0.166,-1.59,-32.47,9.61,1785101101619.7078
0.236,-0.993,-0.172,5.31,-31.04,9.92,1785101101632.9558
0.222,-0.991,-0.197,10.1,-29.45,7.39,1785101101638.8691
0.213,-1.003,-0.208,13.18,-27.38,4.76,1785101101649.15
0.198,-1.019,-0.225,14.71,-26.18,0.95,1785101101659.6392
0.193,-1.015,-0.228,12.94,-25.61,-2.93,1785101101672.908
0.197,-1.028,-0.196,8.82,-26.0,-5.86,1785101101678.813
0.187,-1.047,-0.179,7.29,-26.46,-8.42,1785101101688.926
0.167,-1.023,-0.201,9.09,-26.31,-9.0,1785101101699.384
0.154,-0.935,-0.226,10.83,-26.64,-6.23,1785101101712.6812
0.165,-0.904,-0.234,12.51,-27.95,-3.23,1785101101718.521
0.158,-0.918,-0.242,12.05,-28.53,-4.49,1785101101728.9521
0.156,-0.912,-0.21,10.47,-28.05,-5.55,1785101101739.39
0.163,-0.902,-0.193,11.6,-28.78,-5.58,1785101101752.599
0.172,-0.917,-0.154,12.67,-28.44,-5.52,1785101101758.6602
0.171,-0.907,-0.12,11.54,-28.9,-5.86,1785101101768.928
0.194,-0.95,-0.117,14.13,-28.5,-6.04,1785101101779.363
0.188,-0.972,-0.127,14.53,-29.21,-6.93,1785101101792.703
0.2,-0.944,-0.12,8.45,-29.76,-5.19,1785101101798.589
0.201,-0.909,-0.112,1.07,-30.09,-3.97,1785101101808.8052
0.201,-0.881,-0.097,-9.43,-32.14,-3.33,1785101101819.0068
0.207,-0.89,-0.088,-20.02,-34.42,-4.36,1785101101829.7642
0.215,-0.899,-0.095,-28.08,-36.1,-4.82,1785101101842.9902
0.244,-0.899,-0.095,-31.89,-36.26,-2.35,1785101101849.0679
0.29,-0.933,-0.12,-30.09,-36.5,0.89,1785101101859.123
0.303,-0.94,-0.172,-26.25,-37.54,2.29,1785101101869.657
0.309,-0.907,-0.195,-22.95,-37.87,5.37,1785101101882.9172
0.3,-0.866,-0.179,-17.73,-37.63,9.55,1785101101889.205
0.284,-0.845,-0.137,-14.01,-38.18,13.67,1785101101899.2751
0.271,-0.875,-0.14,-10.62,-38.73,14.65,1785101101912.451
0.267,-0.911,-0.187,-7.29,-38.61,12.02,1785101101918.3738
0.271,-0.942,-0.236,-2.38,-37.2,10.77,1785101101928.951
0.277,-0.998,-0.26,2.08,-35.52,11.72,1785101101939.306
0.248,-0.991,-0.261,7.23,-33.75,12.85,1785101101952.5508
0.232,-0.98,-0.265,16.51,-31.59,17.49,1785101101958.3052
0.244,-1.015,-0.306,23.56,-30.12,20.05,1785101101969.002
0.232,-1.045,-0.332,20.91,-28.75,17.64,1785101101979.542
0.204,-1.034,-0.349,12.05,-27.01,16.21,1785101101992.8792
0.189,-1.023,-0.368,2.32,-24.69,16.63,1785101101998.6829
0.173,-1.01,-0.372,-7.6,-22.37,14.98,1785101102009.228
0.162,-1.009,-0.381,-16.48,-19.99,11.99,1785101102019.711
0.155,-1.02,-0.391,-24.14,-17.0,8.24,1785101102032.9878
0.149,-1.008,-0.377,-31.65,-14.31,5.1,1785101102038.861
0.139,-0.993,-0.342,-35.16,-11.69,3.57,1785101102049.288
0.137,-0.989,-0.308,-32.9,-9.43,2.04,1785101102059.644
0.13,-0.987,-0.303,-26.0,-7.72,-0.27,1785101102073.031
0.12,-0.976,-0.283,-15.96,-6.38,-1.1,1785101102078.7202
0.125,-0.988,-0.259,-1.07,-5.07,-0.03,1785101102088.8318
0.127,-1.002,-0.241,14.1,-4.21,0.0,1785101102099.241
0.128,-0.97,-0.225,22.61,-4.82,0.15,1785101102109.712
0.143,-0.961,-0.213,24.66,-6.32,1.53,1785101102122.901
0.152,-0.943,-0.18,18.65,-8.3,1.98,1785101102128.8938
0.161,-0.939,-0.165,11.84,-9.86,1.71,1785101102138.829
0.169,-0.972,-0.153,6.44,-12.33,0.31,1785101102149.342
0.181,-0.964,-0.162,-0.55,-13.86,-1.92,1785101102162.5579
0.179,-0.954,-0.178,-5.07,-14.62,-2.56,1785101102168.731
0.192,-0.938,-0.165,-9.31,-15.78,-1.01,1785101102178.5579
0.216,-0.925,-0.179,-9.34,-15.47,0.12,1785101102188.986
0.227,-0.913,-0.21,-6.96,-14.47,0.92,1785101102199.4119
0.226,-0.905,-0.223,-8.82,-15.2,1.83,1785101102212.689
0.255,-0.931,-0.206,-16.02,-16.36,1.31,1785101102218.581
0.273,-0.981,-0.229,-21.42,-16.85,-2.17,1785101102228.789
0.273,-0.983,-0.291,-24.32,-16.75,-2.47,1785101102239.346
0.248,-0.918,-0.318,-21.3,-13.89,3.75,1785101102252.5818
0.245,-0.806,-0.302,-15.14,-11.2,13.73,1785101102258.23
0.28,-0.83,-0.309,-7.14,-7.51,17.94,1785101102268.8809
0.28,-0.954,-0.353,-0.95,-2.84,9.86,1785101102279.199
0.28,-0.954,-0.353,-0.55,-0.7,-0.06,1785101102289.536
0.243,-1.03,-0.394,-5.16,-0.82,-1.22,1785101102302.874
0.213,-1.032,-0.399,-9.22,-0.46,3.3,1785101102308.4568
0.213,-1.006,-0.396,-9.95,2.56,8.82,1785101102318.436
0.221,-0.983,-0.401,-9.95,2.56,8.82,1785101102328.971
0.218,-0.968,-0.391,-8.18,6.5,13.43,1785101102339.345
0.202,-0.963,-0.365,-5.86,8.97,15.75,1785101102352.552
0.179,-0.989,-0.341,-4.73,10.1,15.02,1785101102358.481
0.165,-0.995,-0.311,-8.58,9.74,11.72,1785101102368.9668
0.158,-0.999,-0.292,-14.77,8.61,7.69,1785101102379.0662
0.145,-1.001,-0.281,-19.29,7.84,4.88,1785101102389.533
0.127,-0.99,-0.264,-20.33,7.66,5.01,1785101102402.763
0.118,-0.955,-0.234,-18.98,6.2,7.26,1785101102408.859
0.128,-0.953,-0.221,-15.69,4.18,8.3,1785101102418.74
0.125,-0.97,-0.235,-11.02,3.63,5.83,1785101102429.323
0.116,-0.992,-0.256,-4.94,4.3,2.75,1785101102439.627
0.109,-0.988,-0.281,1.89,5.1,1.68,1785101102452.8132
0.111,-0.965,-0.288,8.48,6.71,3.2,1785101102458.571
0.105,-0.943,-0.295,12.36,7.9,4.61,1785101102468.6
0.099,-0.931,-0.298,13.34,8.82,4.94,1785101102478.858
0.098,-0.925,-0.288,13.28,8.76,4.21,1785101102489.529
0.097,-0.957,-0.288,13.7,8.06,1.43,1785101102502.78
0.09,-0.993,-0.303,10.71,6.53,-3.14,1785101102508.348
0.097,-1.028,-0.322,6.9,5.71,-5.92,1785101102518.6172
0.123,-1.034,-0.346,5.68,6.93,-6.41,1785101102529.001
0.142,-0.981,-0.324,6.07,10.71,-4.15,1785101102539.4949
0.147,-0.921,-0.302,7.2,12.79,0.06,1785101102552.7207
0.149,-0.928,-0.287,7.45,13.7,1.04,1785101102558.5378
0.138,-0.927,-0.261,4.52,13.49,-1.53,1785101102568.459
0.123,-0.917,-0.214,-1.16,11.38,-2.32,1785101102578.9958
0.115,-0.9,-0.187,-6.84,7.81,-1.5,1785101102589.506
0.109,-0.882,-0.186,-10.19,4.46,0.85,1785101102602.7341
0.111,-0.878,-0.177,-14.01,1.46,3.6,1785101102608.786
0.122,-0.854,-0.196,-18.34,-2.11,5.58,1785101102618.6829
0.138,-0.877,-0.188,-21.0,-4.27,7.35,1785101102629.431
0.152,-0.864,-0.195,-23.04,-6.2,7.48,1785101102639.6648
0.157,-0.876,-0.238,-21.12,-6.29,7.14,1785101102652.878
0.169,-0.896,-0.281,-19.38,-5.65,7.02,1785101102658.767
0.169,-0.908,-0.301,-20.2,-5.46,8.03,1785101102668.78
0.161,-0.913,-0.323,-21.97,-5.46,9.4,1785101102679.271
0.174,-0.934,-0.365,-23.44,-4.15,9.49,1785101102692.584
0.168,-0.958,-0.366,-25.03,-1.71,8.24,1785101102698.3162
0.169,-0.961,-0.348,-29.11,-0.37,7.66,1785101102708.5913
0.174,-0.971,-0.32,-33.54,1.1,7.6,1785101102718.94
0.173,-0.991,-0.297,-34.03,2.84,7.2,1785101102729.464
0.177,-1.008,-0.291,-29.73,4.52,7.11,1785101102742.801
0.171,-0.983,-0.302,-23.96,4.91,8.15,1785101102748.498
0.169,-0.942,-0.312,-21.52,4.55,10.44,1785101102758.6821
0.193,-0.928,-0.341,-24.51,4.7,11.57,1785101102768.9941
0.203,-0.972,-0.37,-27.8,6.93,10.86,1785101102782.556
0.184,-0.999,-0.39,-30.21,8.85,8.61,1785101102788.238
0.173,-0.951,-0.378,-29.27,9.61,7.78,1785101102798.5
0.176,-0.92,-0.349,-23.44,8.55,8.61,1785101102809.1
0.18,-0.962,-0.314,-16.88,6.99,7.78,1785101102819.41
0.191,-0.993,-0.275,-14.16,4.21,6.41,1785101102832.756
0.184,-1.005,-0.25,-13.98,0.0,6.62,1785101102838.594
0.135,-0.984,-0.265,-16.17,-4.0,6.99,1785101102848.851
0.119,-0.947,-0.296,-21.79,-7.05,7.29,1785101102859.0842
0.148,-0.957,-0.321,-27.77,-9.4,5.19,1785101102869.569
0.159,-0.97,-0.35,-32.81,-11.11,0.0,1785101102882.803
0.151,-0.983,-0.377,-34.49,-12.51,-3.39,1785101102888.9138
0.134,-0.978,-0.394,-32.78,-12.97,-4.09,1785101102899.0322
0.141,-0.981,-0.404,-28.63,-12.6,-4.52,1785101102909.58
0.14,-0.97,-0.409,-23.74,-11.35,-6.74,1785101102922.8953
0.142,-0.986,-0.401,-16.39,-9.34,-9.22,1785101102928.9321
0.117,-0.967,-0.406,-9.77,-7.97,-11.32,1785101102938.8572
0.101,-0.923,-0.411,-3.97,-6.56,-9.83,1785101102949.1892
0.105,-0.914,-0.415,2.14,-4.94,-8.3,1785101102959.604
0.107,-0.883,-0.435,4.7,-4.67,-9.49,1785101102973.2148
0.115,-0.849,-0.462,7.63,-5.31,-9.4,1785101102978.486
0.112,-0.856,-0.468,14.83,-3.88,-7.17,1785101102988.606
0.116,-0.864,-0.421,24.84,-0.61,-4.18,1785101102999.1382
0.135,-0.851,-0.402,34.09,1.1,-3.39,1785101103009.575
0.123,-0.832,-0.385,37.32,2.87,-4.3,1785101103022.8438
0.116,-0.781,-0.37,29.3,2.14,-2.29,1785101103028.409
0.11,-0.782,-0.353,20.33,1.13,1.59,1785101103038.7478
0.108,-0.825,-0.324,17.82,2.08,4.91,1785101103049.215
0.122,-0.819,-0.34,18.56,2.99,8.18,1785101103059.676
0.141,-0.816,-0.339,18.59,4.94,12.36,1785101103072.991
0.141,-0.806,-0.354,16.94,5.16,15.66,1785101103078.8523
0.164,-0.802,-0.391,15.96,5.98,19.17,1785101103089.275
0.169,-0.818,-0.394,16.17,6.93,21.52,1785101103099.9502
0.16,-0.831,-0.38,16.14,7.05,22.03,1785101103112.946
0.135,-0.845,-0.374,14.8,7.02,22.1,1785101103118.821
0.126,-0.862,-0.36,11.44,7.11,23.04,1785101103129.178
0.123,-0.908,-0.36,9.31,7.9,23.16,1785101103139.6182
0.123,-0.971,-0.364,10.5,10.83,21.97,1785101103153.106
0.116,-0.995,-0.359,13.43,12.97,19.93,1785101103158.884
0.116,-1.0,-0.346,16.11,13.67,19.71,1785101103169.434
0.123,-1.006,-0.328,18.56,14.04,20.39,1785101103182.555
0.122,-1.027,-0.332,22.98,15.17,20.23,1785101103188.51
0.106,-1.016,-0.339,26.86,15.32,20.05,1785101103199.008
0.108,-0.995,-0.36,28.11,13.92,20.08,1785101103209.708
0.124,-0.978,-0.376,24.75,12.67,19.26,1785101103222.896
0.14,-0.996,-0.375,20.33,12.67,18.04,1785101103229.0361
0.139,-1.027,-0.356,17.82,12.88,15.41,1785101103239.362
0.133,-1.033,-0.35,17.58,13.34,11.9,1785101103252.565
0.118,-1.055,-0.336,17.58,12.91,8.39,1785101103258.5
0.114,-1.083,-0.313,14.25,11.08,4.67,1785101103269.054
0.109,-1.115,-0.294,10.47,9.06,-0.18,1785101103279.247
0.095,-1.117,-0.285,8.97,7.17,-4.21,1785101103289.685
0.087,-1.101,-0.279,10.41,5.86,-5.37,1785101103302.9238
0.078,-1.057,-0.272,11.38,4.94,-4.64,1785101103308.937
0.091,-1.029,-0.284,14.65,4.85,-3.57,1785101103318.925
0.101,-1.032,-0.292,20.42,5.43,-5.04,1785101103329.391
0.089,-1.021,-0.293,23.65,5.77,-7.84,1785101103342.598
0.077,-1.02,-0.301,23.29,6.62,-9.64,1785101103348.5342
0.066,-1.001,-0.314,19.9,7.9,-10.47,1785101103358.628
0.061,-0.953,-0.314,15.69,8.48,-9.77,1785101103369.105
0.061,-0.913,-0.323,13.49,7.78,-8.7,1785101103379.572
0.055,-0.889,-0.323,11.47,6.68,-8.7,1785101103393.089
0.041,-0.879,-0.3,10.38,4.91,-9.4,1785101103398.656
0.042,-0.902,-0.269,10.13,1.89,-10.28,1785101103409.0
0.044,-0.933,-0.24,10.1,-1.25,-11.78,1785101103419.431
0.043,-0.943,-0.204,9.92,-4.06,-11.57,1785101103432.6921
0.046,-0.918,-0.199,8.45,-8.36,-9.16,1785101103438.3699
0.053,-0.922,-0.201,8.55,-9.95,-6.1,1785101103448.428
0.06,-0.933,-0.207,9.46,-9.77,-4.36,1785101103458.7798
0.072,-0.937,-0.227,9.31,-9.34,-2.96,1785101103469.2468
0.084,-0.929,-0.265,10.38,-7.72,-1.77,1785101103479.433
0.105,-0.917,-0.29,12.42,-4.67,0.09,1785101103492.7412
0.12,-0.895,-0.317,11.99,-2.29,2.11,1785101103498.757
0.134,-0.89,-0.32,6.23,-1.31,3.63,1785101103508.5361
0.133,-0.901,-0.313,-2.59,-1.34,3.23,1785101103519.1392
0.141,-0.906,-0.284,-12.12,-1.28,2.62,1785101103529.6409
0.151,-0.907,-0.267,-17.67,-0.76,2.23,1785101103542.979
0.16,-0.896,-0.264,-17.85,0.21,3.66,1785101103548.81
0.175,-0.92,-0.262,-10.93,2.38,6.65,1785101103558.665
0.175,-0.92,-0.262,-1.5,3.97,9.25,1785101103569.1619
0.18,-0.95,-0.271,3.91,4.24,10.1,1785101103579.642
0.182,-0.977,-0.279,4.3,4.49,9.52,1785101103592.9302
0.185,-0.991,-0.278,2.78,5.65,9.49,1785101103598.603
0.192,-0.998,-0.268,2.56,7.45,9.95,1785101103608.557
0.201,-1.006,-0.263,2.56,7.45,9.95,1785101103618.9128
0.198,-1.026,-0.279,3.23,9.77,9.61,1785101103629.3792
0.188,-1.022,-0.299,0.67,11.17,9.37,1785101103642.6602
0.184,-1.002,-0.308,-4.85,10.86,10.74,1785101103648.501
0.172,-0.981,-0.315,-9.4,10.68,11.84,1785101103658.727
0.168,-0.963,-0.291,-12.82,10.77,11.47,1785101103669.363
0.173,-0.989,-0.269,-12.73,10.65,9.31,1785101103682.81
0.165,-1.024,-0.257,-11.02,10.53,5.65,1785101103688.527
0.152,-1.046,-0.241,-8.76,9.86,2.72,1785101103698.616
0.144,-1.068,-0.238,-4.3,9.34,0.73,1785101103709.146
0.125,-1.056,-0.238,0.31,9.06,-0.37,1785101103719.361
0.11,-1.032,-0.239,4.12,8.73,0.55,1785101103732.6292
0.094,-1.002,-0.243,5.95,8.18,1.89,1785101103738.2678
0.081,-0.946,-0.235,6.71,7.63,3.81,1785101103748.343
0.085,-0.949,-0.232,10.22,7.48,5.19,1785101103758.811
0.081,-0.977,-0.24,13.0,6.9,2.75,1785101103769.3582
0.082,-0.995,-0.243,14.19,6.47,-0.64,1785101103779.691
0.074,-0.994,-0.236,15.78,6.1,-2.99,1785101103793.0398
0.072,-1.001,-0.238,18.04,5.95,-4.7,1785101103798.742
0.063,-0.993,-0.257,18.71,5.74,-7.14,1785101103809.181
0.054,-0.966,-0.287,18.22,5.37,-7.81,1785101103819.3381
0.043,-0.937,-0.302,17.18,4.94,-6.5,1785101103832.621
0.05,-0.914,-0.292,15.66,5.01,-4.64,1785101103838.473
0.058,-0.91,-0.286,15.66,4.61,-4.64,1785101103848.5352
0.06,-0.924,-0.264,16.88,3.36,-5.37,1785101103859.019
0.074,-0.98,-0.225,19.47,2.29,-7.48,1785101103869.466
0.074,-1.002,-0.207,20.91,0.37,-10.99,1785101103882.75
0.069,-0.994,-0.205,19.56,-1.74,-12.18,1785101103888.8208
0.06,-0.967,-0.201,16.42,-2.78,-10.53,1785101103898.958
0.067,-0.954,-0.192,12.45,-3.36,-8.18,1785101103909.229
0.068,-0.947,-0.183,7.23,-4.67,-7.6,1785101103922.7651
0.07,-0.951,-0.162,0.76,-6.62,-7.26,1785101103928.145
0.083,-0.924,-0.178,-5.43,-9.06,-6.59,1785101103938.2761
0.107,-0.916,-0.183,-9.74,-10.86,-5.01,1785101103948.753
0.122,-0.932,-0.205,-12.6,-12.6,-5.04,1785101103959.353
0.117,-0.923,-0.228,-17.18,-14.19,-5.22,1785101103972.554
0.13,-0.903,-0.229,-21.27,-15.26,-3.33,1785101103978.486
0.158,-0.912,-0.231,-19.75,-14.8,-1.98,1785101103988.8032
0.176,-0.946,-0.256,-11.41,-12.33,-2.01,1785101103999.352
0.181,-0.98,-0.292,0.82,-8.42,-1.77,1785101104009.697
0.175,-0.993,-0.326,12.48,-3.88,-0.18,1785101104022.9968
0.162,-0.971,-0.339,18.83,-0.06,2.81,1785101104028.9358
0.164,-0.957,-0.333,18.25,3.23,6.16,1785101104038.7268
0.172,-0.962,-0.312,12.82,6.04,7.97,1785101104049.357
0.171,-0.965,-0.283,5.55,8.55,8.36,1785101104062.666
0.178,-0.98,-0.257,0.09,10.9,8.61,1785101104068.362
0.182,-1.014,-0.257,-1.28,12.54,8.36,1785101104078.477
0.174,-1.017,-0.261,-1.92,12.94,8.58,1785101104088.9048
0.174,-1.004,-0.271,-2.41,12.48,10.62,1785101104099.53
0.167,-0.996,-0.273,-3.48,11.47,12.42,1785101104112.971
0.161,-0.97,-0.253,-7.54,9.28,13.98,1785101104118.6611
0.161,-0.98,-0.241,-9.03,7.57,14.59,1785101104128.735
0.153,-1.009,-0.241,-8.15,6.84,12.63,1785101104139.2378
0.133,-1.015,-0.248,-6.35,6.41,10.77,1785101104149.688
0.119,-1.002,-0.249,-4.55,5.8,11.51,1785101104162.808
0.12,-0.992,-0.246,-2.5,5.43,11.9,1785101104168.572
0.109,-0.969,-0.224,-0.24,5.34,10.99,1785101104178.8582
0.099,-0.981,-0.198,4.49,5.1,9.98,1785101104189.527
0.093,-1.028,-0.193,10.77,5.22,7.57,1785101104199.713
0.08,-1.057,-0.191,12.82,4.88,3.81,1785101104212.955
0.071,-1.029,-0.178,9.28,3.69,1.8,1785101104218.658
0.085,-1.042,-0.179,5.52,2.2,0.67,1785101104228.789
0.079,-1.035,-0.191,1.5,1.19,-2.38,1785101104239.1702
0.082,-1.025,-0.197,-1.19,0.46,-3.57,1785101104249.6692
0.076,-0.986,-0.201,-2.69,-0.95,-3.97,1785101104262.797
0.088,-0.964,-0.203,-3.69,-1.95,-3.14,1785101104268.689
0.086,-0.974,-0.21,-4.03,-2.32,-4.24,1785101104278.412
0.085,-0.988,-0.229,-3.6,-2.29,-6.5,1785101104288.789
0.074,-0.951,-0.241,-2.75,-1.83,-7.48,1785101104299.194
0.083,-0.944,-0.241,-0.85,-0.89,-6.2,1785101104309.655
0.078,-0.955,-0.242,0.55,-0.12,-6.44,1785101104322.837
0.075,-0.975,-0.242,1.01,0.58,-7.57,1785101104328.4312
0.068,-0.971,-0.236,0.61,0.82,-8.06,1785101104338.455
0.066,-0.958,-0.235,0.85,0.79,-6.81,1785101104348.906
0.073,-0.942,-0.244,0.24,0.24,-4.82,1785101104359.2651
0.074,-0.903,-0.257,-2.29,-1.19,-3.36,1785101104369.617
0.081,-0.886,-0.26,-3.81,-2.69,-0.89,1785101104382.823
0.09,-0.901,-0.26,-2.11,-3.66,-0.06,1785101104388.6877
0.086,-0.898,-0.26,-0.76,-4.7,0.21,1785101104398.528
0.087,-0.902,-0.225,-3.11,-5.25,1.07,1785101104408.983
0.088,-0.905,-0.209,-7.84,-7.32,0.76,1785101104419.337
0.077,-0.931,-0.209,-11.38,-9.64,-0.76,1785101104432.5918
0.078,-0.991,-0.17,-11.9,-9.83,-1.62,1785101104438.392
0.079,-1.004,-0.184,-9.67,-10.71,-1.95,1785101104448.53
0.084,-1.003,-0.199,-7.32,-10.9,0.0,1785101104459.002
0.089,-0.988,-0.209,-6.5,-11.14,1.62,1785101104469.474
0.101,-0.983,-0.211,-5.16,-10.32,2.62,1785101104482.754
0.105,-0.987,-0.216,-3.69,-9.77,2.66,1785101104488.481
0.108,-0.981,-0.223,-4.18,-9.19,2.2,1785101104498.473
0.123,-0.985,-0.223,-5.16,-8.73,1.25,1785101104508.76
0.13,-1.003,-0.227,-3.72,-7.63,-0.55,1785101104519.192
0.125,-1.006,-0.23,-2.41,-6.56,-1.86,1785101104529.653
0.13,-0.99,-0.23,-2.53,-6.71,-1.01,1785101104543.0369
0.138,-0.981,-0.233,-1.68,-6.81,0.73,1785101104548.6729
0.137,-0.989,-0.234,0.95,-5.95,1.65,1785101104558.5571
0.13,-1.019,-0.224,3.78,-4.79,0.27,1785101104568.8909
0.127,-1.047,-0.233,4.55,-3.63,-2.96,1785101104579.319
0.128,-1.042,-0.257,1.74,-2.69,-5.4,1785101104589.7751
0.14,-0.992,-0.294,-4.82,-2.87,-5.16,1785101104602.894
0.15,-0.945,-0.312,-10.38,-2.9,-2.81,1785101104608.9302
0.161,-0.962,-0.32,-9.64,-2.32,-1.43,1785101104618.7148
0.155,-0.987,-0.313,-7.87,-2.01,-3.2,1785101104629.1143
0.149,-1.019,-0.303,-5.13,-1.95,-5.46,1785101104639.4507
0.137,-1.031,-0.292,-1.56,-1.68,-6.81,1785101104652.7131
0.133,-1.048,-0.295,2.69,-1.16,-7.14,1785101104658.504
0.123,-1.034,-0.302,4.09,-0.49,-7.51,1785101104668.376
0.12,-1.004,-0.31,4.79,0.34,-6.26,1785101104678.751
0.119,-0.97,-0.312,5.16,1.5,-3.72,1785101104689.212
0.121,-0.947,-0.307,5.22,2.2,-2.14,1785101104699.4949
0.118,-0.947,-0.298,4.15,2.53,-2.56,1785101104712.949
0.11,-0.951,-0.286,1.25,2.26,-4.49,1785101104718.376
0.103,-0.956,-0.281,-1.74,1.89,-6.29,1785101104728.477
0.099,-0.956,-0.275,-3.69,1.77,-7.02,1785101104738.85
0.099,-0.95,-0.287,-4.43,1.28,-7.29,1785101104749.2312
0.089,-0.941,-0.306,-4.18,0.52,-6.87,1785101104759.595
0.081,-0.95,-0.304,-4.27,0.0,-6.13,1785101104772.9048
0.074,-0.925,-0.282,-6.81,-0.7,-5.86,1785101104778.516
0.083,-0.911,-0.252,-10.59,-2.04,-4.21,1785101104788.734
0.079,-0.907,-0.228,-16.51,-4.24,-4.46,1785101104799.067
0.073,-0.922,-0.2,-19.35,-5.74,-5.34,1785101104809.563
0.08,-0.984,-0.161,-17.27,-6.56,-5.95,1785101104822.782
0.099,-1.022,-0.165,-10.53,-6.87,-7.81,1785101104828.821
0.104,-1.013,-0.207,-0.37,-5.95,-7.9,1785101104838.659
0.11,-0.983,-0.233,7.08,-5.34,-4.88,1785101104849.152
0.11,-0.983,-0.233,9.37,-6.29,-2.26,1785101104859.5798
0.114,-0.938,-0.269,7.42,-5.8,0.55,1785101104872.671
0.118,-0.91,-0.274,2.23,-5.34,1.74,1785101104878.3118
0.127,-0.897,-0.242,-2.78,-5.49,0.27,1785101104888.369
0.136,-0.9,-0.231,-2.78,-5.49,0.27,1785101104898.676
0.134,-0.916,-0.228,-7.2,-5.74,-1.89,1785101104909.1157
0.138,-0.918,-0.222,-11.17,-5.92,-3.08,1785101104919.5461
0.156,-0.933,-0.228,-10.62,-5.71,-2.41,1785101104932.8142
0.161,-0.95,-0.252,-5.65,-5.13,-1.65,1785101104938.596
0.158,-0.951,-0.302,-0.21,-4.88,-0.37,1785101104948.7341
0.149,-0.951,-0.33,2.66,-4.06,1.53,1785101104958.972
0.144,-0.947,-0.321,2.56,-3.33,2.84,1785101104969.301
0.137,-0.944,-0.317,0.34,-2.32,3.14,1785101104979.758
0.125,-0.941,-0.307,-4.24,-1.19,3.72,1785101104993.0369
0.131,-0.944,-0.281,-7.2,-0.03,5.16,1785101104998.5918
0.138,-1.0,-0.274,-4.58,1.56,4.06,1785101105009.114
0.125,-1.038,-0.273,-2.59,2.29,0.82,1785101105019.1638
0.114,-1.025,-0.267,-4.67,1.5,-0.61,1785101105029.43
0.119,-0.994,-0.249,-8.15,0.4,0.4,1785101105042.722
0.13,-0.998,-0.225,-8.0,-0.15,-0.03,1785101105048.543
0.134,-1.013,-0.221,-4.82,-0.27,-3.17,1785101105058.357
0.137,-1.019,-0.223,0.15,-0.15,-5.58,1785101105068.757
0.14,-1.022,-0.227,5.95,-0.12,-6.32,1785101105079.1418
0.147,-1.01,-0.256,10.25,-0.4,-6.26,1785101105089.5833
0.156,-0.997,-0.288,10.59,-0.55,-4.76,1785101105102.7751
0.167,-0.991,-0.304,7.51,-0.95,-2.26,1785101105109.671
0.164,-0.97,-0.31,2.72,-1.59,-1.31,1785101105118.582
0.167,-0.927,-0.302,-2.87,-2.38,-0.79,1785101105129.129
0.179,-0.954,-0.303,-2.35,-1.71,-0.55,1785101105139.555
0.173,-0.977,-0.317,1.74,-0.12,-1.46,1785101105149.7432
0.165,-0.98,-0.319,6.32,0.85,-2.2,1785101105164.3838
0.164,-0.982,-0.323,10.86,1.1,-2.96,1785101105168.876
0.163,-1.008,-0.34,13.4,1.62,-4.06,1785101105178.842
