ax,ay,az,gx,gy,gz,timestamp_ms
0.047,-0.974,-0.434,-12.73,4.36,0.49,1785101064088.365
0.044,-0.981,-0.41,-10.83,4.36,1.8,1785101064088.658
0.037,-0.934,-0.393,-7.23,3.75,3.39,1785101064088.9448
0.049,-0.9,-0.386,-2.14,3.88,5.58,1785101064089.194
0.059,-0.918,-0.396,2.59,3.45,4.76,1785101064089.447
0.054,-0.949,-0.397,3.23,2.78,1.19,1785101064089.713
0.04,-0.953,-0.388,0.4,2.11,-1.86,1785101064089.99
0.037,-0.947,-0.372,-2.53,0.76,-2.75,1785101064090.298
0.043,-0.957,-0.364,-3.48,-0.43,-3.54,1785101064090.5679
0.039,-0.956,-0.369,-3.39,-1.07,-4.36,1785101064090.7969
0.044,-0.95,-0.381,-1.8,-1.4,-3.45,1785101064091.024
0.051,-0.943,-0.404,0.46,-1.4,-2.9,1785101064091.281
0.051,-0.91,-0.411,1.56,-1.16,-2.47,1785101064091.5278
0.058,-0.905,-0.418,3.27,-0.31,-2.01,1785101064091.7593
0.055,-0.904,-0.416,3.88,0.61,-2.96,1785101064091.984
0.049,-0.919,-0.42,4.61,1.59,-3.97,1785101064092.203
0.048,-0.928,-0.43,5.25,2.78,-4.52,1785101064092.426
0.041,-0.908,-0.429,5.25,3.78,-4.36,1785101064092.651
0.045,-0.9,-0.422,4.91,4.12,-3.48,1785101064092.87
0.041,-0.912,-0.42,4.36,3.85,-4.12,1785101064093.0947
0.031,-0.909,-0.394,3.23,2.9,-4.61,1785101064093.3179
0.037,-0.917,-0.36,3.54,1.01,-3.94,1785101064093.552
0.04,-0.929,-0.318,3.91,-1.98,-4.15,1785101064093.771
0.044,-0.933,-0.279,3.11,-5.1,-5.07,1785101064093.9983
0.06,-0.963,-0.273,4.82,-6.99,-6.04,1785101064094.229
0.062,-0.983,-0.314,9.13,-8.18,-6.93,1785101064094.45
0.061,-0.967,-0.355,11.29,-8.85,-4.82,1785101064094.6892
0.074,-0.918,-0.421,11.81,-8.42,-1.8,1785101064094.919
0.088,-0.891,-0.458,13.64,-5.89,1.19,1785101064095.1611
0.1,-0.89,-0.446,16.05,-2.62,2.96,1785101064095.379
0.102,-0.916,-0.426,15.75,-1.04,2.11,1785101064095.607
0.084,-0.928,-0.412,6.44,-2.04,-0.89,1785101064095.825
0.073,-0.916,-0.397,-7.51,-3.39,-2.78,1785101064096.055
0.076,-0.905,-0.392,-16.08,-3.57,-2.66,1785101064096.2932
0.08,-0.878,-0.404,-16.54,-2.75,0.34,1785101064096.533
0.079,-0.861,-0.4,-14.37,-2.93,5.25,1785101064096.743
0.066,-0.861,-0.381,-15.11,-4.79,7.35,1785101064096.96
0.075,-0.89,-0.358,-16.82,-5.86,6.07,1785101064097.179
0.067,-0.935,-0.363,-14.92,-5.55,2.56,1785101064097.384
0.06,-0.948,-0.378,-11.41,-4.67,1.68,1785101064097.597
0.067,-0.95,-0.392,-6.68,-3.45,3.75,1785101064097.814
0.075,-0.958,-0.414,-1.74,-1.65,5.01,1785101064098.031
0.071,-0.956,-0.433,0.67,0.49,5.04,1785101064098.24
0.07,-0.963,-0.457,1.74,2.2,5.55,1785101064098.4587
0.062,-0.951,-0.465,0.76,2.56,6.07,1785101064098.6711
0.059,-0.925,-0.458,-2.96,2.29,7.72,1785101064098.8801
0.06,-0.934,-0.449,-6.84,2.29,7.75,1785101064099.091
0.052,-0.918,-0.434,-11.63,2.14,5.55,1785101064099.322
0.047,-0.903,-0.422,-12.82,2.53,5.62,1785101064099.5332
0.041,-0.899,-0.413,-9.34,2.75,6.1,1785101064099.7441
0.038,-0.895,-0.401,-5.13,2.66,4.88,1785101064099.9749
0.037,-0.916,-0.403,-1.22,2.75,2.41,1785101064100.1812
0.031,-0.951,-0.403,0.73,2.69,-0.7,1785101064100.406
0.024,-0.968,-0.395,0.49,1.89,-2.53,1785101064100.634
0.022,-0.959,-0.394,-0.73,0.95,-2.9,1785101064100.8582
0.024,-0.941,-0.394,-2.11,0.43,-2.62,1785101064101.085
0.027,-0.934,-0.399,-1.71,0.64,-1.83,1785101064101.307
0.029,-0.936,-0.406,-0.92,1.1,-1.92,1785101064101.5588
0.031,-0.928,-0.401,-1.4,1.22,-2.38,1785101064101.7769
0.034,-0.919,-0.399,-0.43,1.43,-3.3,1785101064101.9849
0.036,-0.908,-0.399,1.62,2.23,-4.09,1785101064102.197
0.037,-0.91,-0.4,3.48,3.08,-4.73,1785101064102.405
0.034,-0.906,-0.401,4.21,3.6,-5.31,1785101064102.608
0.034,-0.9,-0.402,5.1,4.39,-5.28,1785101064102.815
0.027,-0.884,-0.403,5.86,4.88,-4.43,1785101064103.0422
0.026,-0.869,-0.399,5.71,5.01,-3.11,1785101064103.231
0.027,-0.857,-0.394,4.0,4.12,-2.04,1785101064103.434
0.035,-0.868,-0.387,1.28,2.53,-1.13,1785101064103.632
0.035,-0.88,-0.383,-1.31,0.98,-1.1,1785101064103.8232
0.04,-0.895,-0.387,-1.1,-1.07,-0.76,1785101064104.031
0.049,-0.934,-0.392,1.95,-2.35,-0.73,1785101064104.2402
0.05,-0.923,-0.384,4.73,-2.11,-0.46,1785101064104.429
0.065,-0.903,-0.379,6.9,-1.71,1.95,1785101064104.653
0.056,-0.898,-0.393,6.1,-2.53,2.44,1785101064104.853
0.042,-0.88,-0.387,-0.89,-4.43,2.35,1785101064105.0461
0.051,-0.916,-0.369,-7.26,-6.1,1.83,1785101064105.2349
0.063,-0.954,-0.373,-8.58,-6.2,-0.43,1785101064105.429
0.063,-0.957,-0.388,-6.62,-5.46,-0.61,1785101064105.6519
0.065,-0.953,-0.412,-1.98,-4.52,1.62,1785101064105.8472
0.067,-0.946,-0.451,3.75,-4.39,3.36,1785101064106.0437
0.069,-0.921,-0.457,7.11,-3.97,5.1,1785101064106.2588
0.067,-0.911,-0.438,6.68,-3.3,5.98,1785101064106.449
0.073,-0.904,-0.417,4.21,-2.78,5.46,1785101064106.6611
0.075,-0.909,-0.409,2.56,-1.46,4.79,1785101064106.854
0.064,-0.913,-0.418,1.1,-0.67,4.46,1785101064107.0552
0.065,-0.921,-0.406,-0.98,-0.18,5.04,1785101064107.2659
0.07,-0.944,-0.382,-0.52,1.25,4.49,1785101064107.4639
0.07,-0.956,-0.382,0.85,2.53,2.41,1785101064107.666
0.075,-0.981,-0.405,1.22,3.63,0.0,1785101064107.855
0.069,-0.98,-0.425,0.21,4.3,-2.01,1785101064108.052
0.066,-0.965,-0.439,-1.53,3.75,-1.5,1785101064108.2712
0.074,-0.959,-0.444,-4.64,2.14,-0.03,1785101064108.46
0.077,-0.954,-0.437,-7.39,1.1,1.22,1785101064108.665
0.075,-0.951,-0.424,-6.1,1.74,3.39,1785101064108.865
0.075,-0.951,-0.424,-2.41,2.72,5.65,1785101064109.054
0.068,-0.922,-0.427,1.25,3.51,7.93,1785101064109.243
0.067,-0.877,-0.43,4.3,4.15,8.15,1785101064109.434
0.076,-0.881,-0.438,4.3,4.09,5.4,1785101064109.629
0.064,-0.889,-0.436,2.81,3.69,3.72,1785101064109.8071
0.051,-0.889,-0.427,2.81,3.69,3.72,1785101064109.997
0.05,-0.905,-0.407,1.65,3.05,3.45,1785101064110.188
0.046,-0.935,-0.392,0.89,2.35,2.14,1785101064110.369
0.039,-0.955,-0.391,-1.53,1.62,-0.21,1785101064110.559
0.033,-0.946,-0.384,-6.16,0.82,-0.67,1785101064110.754
0.036,-0.941,-0.384,-9.86,-0.18,0.37,1785101064110.943
0.036,-0.933,-0.393,-11.11,-0.67,0.76,1785101064111.1428
0.042,-0.932,-0.401,-10.96,-0.64,0.37,1785101064111.3447
0.04,-0.918,-0.405,-10.19,-0.31,0.06,1785101064111.5488
0.038,-0.926,-0.409,-7.32,0.55,0.06,1785101064111.743
0.033,-0.915,-0.41,-4.24,1.01,-0.31,1785101064111.947
0.036,-0.909,-0.413,-1.8,1.31,-0.61,1785101064112.148
0.035,-0.899,-0.427,-2.38,1.25,-1.74,1785101064112.343
0.033,-0.876,-0.438,-4.85,1.86,-1.89,1785101064112.54
0.042,-0.882,-0.445,-6.35,3.3,-1.34,1785101064112.732
0.037,-0.851,-0.436,-7.08,5.1,-1.19,1785101064112.921
0.047,-0.851,-0.397,-4.58,6.5,1.04,1785101064113.1157
0.035,-0.901,-0.385,0.64,6.62,0.27,1785101064113.3098
0.01,-0.914,-0.384,4.67,6.29,-1.43,1785101064113.5007
0.013,-0.904,-0.394,7.78,5.68,-0.27,1785101064113.697
0.026,-0.894,-0.415,10.04,4.52,1.86,1785101064113.896
0.027,-0.893,-0.434,11.9,4.12,3.54,1785101064114.098
0.025,-0.883,-0.437,12.36,4.18,5.65,1785101064114.296
0.029,-0.884,-0.433,11.69,4.27,6.62,1785101064114.498
0.03,-0.901,-0.416,9.06,4.21,5.58,1785101064114.7002
0.025,-0.928,-0.384,3.27,2.81,3.2,1785101064114.8958
0.025,-0.96,-0.344,-3.54,1.22,0.55,1785101064115.087
0.031,-0.992,-0.334,-6.16,0.61,-2.14,1785101064115.273
0.035,-0.991,-0.359,-4.85,0.27,-3.11,1785101064115.451
0.046,-0.952,-0.361,-2.38,0.03,-0.7,1785101064115.636
0.059,-0.924,-0.382,3.42,-0.12,2.23,1785101064115.823
0.069,-0.919,-0.405,10.04,-0.03,3.88,1785101064116.0122
0.075,-0.921,-0.422,14.53,0.46,4.52,1785101064116.197
0.076,-0.958,-0.416,15.32,0.73,3.81,1785101064116.416
0.072,-0.964,-0.392,10.35,0.37,1.53,1785101064116.62
0.071,-0.964,-0.367,4.24,-0.4,0.98,1785101064116.7988
0.061,-0.929,-0.368,1.4,-0.67,2.53,1785101064116.983
0.043,-0.83,-0.364,2.96,-0.58,8.85,1785101064117.1711
0.078,-0.829,-0.352,9.37,1.22,15.26,1785101064117.3718
0.107,-0.927,-0.411,11.26,1.95,7.66,1785101064117.568
0.072,-0.96,-0.446,3.23,2.69,-2.75,1785101064117.748
0.052,-0.968,-0.403,-2.04,3.72,-1.13,1785101064117.943
0.064,-0.973,-0.421,-0.79,2.99,2.44,1785101064118.155
0.06,-0.897,-0.477,-3.23,3.02,3.78,1785101064118.342
0.063,-0.875,-0.501,-5.25,4.7,8.36,1785101064118.529
0.06,-0.927,-0.49,-6.9,5.25,10.62,1785101064118.704
0.055,-0.941,-0.457,-9.03,5.92,8.55,1785101064118.887
0.044,-0.943,-0.439,-6.04,7.66,5.92,1785101064119.07
0.031,-0.931,-0.424,-2.26,8.51,5.13,1785101064119.2478
0.03,-0.903,-0.393,-2.53,7.17,6.26,1785101064119.4329
0.042,-0.911,-0.352,-3.45,5.43,6.59,1785101064119.616
0.044,-0.961,-0.355,-2.75,4.12,3.36,1785101064119.79
0.025,-0.992,-0.37,-3.45,3.08,-1.19,1785101064119.967
0.004,-0.973,-0.361,-5.25,1.46,-3.23,1785101064120.1511
0.001,-0.935,-0.358,-4.27,0.03,-2.32,1785101064120.332
0.017,-0.933,-0.349,-0.7,-0.85,-1.22,1785101064120.513
0.019,-0.931,-0.356,1.19,-1.65,-2.53,1785101064120.699
0.021,-0.943,-0.361,1.71,-2.53,-3.78,1785101064120.875
0.019,-0.955,-0.365,3.81,-3.14,-5.77,1785101064121.044
0.021,-0.96,-0.381,7.54,-2.47,-8.0,1785101064121.2427
0.015,-0.942,-0.391,9.89,-1.92,-9.52,1785101064121.418
0.01,-0.9,-0.397,10.38,-1.92,-8.61,1785101064121.5942
0.025,-0.893,-0.397,11.81,-1.25,-6.29,1785101064121.771
0.026,-0.907,-0.414,14.16,0.0,-6.13,1785101064121.946
0.015,-0.899,-0.45,14.37,1.13,-6.99,1785101064122.1162
0.019,-0.887,-0.455,11.2,2.08,-6.56,1785101064122.292
0.019,-0.898,-0.447,6.38,2.44,-6.59,1785101064122.465
0.014,-0.871,-0.409,-2.87,0.85,-6.38,1785101064122.638
0.025,-0.905,-0.384,-10.41,-2.04,-6.78,1785101064122.809
0.02,-0.932,-0.371,-13.55,-4.55,-9.16,1785101064122.983
0.019,-0.926,-0.346,-10.56,-5.49,-8.55,1785101064123.1519
0.034,-0.92,-0.339,-4.36,-6.99,-6.2,1785101064123.3542
0.052,-0.944,-0.337,-0.18,-8.12,-5.95,1785101064123.5242
0.044,-0.918,-0.341,-0.82,-8.82,-5.43,1785101064123.73
0.044,-0.907,-0.379,3.97,-6.78,-2.17,1785101064124.099
0.055,-0.887,-0.413,6.2,-6.65,-0.73,1785101064124.267
-0.163,-0.864,-0.707,10.44,-12.15,-7.66,1785101064124.6099
-0.174,-0.915,-0.705,4.33,-13.89,-19.68,1785101064124.782
-0.199,-0.938,-0.708,0.06,-15.17,-33.85,1785101064128.576
-0.214,-0.905,-0.669,-2.99,-17.12,-46.51,1785101064141.9038
-0.198,-0.922,-0.626,2.41,-19.68,-58.14,1785101064147.516
-0.21,-0.935,-0.609,13.21,-22.06,-71.32,1785101064158.186
-0.242,-0.917,-0.607,22.52,-24.14,-83.01,1785101064171.452
-0.263,-0.912,-0.617,28.81,-25.42,-92.53,1785101064177.101
-0.278,-0.914,-0.622,31.95,-26.09,-101.38,1785101064187.9822
-0.281,-0.905,-0.592,32.78,-26.22,-108.86,1785101064198.7258
-0.261,-0.884,-0.539,33.94,-27.8,-112.31,1785101064211.961
-0.205,-0.866,-0.514,38.06,-31.04,-111.55,1785101064217.793
-0.161,-0.845,-0.504,42.97,-34.42,-109.01,1785101064228.708
-0.131,-0.79,-0.498,44.1,-38.45,-105.01,1785101064241.956
-0.088,-0.74,-0.505,42.66,-43.49,-99.37,1785101064247.68
-0.053,-0.718,-0.512,39.92,-47.49,-94.27,1785101064258.496
-0.037,-0.733,-0.527,37.11,-49.62,-91.89,1785101064271.698
-0.0,-0.728,-0.542,34.21,-50.9,-91.62,1785101064277.504
0.065,-0.737,-0.577,36.23,-49.96,-89.57,1785101064288.239
0.116,-0.693,-0.58,35.34,-50.23,-84.26,1785101064298.916
0.171,-0.611,-0.544,27.99,-52.37,-75.62,1785101064312.148
0.233,-0.607,-0.528,22.16,-55.15,-68.0,1785101064317.909
0.27,-0.629,-0.539,20.29,-55.88,-63.75,1785101064328.734
0.272,-0.632,-0.58,21.82,-54.99,-59.88,1785101064342.1318
0.262,-0.598,-0.596,21.67,-53.59,-52.92,1785101064347.9722
0.274,-0.571,-0.59,18.59,-52.16,-44.65,1785101064358.482
0.296,-0.602,-0.6,16.85,-49.59,-38.97,1785101064371.726
0.307,-0.627,-0.572,14.77,-46.57,-35.4,1785101064377.742
0.32,-0.644,-0.529,14.74,-45.01,-31.22,1785101064388.206
0.34,-0.669,-0.521,18.13,-43.98,-27.31,1785101064398.808
0.361,-0.682,-0.521,21.85,-43.34,-24.45,1785101064412.0332
0.369,-0.672,-0.532,25.97,-43.03,-21.49,1785101064418.078
0.369,-0.648,-0.505,28.44,-43.43,-16.36,1785101064428.5598
0.384,-0.651,-0.497,31.37,-44.92,-11.75,1785101064441.7869
0.388,-0.686,-0.557,36.77,-43.95,-9.58,1785101064447.716
0.39,-0.669,-0.601,38.45,-41.99,-6.65,1785101064458.078
0.41,-0.683,-0.637,40.41,-38.7,-3.33,1785101064468.631
0.422,-0.723,-0.679,41.32,-33.81,-1.83,1785101064481.676
0.413,-0.742,-0.691,38.54,-28.47,-1.04,1785101064487.9128
0.388,-0.736,-0.68,33.02,-23.83,0.67,1785101064498.1
0.358,-0.716,-0.641,26.03,-20.11,4.09,1785101064508.4731
0.342,-0.723,-0.571,21.27,-16.85,7.02,1785101064522.02
0.337,-0.761,-0.531,21.12,-13.61,7.63,1785101064528.176
0.332,-0.771,-0.525,22.8,-12.12,8.24,1785101064538.297
0.334,-0.732,-0.54,23.65,-11.66,11.11,1785101064548.7249
0.345,-0.693,-0.563,23.53,-11.41,14.62,1785101064561.9897
0.362,-0.694,-0.573,21.94,-11.29,16.97,1785101064567.88
0.368,-0.732,-0.576,18.74,-11.17,17.12,1785101064578.488
0.366,-0.77,-0.615,16.75,-9.52,16.11,1785101064588.9548
0.352,-0.78,-0.62,17.24,-6.16,16.08,1785101064602.197
0.348,-0.788,-0.621,20.45,-3.08,16.91,1785101064608.2502
0.347,-0.794,-0.603,24.38,0.03,18.1,1785101064618.3801
0.354,-0.817,-0.576,29.73,2.59,18.65,1785101064629.12
0.35,-0.824,-0.572,34.24,4.33,18.19,1785101064642.3098
0.34,-0.83,-0.558,36.32,5.01,18.83,1785101064648.132
0.336,-0.869,-0.522,37.23,4.82,19.47,1785101064658.504
0.325,-0.921,-0.515,39.12,4.21,18.59,1785101064669.133
0.311,-0.937,-0.52,40.41,3.91,18.07,1785101064682.2478
0.308,-0.951,-0.535,42.97,4.49,18.25,1785101064688.155
0.305,-0.944,-0.543,44.65,5.4,17.55,1785101064698.409
0.304,-0.93,-0.543,45.44,6.41,16.57,1785101064708.964
0.312,-0.94,-0.551,46.14,7.63,14.62,1785101064722.2131
0.317,-0.958,-0.559,46.72,8.33,12.05,1785101064728.118
0.321,-0.957,-0.553,45.72,8.67,9.58,1785101064738.197
0.32,-0.945,-0.56,43.79,8.94,8.18,1785101064748.7842
0.318,-0.94,-0.549,42.66,9.86,7.32,1785101064762.1692
0.311,-0.942,-0.521,41.78,10.56,6.07,1785101064767.6248
0.3,-0.944,-0.507,40.83,11.17,4.49,1785101064777.934
0.278,-0.947,-0.475,40.35,11.47,3.54,1785101064788.887
0.266,-0.959,-0.454,41.02,10.53,3.36,1785101064801.943
0.262,-0.973,-0.447,41.84,9.58,2.96,1785101064807.998
0.255,-0.975,-0.439,40.99,8.12,4.18,1785101064817.937
0.255,-0.97,-0.437,39.09,6.07,6.81,1785101064828.481
0.26,-0.95,-0.441,37.81,4.52,7.75,1785101064838.9211
0.269,-0.935,-0.476,35.68,3.66,6.87,1785101064852.1973
0.276,-0.914,-0.493,30.61,3.85,5.31,1785101064858.18
0.278,-0.915,-0.476,25.88,4.79,3.54,1785101064868.109
0.265,-0.93,-0.446,22.31,4.88,2.5,1785101064878.646
0.254,-0.936,-0.412,20.33,4.36,2.84,1785101064889.057
0.251,-0.944,-0.395,20.42,4.03,2.81,1785101064902.2761
0.248,-0.942,-0.394,20.91,4.15,1.89,1785101064908.4922
0.241,-0.938,-0.384,18.83,3.75,1.92,1785101064918.0422
0.231,-0.944,-0.383,16.54,3.39,2.08,1785101064928.7368
0.222,-0.962,-0.375,17.06,3.42,2.23,1785101064942.098
0.228,-0.968,-0.358,18.19,3.45,1.46,1785101064947.8098
0.224,-0.975,-0.348,19.65,4.0,-0.61,1785101064958.158
0.22,-0.983,-0.359,20.14,4.06,-1.5,1785101064968.3918
0.218,-0.975,-0.36,19.68,4.15,-2.23,1785101064978.852
0.224,-0.961,-0.358,18.98,5.68,-3.66,1785101064992.1821
0.23,-0.953,-0.346,17.18,6.78,-4.67,1785101064997.869
0.23,-0.953,-0.346,14.83,7.29,-5.16,1785101065008.0981
0.228,-0.933,-0.341,12.94,8.0,-4.79,1785101065018.461
0.228,-0.914,-0.331,11.99,8.61,-4.79,1785101065029.07
0.237,-0.917,-0.322,11.2,9.28,-5.37,1785101065042.308
0.25,-0.92,-0.332,10.44,9.92,-5.49,1785101065048.001
0.252,-0.926,-0.325,10.44,9.92,-5.49,1785101065058.209
0.248,-0.918,-0.319,9.58,9.74,-5.58,1785101065068.4531
0.245,-0.882,-0.313,7.2,8.97,-4.46,1785101065078.623
0.252,-0.869,-0.29,5.52,8.33,-1.71,1785101065092.152
0.259,-0.894,-0.255,7.69,7.9,-0.55,1785101065097.836
0.249,-0.897,-0.248,11.84,7.08,-1.1,1785101065107.762
0.246,-0.88,-0.231,15.05,5.4,1.13,1785101065118.438
0.245,-0.907,-0.222,19.26,3.36,3.94,1785101065128.887
0.247,-0.927,-0.235,23.13,1.86,5.86,1785101065142.1968
0.254,-0.931,-0.259,26.98,1.31,8.06,1785101065147.895
0.264,-0.933,-0.284,30.73,0.61,9.67,1785101065158.056
0.267,-0.932,-0.309,32.5,-0.49,10.16,1785101065168.5781
0.266,-0.92,-0.32,31.28,-1.56,10.93,1785101065181.952
0.269,-0.914,-0.326,26.76,-2.35,12.09,1785101065187.64
0.268,-0.907,-0.318,18.77,-3.45,12.79,1785101065198.2678
0.264,-0.91,-0.309,11.17,-4.36,13.18,1785101065208.3708
0.259,-0.946,-0.297,5.83,-5.28,13.64,1785101065218.724
0.244,-0.963,-0.287,0.43,-6.84,12.85,1785101065232.337
0.222,-0.948,-0.298,-5.58,-8.51,11.99,1785101065238.198
0.222,-0.96,-0.304,-9.4,-10.62,14.07,1785101065248.337
0.235,-0.963,-0.303,-10.68,-11.14,14.62,1785101065259.015
0.231,-0.956,-0.313,-9.74,-11.11,14.65,1785101065272.222
0.233,-0.984,-0.333,-6.59,-12.79,17.27,1785101065278.1902
0.246,-1.001,-0.336,-2.56,-14.16,19.07,1785101065288.45
0.246,-1.003,-0.335,2.96,-13.12,17.46,1785101065298.93
0.222,-1.002,-0.342,8.12,-12.6,15.56,1785101065312.198
0.218,-1.005,-0.34,11.02,-13.31,17.55,1785101065318.2468
0.213,-0.991,-0.331,13.06,-11.57,18.34,1785101065328.6028
0.18,-0.974,-0.328,13.86,-10.01,18.25,1785101065341.832
0.174,-0.977,-0.335,13.12,-10.44,20.57,1785101065347.78
0.177,-0.959,-0.335,10.96,-10.83,20.78,1785101065358.3
0.181,-0.949,-0.318,9.13,-10.07,19.68,1785101065368.838
0.178,-0.979,-0.306,8.97,-9.28,18.31,1785101065382.0889
0.156,-1.001,-0.291,7.14,-9.13,16.17,1785101065388.0188
0.132,-0.991,-0.277,3.69,-9.74,15.32,1785101065398.033
0.119,-0.984,-0.245,1.4,-10.01,14.47,1785101065408.687
0.104,-0.994,-0.237,1.31,-10.99,12.48,1785101065421.812
0.106,-0.988,-0.261,2.08,-11.47,10.86,1785101065427.848
0.107,-0.987,-0.271,4.46,-10.65,10.74,1785101065438.1829
0.095,-1.006,-0.277,6.04,-10.74,10.93,1785101065449.572
0.089,-1.004,-0.274,3.85,-11.35,9.98,1785101065459.011
0.083,-0.982,-0.264,-0.03,-11.6,8.0,1785101065472.301
0.078,-0.985,-0.255,-2.81,-11.38,5.89,1785101065477.802
0.063,-0.975,-0.248,-4.58,-12.02,2.84,1785101065488.3242
0.056,-0.956,-0.255,-5.34,-13.52,0.85,1785101065498.7422
0.05,-0.967,-0.257,-5.8,-14.65,-0.7,1785101065511.9639
0.032,-0.961,-0.242,-7.75,-16.08,-2.9,1785101065517.7422
0.029,-0.944,-0.217,-9.37,-17.7,-3.23,1785101065527.884
0.037,-0.939,-0.176,-8.88,-18.4,-3.33,1785101065538.381
0.043,-0.936,-0.171,-8.82,-20.45,-5.95,1785101065548.8682
0.046,-0.978,-0.167,-9.31,-22.61,-9.77,1785101065562.0852
0.039,-1.022,-0.163,-11.99,-25.03,-14.13,1785101065567.988
0.037,-1.033,-0.232,-14.98,-27.13,-15.14,1785101065578.437
0.042,-0.995,-0.286,-16.14,-26.25,-10.62,1785101065588.748
0.074,-0.95,-0.27,-13.82,-22.43,-5.4,1785101065602.251
0.092,-0.909,-0.243,-8.61,-19.84,-4.64,1785101065608.232
0.096,-0.914,-0.258,-3.88,-18.89,-6.23,1785101065618.264
0.088,-0.915,-0.283,-4.21,-17.67,-8.64,1785101065628.757
0.089,-0.88,-0.269,-8.45,-17.55,-8.09,1785101065641.82
0.097,-0.839,-0.265,-11.11,-17.15,-5.28,1785101065647.934
0.104,-0.84,-0.245,-12.76,-16.33,-2.75,1785101065658.2432
0.108,-0.873,-0.266,-16.02,-17.76,-3.27,1785101065668.672
0.111,-0.904,-0.288,-18.25,-17.88,-3.23,1785101065681.931
0.118,-0.932,-0.298,-16.3,-16.75,-1.74,1785101065687.9548
0.128,-0.961,-0.306,-11.41,-14.28,-1.25,1785101065698.045
0.126,-0.974,-0.322,-6.99,-11.84,-1.86,1785101065708.57
0.111,-0.965,-0.338,-6.99,-11.54,-1.5,1785101065719.029
0.091,-0.918,-0.381,-11.38,-12.82,1.19,1785101065732.301
0.089,-0.857,-0.405,-15.41,-13.03,7.87,1785101065738.2222
0.094,-0.815,-0.426,-12.94,-11.6,15.84,1785101065748.5771
0.118,-0.843,-0.472,-6.93,-8.24,20.91,1785101065759.152
0.125,-0.91,-0.469,-3.66,-2.78,18.86,1785101065772.2769
0.091,-0.948,-0.43,-2.38,1.37,14.47,1785101065778.155
0.06,-0.92,-0.394,-0.06,3.63,14.59,1785101065788.218
0.076,-0.91,-0.355,4.85,5.22,17.3,1785101065798.723
0.082,-0.926,-0.307,6.32,5.49,17.18,1785101065811.9612
0.061,-0.959,-0.27,2.75,4.15,15.23,1785101065817.718
0.03,-0.973,-0.239,-3.69,1.07,13.7,1785101065827.907
0.016,-0.98,-0.208,-6.78,-1.77,14.34,1785101065838.4858
0.004,-1.0,-0.193,-4.03,-4.46,14.01,1785101065848.817
0.017,-1.035,-0.235,1.04,-7.23,11.78,1785101065862.209
0.037,-1.042,-0.249,1.8,-8.79,8.94,1785101065867.784
0.041,-1.052,-0.271,0.98,-10.35,6.5,1785101065877.936
0.025,-1.022,-0.303,0.85,-10.28,3.85,1785101065888.428
0.027,-0.967,-0.299,0.98,-10.22,2.66,1785101065898.7578
0.043,-0.987,-0.309,2.69,-10.25,-0.43,1785101065912.118
0.03,-1.019,-0.323,3.45,-9.74,-6.44,1785101065917.8218
0.012,-1.039,-0.313,5.1,-9.19,-10.38,1785101065927.9639
0.007,-1.039,-0.31,11.11,-8.76,-10.04,1785101065938.503
0.018,-1.009,-0.303,20.2,-7.26,-7.75,1785101065948.933
0.032,-0.975,-0.302,27.31,-6.32,-6.16,1785101065962.361
0.04,-0.965,-0.273,29.24,-6.2,-6.53,1785101065968.064
0.048,-0.971,-0.24,30.95,-5.92,-7.23,1785101065978.224
0.054,-0.972,-0.252,34.21,-6.56,-7.93,1785101065988.605
0.053,-0.972,-0.257,34.7,-7.84,-7.69,1785101065999.1292
0.053,-0.965,-0.273,30.64,-10.53,-5.95,1785101066012.347
0.086,-0.998,-0.315,27.8,-10.74,-4.85,1785101066018.2458
0.089,-1.012,-0.357,27.65,-7.87,-5.37,1785101066028.4429
0.09,-0.985,-0.369,29.57,-2.87,-3.3,1785101066039.006
0.114,-0.932,-0.341,30.24,0.98,-0.24,1785101066052.179
0.114,-0.927,-0.319,27.19,2.32,-0.43,1785101066058.1172
0.107,-0.923,-0.273,14.65,0.34,-2.32,1785101066068.083
0.11,-0.95,-0.254,1.95,-0.95,-3.45,1785101066078.472
0.095,-0.945,-0.266,-3.66,-1.16,-2.78,1785101066088.838
0.097,-0.913,-0.261,-6.65,-1.28,0.0,1785101066102.135
0.104,-0.915,-0.261,-9.43,-1.16,0.03,1785101066107.881
0.103,-0.927,-0.271,-14.71,-1.56,-1.89,1785101066117.857
0.094,-0.935,-0.27,-19.41,-1.77,-2.62,1785101066128.4028
0.086,-0.929,-0.255,-22.19,-1.95,-1.8,1785101066138.8018
0.097,-0.938,-0.248,-21.88,-1.4,-0.34,1785101066152.069
0.099,-0.991,-0.241,-16.08,0.18,-0.06,1785101066158.036
0.099,-1.027,-0.284,-9.98,2.14,-1.46,1785101066167.9202
0.092,-1.008,-0.326,-9.55,3.36,-1.53,1785101066178.3472
0.075,-0.968,-0.326,-14.34,2.75,1.19,1785101066188.603
0.074,-0.946,-0.352,-20.57,1.53,3.36,1785101066202.0103
0.074,-0.952,-0.361,-26.61,1.65,2.99,1785101066207.9858
0.059,-0.974,-0.376,-31.46,1.31,0.37,1785101066217.9312
0.063,-0.976,-0.407,-36.5,1.16,-1.92,1785101066228.399
0.058,-0.952,-0.4,-42.45,1.01,-2.9,1785101066238.871
0.064,-0.955,-0.402,-46.14,1.19,-1.83,1785101066252.1658
0.074,-0.982,-0.373,-44.77,3.63,-2.01,1785101066258.135
0.069,-1.004,-0.351,-35.89,6.65,-3.91,1785101066268.065
0.052,-1.056,-0.3,-20.05,9.03,-5.46,1785101066278.536
0.052,-1.056,-0.3,-6.41,8.39,-8.61,1785101066289.147
0.041,-1.08,-0.254,3.69,7.6,-10.68,1785101066302.227
0.04,-1.062,-0.24,13.18,7.6,-9.25,1785101066307.8232
0.054,-1.036,-0.254,21.0,7.93,-8.39,1785101066317.985
0.067,-1.029,-0.257,23.07,6.93,-8.85,1785101066328.549
0.053,-0.986,-0.233,23.07,6.93,-8.85,1785101066339.04
0.059,-0.995,-0.216,26.64,5.1,-9.34,1785101066352.246
0.066,-0.986,-0.209,30.85,2.78,-10.83,1785101066358.271
0.087,-0.952,-0.222,33.54,-0.43,-9.64,1785101066368.306
0.107,-0.917,-0.22,36.77,-2.56,-6.32,1785101066378.813
0.12,-0.879,-0.209,41.66,-3.39,-3.88,1785101066392.4102
0.133,-0.871,-0.255,42.88,-4.94,-5.13,1785101066397.723
0.119,-0.892,-0.296,38.24,-6.01,-7.81,1785101066408.092
0.121,-0.933,-0.299,30.3,-6.1,-8.21,1785101066418.446
0.129,-0.958,-0.311,21.15,-4.94,-7.9,1785101066428.8909
0.132,-0.939,-0.342,12.39,-2.78,-7.02,1785101066442.251
0.129,-0.918,-0.341,3.54,-0.76,-5.34,1785101066447.9448
0.137,-0.891,-0.31,-6.5,0.12,-2.81,1785101066457.956
0.129,-0.895,-0.267,-13.4,0.46,-1.53,1785101066468.3552
0.12,-0.891,-0.241,-18.65,-0.73,-1.43,1785101066478.657
0.103,-0.907,-0.223,-24.48,-2.69,-1.8,1785101066491.911
0.102,-0.925,-0.26,-28.29,-5.43,-1.74,1785101066497.9949
0.11,-0.929,-0.252,-31.62,-8.09,0.89,1785101066508.05
0.122,-0.941,-0.275,-28.38,-8.45,3.81,1785101066518.524
0.129,-0.943,-0.283,-21.24,-6.71,6.2,1785101066529.396
0.125,-0.939,-0.295,-14.83,-5.37,7.42,1785101066542.308
0.126,-0.946,-0.324,-14.19,-4.82,7.51,1785101066548.002
0.123,-0.962,-0.314,-18.98,-3.85,6.47,1785101066557.9783
0.125,-0.982,-0.3,-24.17,-2.84,4.3,1785101066568.6453
0.116,-0.961,-0.323,-27.56,-0.76,2.59,1785101066579.011
0.119,-0.909,-0.336,-29.05,0.73,5.46,1785101066592.1987
0.131,-0.934,-0.347,-28.41,0.52,6.96,1785101066597.702
0.118,-0.966,-0.37,-30.18,0.31,4.64,1785101066608.1182
0.102,-0.989,-0.37,-30.7,1.13,4.12,1785101066618.749
0.094,-0.975,-0.348,-28.2,0.82,6.32,1785101066632.0488
0.095,-0.925,-0.357,-24.48,-0.67,9.0,1785101066637.8228
0.098,-0.903,-0.371,-21.79,-1.13,9.8,1785101066647.9502
0.092,-0.93,-0.347,-21.03,-1.77,8.21,1785101066658.5337
0.084,-0.973,-0.328,-20.69,-3.11,5.34,1785101066668.853
0.073,-0.994,-0.31,-19.56,-3.94,2.69,1785101066682.1033
0.071,-0.986,-0.316,-15.05,-4.7,1.71,1785101066688.1357
0.075,-0.963,-0.335,-9.55,-5.43,2.41,1785101066697.958
0.085,-0.95,-0.359,-5.65,-5.1,3.05,1785101066708.525
0.087,-0.949,-0.369,-1.95,-4.33,2.72,1785101066718.693
0.089,-0.959,-0.377,3.42,-3.39,1.59,1785101066729.337
0.084,-0.994,-0.393,9.86,-1.19,-1.04,1785101066742.528
0.078,-0.991,-0.413,13.31,1.4,-2.62,1785101066748.1338
0.071,-0.97,-0.402,14.71,3.6,-2.14,1785101066758.387
0.065,-0.956,-0.375,16.6,4.91,-1.5,1785101066768.668
0.068,-0.962,-0.351,18.16,5.22,-2.29,1785101066781.9587
0.067,-0.975,-0.319,17.73,4.36,-3.94,1785101066787.8022
0.067,-0.988,-0.29,19.59,2.93,-4.43,1785101066797.86
0.085,-0.994,-0.291,26.09,2.62,-3.51,1785101066808.594
0.092,-0.956,-0.289,31.83,1.92,-1.53,1785101066818.777
0.102,-0.901,-0.285,30.18,-0.85,1.07,1785101066832.0762
0.114,-0.888,-0.286,19.41,-5.92,1.98,1785101066837.934
0.125,-0.928,-0.292,6.71,-8.76,0.49,1785101066847.944
0.113,-0.943,-0.325,-1.37,-8.7,-2.72,1785101066858.3748
0.115,-0.954,-0.359,-6.62,-7.97,-3.88,1785101066868.622
0.119,-0.947,-0.374,-10.38,-5.65,-3.57,1785101066881.917
0.098,-0.896,-0.397,-10.93,-2.78,-1.89,1785101066887.773
0.105,-0.834,-0.398,-14.16,-1.92,2.17,1785101066897.8933
0.105,-0.855,-0.372,-19.07,-2.44,3.66,1785101066908.315
0.092,-0.913,-0.342,-23.56,-3.17,1.04,1785101066918.8428
0.088,-0.967,-0.312,-27.65,-3.63,-1.86,1785101066932.065
0.083,-1.002,-0.302,-27.07,-3.81,-2.14,1785101066937.875
0.079,-0.992,-0.314,-21.12,-3.45,0.18,1785101066948.0
0.079,-0.927,-0.332,-12.05,-2.14,4.94,1785101066958.573
0.084,-0.861,-0.332,-5.19,-1.71,11.05,1785101066969.009
0.1,-0.872,-0.326,-2.81,-1.89,12.67,1785101066982.219
0.094,-0.905,-0.353,-4.97,-1.04,8.39,1785101066988.02
0.098,-0.939,-0.358,-8.0,2.26,5.19,1785101066997.927
0.102,-0.964,-0.355,-7.48,5.16,3.57,1785101067008.4648
0.104,-0.983,-0.378,-3.72,6.74,2.62,1785101067018.6438
0.095,-0.988,-0.4,-2.44,7.17,2.01,1785101067029.0662
0.083,-0.969,-0.399,-5.46,7.26,2.59,1785101067042.419
0.084,-0.958,-0.37,-9.0,6.59,4.24,1785101067047.95
0.084,-0.95,-0.37,-10.56,5.68,4.15,1785101067058.2322
0.079,-0.923,-0.372,-13.09,4.94,3.63,1785101067068.549
0.08,-0.924,-0.373,-14.1,4.18,4.36,1785101067079.036
0.073,-0.939,-0.375,-12.91,3.94,4.76,1785101067092.3362
0.068,-0.939,-0.36,-10.68,3.78,5.4,1785101067098.0698
0.067,-0.951,-0.356,-7.05,3.6,5.19,1785101067108.288
0.055,-0.958,-0.368,-3.51,3.88,3.08,1785101067118.459
0.044,-0.935,-0.378,-2.14,4.03,1.22,1785101067129.073
0.053,-0.927,-0.39,-1.1,4.76,1.25,1785101067142.312
0.051,-0.934,-0.399,0.34,5.92,0.67,1785101067147.438
0.058,-0.932,-0.384,1.53,7.17,0.61,1785101067157.834
0.068,-0.936,-0.381,4.3,8.03,1.25,1785101067168.163
0.067,-0.922,-0.404,9.43,9.37,1.62,1785101067178.595
0.062,-0.9,-0.425,14.44,10.47,2.78,1785101067189.15
0.065,-0.91,-0.428,16.88,10.93,4.0,1785101067202.41
0.062,-0.914,-0.402,15.81,10.9,3.75,1785101067208.51
0.069,-0.928,-0.362,12.36,9.28,2.29,1785101067218.309
0.064,-0.967,-0.319,9.55,6.2,-0.79,1785101067228.695
0.04,-0.969,-0.268,6.2,2.32,-3.17,1785101067242.1382
0.048,-0.953,-0.222,4.46,-2.32,-2.53,1785101067247.751
0.071,-0.979,-0.213,8.73,-5.13,-2.87,1785101067257.886
0.081,-0.998,-0.233,13.79,-6.29,-5.04,1785101067268.2458
0.086,-0.987,-0.268,16.24,-7.93,-5.31,1785101067278.7551
0.091,-0.977,-0.314,15.63,-8.85,-3.3,1785101067292.037
0.104,-0.919,-0.376,14.22,-8.06,-0.31,1785101067297.848
0.121,-0.865,-0.386,15.08,-5.31,3.97,1785101067307.976
0.118,-0.864,-0.375,15.2,-3.54,4.91,1785101067318.349
0.094,-0.9,-0.329,5.8,-5.25,1.68,1785101067328.84
0.094,-0.949,-0.241,-9.46,-8.73,-3.08,1785101067342.0632
0.101,-0.999,-0.216,-11.26,-9.52,-7.35,1785101067347.738
0.085,-0.963,-0.255,6.2,-6.96,-4.55,1785101067357.821
0.074,-0.868,-0.284,31.07,-5.19,6.9,1785101067368.246
0.093,-0.858,-0.301,48.28,-6.13,14.92,1785101067378.824
0.135,-0.925,-0.318,47.82,-6.93,10.68,1785101067392.183
0.132,-0.998,-0.346,37.9,-5.1,1.19,1785101067397.98
0.113,-1.033,-0.387,30.52,-1.95,-2.62,1785101067408.16
0.105,-1.049,-0.444,26.09,1.34,-1.19,1785101067418.497
0.09,-1.016,-0.466,17.52,4.88,1.46,1785101067428.979
0.084,-0.959,-0.451,5.83,7.32,4.43,1785101067442.271
0.091,-0.952,-0.422,-3.48,9.03,6.04,1785101067447.9111
0.089,-0.978,-0.405,-10.68,10.44,4.52,1785101067458.153
0.071,-0.949,-0.385,-18.56,10.53,2.72,1785101067468.6501
0.072,-0.891,-0.349,-28.26,8.82,3.57,1785101067478.9473
0.073,-0.878,-0.323,-37.63,6.81,3.23,1785101067492.3599
0.063,-0.896,-0.293,-42.57,5.22,1.74,1785101067498.329
0.054,-0.933,-0.276,-39.28,3.48,1.46,1785101067508.204
0.046,-0.956,-0.264,-28.96,2.14,2.14,1785101067518.734
0.045,-0.97,-0.266,-17.76,0.0,2.53,1785101067531.9978
0.055,-0.955,-0.263,-13.89,-3.05,0.98,1785101067537.871
0.053,-0.982,-0.278,-10.22,-4.61,-0.89,1785101067547.977
0.04,-0.981,-0.299,-3.17,-4.36,-1.01,1785101067558.488
0.038,-0.955,-0.312,6.47,-3.85,1.28,1785101067568.747
0.038,-0.955,-0.312,15.5,-3.14,3.33,1785101067582.0059
0.063,-0.955,-0.338,20.78,-1.16,2.62,1785101067587.882
0.075,-0.961,-0.352,23.29,0.82,0.95,1785101067597.998
0.075,-0.974,-0.383,22.68,2.35,-0.76,1785101067608.607
0.065,-0.967,-0.415,19.29,4.49,-0.58,1785101067618.8171
0.071,-0.983,-0.417,19.29,4.49,-0.58,1785101067632.111
0.072,-1.012,-0.399,13.34,6.01,-2.47,1785101067637.9468
0.067,-1.005,-0.353,5.01,5.8,-6.47,1785101067647.947
0.067,-1.01,-0.306,-2.35,4.58,-8.97,1785101067658.4932
0.065,-0.977,-0.257,-11.57,0.95,-9.92,1785101067668.7622
0.074,-0.952,-0.205,-21.64,-4.33,-8.79,1785101067682.077
0.082,-0.958,-0.158,-26.73,-8.33,-7.84,1785101067687.942
0.099,-0.999,-0.177,-18.04,-8.82,-8.42,1785101067697.996
0.093,-1.0,-0.26,-2.59,-7.87,-9.03,1785101067708.562
0.109,-0.953,-0.328,9.83,-6.04,-5.74,1785101067718.7168
0.133,-0.928,-0.353,16.91,-4.18,-1.37,1785101067731.9949
0.118,-0.899,-0.367,17.18,-4.61,0.06,1785101067737.8699
0.112,-0.866,-0.367,7.93,-6.44,0.95,1785101067747.668
0.107,-0.888,-0.343,-2.04,-7.29,1.04,1785101067758.2842
0.069,-0.844,-0.323,-8.82,-7.81,2.23,1785101067768.5671
0.067,-0.789,-0.274,-12.82,-8.7,7.9,1785101067779.0908
0.098,-0.898,-0.254,-11.57,-8.48,8.12,1785101067792.501
0.097,-0.985,-0.287,-15.53,-8.82,-3.02,1785101067798.198
0.076,-0.981,-0.284,-20.29,-7.2,-7.2,1785101067808.3853
0.079,-1.0,-0.296,-12.7,-5.31,-3.02,1785101067818.546
0.093,-1.009,-0.346,-3.11,-4.0,-2.75,1785101067828.965
0.083,-0.973,-0.378,0.34,-3.51,-2.11,1785101067842.518
0.088,-0.981,-0.404,1.62,-4.15,-0.06,1785101067848.0159
0.093,-0.994,-0.448,-0.89,-4.39,-0.55,1785101067858.17
0.1,-1.019,-0.454,-2.69,-1.95,-0.49,1785101067868.268
0.085,-1.017,-0.455,-1.92,0.67,1.13,1785101067878.797
0.059,-0.899,-0.449,-2.69,2.62,5.34,1785101067892.1257
0.078,-0.807,-0.403,0.37,4.7,12.91,1785101067897.791
0.11,-0.859,-0.378,5.43,5.55,14.13,1785101067908.031
0.111,-0.935,-0.367,2.23,4.94,6.13,1785101067918.2341
0.092,-0.984,-0.34,-3.6,4.06,-2.41,1785101067928.677
0.073,-0.993,-0.315,-4.82,2.59,-5.22,1785101067939.054
0.067,-0.985,-0.3,-0.43,1.13,-4.09,1785101067952.274
0.07,-0.979,-0.316,5.19,0.43,-2.26,1785101067958.1042
0.064,-0.962,-0.331,8.67,0.49,-0.18,1785101067967.9282
0.064,-0.956,-0.342,10.44,0.61,2.5,1785101067978.48
0.081,-0.956,-0.35,11.02,0.76,3.23,1785101067988.926
0.089,-0.974,-0.376,12.42,1.86,1.25,1785101068002.1602
0.089,-0.976,-0.397,13.95,4.03,-0.82,1785101068008.316
0.086,-0.974,-0.412,14.92,5.49,-1.31,1785101068018.072
0.083,-0.964,-0.408,13.46,7.08,-1.1,1785101068028.563
0.083,-0.943,-0.392,10.47,8.18,-0.61,1785101068039.052
0.089,-0.944,-0.38,6.01,7.32,-1.53,1785101068052.288
0.083,-0.995,-0.359,2.11,6.78,-5.58,1785101068058.129
0.071,-1.016,-0.303,-2.14,5.55,-10.56,1785101068068.0298
0.076,-1.038,-0.237,-3.11,2.41,-12.42,1785101068078.551
0.062,-1.013,-0.199,-3.88,-1.59,-11.66,1785101068089.115
0.07,-0.981,-0.166,-4.49,-4.91,-7.75,1785101068102.245
0.085,-0.997,-0.176,-3.57,-7.87,-6.1,1785101068107.692
0.08,-0.995,-0.21,-2.17,-10.56,-7.2,1785101068117.971
0.081,-0.946,-0.235,-2.99,-13.31,-6.2,1785101068128.4841
0.11,-0.927,-0.303,-0.58,-14.8,-4.55,1785101068138.9219
0.115,-0.921,-0.352,6.26,-12.76,-4.15,1785101068152.172
0.114,-0.898,-0.353,14.04,-9.8,-3.05,1785101068158.098
0.106,-0.86,-0.343,16.11,-10.1,-2.08,1785101068168.274
0.112,-0.846,-0.317,9.06,-11.84,-1.86,1785101068178.646
0.107,-0.863,-0.308,0.52,-11.2,-3.91,1785101068189.166
0.095,-0.902,-0.305,-2.08,-7.42,-6.04,1785101068202.4363
0.084,-0.922,-0.317,-2.35,-6.26,-8.21,1785101068208.153
0.088,-0.902,-0.325,-5.62,-6.81,-6.87,1785101068218.0369
0.106,-0.912,-0.327,-5.58,-5.74,-2.84,1785101068228.417
0.111,-0.924,-0.316,-2.84,-4.67,-1.25,1785101068238.757
0.115,-0.934,-0.326,0.27,-3.6,-0.79,1785101068252.053
0.116,-0.96,-0.356,4.36,-0.85,-1.34,1785101068257.859
0.106,-0.964,-0.374,8.64,1.83,-2.38,1785101068267.711
0.093,-0.983,-0.389,14.19,3.69,-1.59,1785101068278.2012
0.088,-0.994,-0.402,14.89,4.24,-0.43,1785101068288.679
0.092,-0.982,-0.397,9.37,4.73,0.03,1785101068299.0452
0.091,-0.976,-0.393,5.43,6.23,1.1,1785101068312.327
0.075,-0.937,-0.394,4.0,8.03,3.6,1785101068317.9573
0.076,-0.87,-0.38,3.23,9.16,8.18,1785101068327.9949
0.098,-0.86,-0.369,3.14,9.28,10.47,1785101068338.443
0.103,-0.914,-0.358,0.7,9.31,7.23,1785101068348.733
0.082,-0.941,-0.351,-7.2,8.36,1.53,1785101068362.1309
0.068,-0.934,-0.325,-15.63,6.87,-0.61,1785101068367.786
0.068,-0.946,-0.303,-17.21,5.83,-0.49,1785101068377.95
0.062,-0.966,-0.296,-12.18,6.13,-0.55,1785101068388.4192
0.055,-0.977,-0.3,-5.95,6.9,0.24,1785101068398.8171
0.06,-0.984,-0.307,-0.92,7.14,1.77,1785101068412.0378
0.069,-0.989,-0.31,3.27,7.54,2.96,1785101068417.707
0.071,-0.996,-0.321,7.05,8.36,3.02,1785101068427.7
0.055,-0.954,-0.325,8.91,8.91,3.17,1785101068438.137
0.063,-0.918,-0.316,9.89,9.09,5.8,1785101068448.555
0.073,-0.927,-0.316,10.86,8.3,6.47,1785101068459.1309
0.065,-0.947,-0.323,12.27,6.93,4.09,1785101068476.0088
0.069,-0.984,-0.313,13.79,6.35,1.71,1785101068477.942
0.068,-0.981,-0.312,12.09,5.01,-0.89,1785101068488.131
0.076,-0.958,-0.298,6.93,3.02,-1.34,1785101068498.598
0.079,-0.942,-0.284,-1.34,0.18,-1.13,1785101068508.887
0.077,-0.915,-0.265,-11.78,-3.51,-0.7,1785101068522.1382
0.082,-0.931,-0.211,-19.32,-6.87,-0.67,1785101068528.0818
0.093,-0.989,-0.228,-19.65,-9.28,-2.9,1785101068538.1218
0.095,-1.013,-0.251,-16.97,-10.19,-3.81,1785101068548.666
0.092,-0.998,-0.272,-12.12,-10.07,-2.26,1785101068561.9998
0.087,-0.969,-0.309,-4.36,-9.67,-0.06,1785101068567.734
0.107,-0.94,-0.318,2.69,-8.24,2.69,1785101068577.7522
0.108,-0.927,-0.328,8.85,-6.38,3.72,1785101068588.106
0.105,-0.888,-0.33,9.03,-5.68,4.33,1785101068598.322
0.108,-0.87,-0.321,4.49,-5.52,5.13,1785101068608.808
0.113,-0.89,-0.301,-1.34,-5.28,4.15,1785101068622.1418
0.115,-0.938,-0.299,-6.74,-5.22,0.12,1785101068627.827
0.099,-0.961,-0.32,-10.74,-5.37,-2.72,1785101068637.86
0.095,-0.967,-0.321,-11.38,-5.34,-1.19,1785101068648.426
0.109,-0.963,-0.319,-9.49,-5.49,0.55,1785101068658.751
0.117,-0.964,-0.323,-6.1,-4.46,0.64,1785101068669.09
0.113,-0.973,-0.33,-1.89,-2.26,0.92,1785101068682.4683
0.114,-0.984,-0.333,2.56,0.18,0.95,1785101068688.061
0.113,-0.986,-0.35,6.13,2.14,0.64,1785101068698.033
0.103,-0.975,-0.365,6.68,3.27,1.56,1785101068708.464
0.096,-0.962,-0.372,3.91,3.17,2.93,1785101068718.773
0.097,-0.953,-0.37,-1.07,2.62,3.78,1785101068732.063
0.103,-0.95,-0.367,-4.52,2.62,4.82,1785101068737.7268
0.108,-0.95,-0.371,-4.27,3.27,5.58,1785101068747.7498
0.1,-0.935,-0.371,-2.69,3.78,5.31,1785101068758.2668
0.099,-0.923,-0.367,-1.92,3.91,4.55,1785101068768.498
0.095,-0.945,-0.368,-2.41,4.09,2.53,1785101068778.877
0.078,-0.964,-0.353,-3.85,4.76,0.61,1785101068792.211
0.064,-0.976,-0.328,-5.49,4.64,-0.46,1785101068797.7942
0.061,-0.991,-0.316,-5.86,3.91,-1.53,1785101068807.95
0.063,-1.002,-0.314,-3.45,3.69,-2.17,1785101068818.144
0.061,-1.007,-0.319,2.01,4.24,-1.56,1785101068828.5398
0.062,-1.013,-0.333,7.97,5.07,-0.34,1785101068838.922
0.064,-0.99,-0.339,11.84,5.95,-0.09,1785101068852.163
0.069,-0.949,-0.349,15.63,7.32,0.76,1785101068858.2441
0.069,-0.949,-0.349,19.96,8.36,2.14,1785101068868.079
0.08,-0.923,-0.361,20.94,8.94,1.95,1785101068878.42
0.082,-0.913,-0.363,14.92,8.21,0.76,1785101068889.523
0.068,-0.878,-0.363,2.75,5.62,0.46,1785101068902.3372
0.07,-0.871,-0.33,2.75,5.62,0.46,1785101068907.82
0.074,-0.92,-0.28,-11.57,1.34,-2.41,1785101068918.0857
0.071,-0.957,-0.21,-23.38,-3.33,-8.03,1785101068928.598
0.072,-0.993,-0.167,-22.25,-6.59,-11.81,1785101068939.111
0.076,-1.041,-0.177,-11.44,-8.94,-12.51,1785101068952.445
0.103,-1.062,-0.223,0.18,-10.56,-11.29,1785101068958.6099
0.106,-1.045,-0.327,12.76,-10.28,-9.22,1785101068968.438
0.089,-0.954,-0.401,22.55,-6.87,-3.27,1785101068979.0498
0.101,-0.872,-0.367,29.76,-2.23,6.01,1785101068992.397
0.116,-0.852,-0.326,30.88,-1.13,9.43,1785101068998.09
0.131,-0.882,-0.303,20.45,-2.11,5.43,1785101069008.341
0.123,-0.948,-0.299,5.95,-2.56,-1.74,1785101069018.6592
0.103,-0.99,-0.303,-3.6,-1.25,-6.74,1785101069028.945
0.099,-0.969,-0.297,-6.99,-0.34,-5.83,1785101069042.2961
