ax,ay,az,gx,gy,gz,timestamp_ms
0.042,-0.973,-0.286,2.38,1.4,-5.65,1785101045849.282
0.049,-0.964,-0.268,3.14,0.18,-3.85,1785101045909.57
0.058,-0.963,-0.263,1.1,-1.89,-3.48,1785101045909.871
0.052,-0.947,-0.265,-2.32,-3.81,-3.72,1785101045910.1008
0.058,-0.971,-0.248,-6.01,-5.37,-3.6,1785101045910.332
0.071,-0.989,-0.258,-8.61,-6.56,-5.16,1785101045910.562
0.073,-0.993,-0.291,-7.57,-6.16,-6.41,1785101045910.796
0.073,-0.986,-0.315,-3.36,-5.25,-4.58,1785101045911.03
0.078,-0.984,-0.324,2.99,-4.52,-2.04,1785101045911.264
0.081,-0.955,-0.312,7.42,-4.03,-0.98,1785101045911.4812
0.084,-0.914,-0.308,9.8,-3.94,-0.15,1785101045911.694
0.078,-0.891,-0.315,9.58,-4.3,1.59,1785101045911.9111
0.057,-0.817,-0.312,2.81,-5.89,5.22,1785101045912.1248
0.073,-0.783,-0.297,-5.4,-6.16,11.02,1785101045912.333
0.09,-0.864,-0.303,-6.93,-4.58,9.0,1785101045912.5417
0.075,-0.93,-0.328,-7.69,-3.75,1.77,1785101045912.748
0.071,-0.959,-0.315,-9.03,-3.14,0.79,1785101045912.958
0.077,-0.999,-0.33,-5.8,-2.44,1.74,1785101045913.1628
0.069,-0.984,-0.377,-3.54,-0.73,1.07,1785101045913.374
0.063,-0.951,-0.407,-4.39,1.56,2.62,1785101045913.583
0.063,-0.947,-0.422,-6.32,2.32,5.52,1785101045913.7878
0.05,-0.926,-0.402,-9.16,2.38,8.27,1785101045913.996
0.043,-0.91,-0.364,-8.51,2.9,11.14,1785101045914.207
0.053,-0.938,-0.353,-5.52,3.48,11.17,1785101045914.4211
0.056,-0.972,-0.341,-3.39,4.15,8.94,1785101045914.63
0.047,-0.998,-0.333,-1.4,4.49,6.59,1785101045914.8691
0.036,-0.993,-0.322,1.31,4.09,5.19,1785101045915.107
0.037,-0.984,-0.316,5.31,3.66,4.91,1785101045915.3398
0.048,-0.992,-0.318,8.42,3.66,3.75,1785101045915.566
0.044,-0.994,-0.327,8.33,3.45,1.19,1785101045915.7961
0.048,-0.995,-0.322,4.85,2.72,-0.21,1785101045916.045
0.056,-0.991,-0.317,0.95,1.77,-1.13,1785101045916.278
0.058,-0.989,-0.318,0.31,1.77,-1.43,1785101045916.4888
0.054,-0.99,-0.314,3.02,2.84,-0.92,1785101045916.7021
0.053,-0.993,-0.317,6.13,3.42,-0.61,1785101045916.9102
0.047,-0.974,-0.31,7.42,3.42,-0.82,1785101045917.1199
0.057,-0.976,-0.3,8.33,3.14,-0.95,1785101045917.332
0.055,-0.989,-0.3,9.46,2.96,-3.02,1785101045917.539
0.052,-0.988,-0.308,10.47,3.11,-5.28,1785101045917.7458
0.045,-0.962,-0.322,12.15,3.51,-5.98,1785101045917.956
0.052,-0.947,-0.327,14.4,4.15,-4.73,1785101045918.167
0.053,-0.943,-0.338,15.11,4.52,-4.36,1785101045918.3738
0.049,-0.938,-0.335,13.82,5.1,-4.06,1785101045918.5842
0.049,-0.96,-0.332,11.47,5.1,-4.33,1785101045918.792
0.042,-0.952,-0.335,6.62,4.43,-6.07,1785101045918.998
0.042,-0.913,-0.328,0.89,3.72,-5.58,1785101045919.2012
0.053,-0.939,-0.321,-1.13,3.11,-4.39,1785101045919.398
0.048,-0.985,-0.307,-0.21,2.93,-6.68,1785101045919.594
0.039,-0.979,-0.292,0.06,2.29,-8.51,1785101045919.7869
0.042,-0.96,-0.273,0.06,0.67,-7.17,1785101045919.986
0.048,-0.933,-0.263,0.34,-0.58,-5.1,1785101045920.186
0.048,-0.906,-0.254,0.12,-1.5,-3.6,1785101045920.386
0.061,-0.925,-0.236,-2.14,-3.17,-2.41,1785101045920.583
0.063,-0.957,-0.227,-4.79,-5.34,-4.43,1785101045920.7812
0.066,-0.988,-0.233,-4.91,-6.41,-6.81,1785101045920.9832
0.066,-0.988,-0.233,-3.69,-6.65,-8.03,1785101045921.1772
0.068,-0.999,-0.254,-0.73,-6.47,-7.02,1785101045921.3738
0.067,-0.978,-0.293,2.78,-5.92,-2.99,1785101045921.569
0.072,-0.945,-0.336,6.26,-4.33,2.11,1785101045921.7651
0.08,-0.907,-0.344,6.26,-4.33,2.11,1785101045921.962
0.092,-0.915,-0.319,9.25,-2.93,4.06,1785101045922.163
0.086,-0.927,-0.31,7.72,-2.66,1.25,1785101045922.36
0.072,-0.924,-0.298,0.67,-3.2,-0.89,1785101045922.556
0.073,-0.923,-0.281,-5.34,-3.33,-0.7,1785101045922.7542
0.077,-0.921,-0.283,-4.94,-2.62,0.76,1785101045922.954
0.08,-0.925,-0.299,-0.64,-1.86,3.14,1785101045923.1548
0.077,-0.929,-0.302,1.68,-2.01,5.07,1785101045923.3542
0.074,-0.938,-0.294,1.89,-1.92,5.19,1785101045923.553
0.07,-0.941,-0.293,1.04,-1.43,4.09,1785101045923.757
0.076,-0.947,-0.311,-0.43,-1.01,2.62,1785101045923.954
0.078,-0.955,-0.324,-2.44,-0.34,2.14,1785101045924.155
0.075,-0.967,-0.312,-3.08,0.52,2.66,1785101045924.347
0.075,-0.996,-0.311,-0.34,1.68,3.14,1785101045924.541
0.072,-1.015,-0.315,3.02,3.2,3.23,1785101045924.732
0.066,-1.014,-0.319,5.19,4.21,3.39,1785101045924.916
0.066,-1.006,-0.328,6.29,4.58,3.63,1785101045925.101
0.067,-0.982,-0.334,5.49,4.55,4.06,1785101045925.2852
0.063,-0.953,-0.328,3.14,4.24,4.88,1785101045925.47
0.066,-0.948,-0.32,0.46,3.54,5.43,1785101045925.6582
0.073,-0.961,-0.321,-2.44,2.9,4.64,1785101045925.8418
0.067,-0.973,-0.319,-3.6,2.72,3.17,1785101045926.024
0.066,-0.983,-0.32,-2.62,2.87,2.11,1785101045926.2039
0.054,-0.969,-0.299,-1.19,3.08,1.8,1785101045926.385
0.046,-0.957,-0.267,2.29,2.81,2.75,1785101045926.5652
0.033,-0.976,-0.244,8.55,2.66,3.45,1785101045926.75
0.019,-0.993,-0.232,14.34,1.92,2.5,1785101045926.938
0.012,-0.993,-0.236,18.49,0.79,1.01,1785101045927.124
0.018,-0.985,-0.249,20.48,0.12,-0.15,1785101045927.306
0.034,-0.971,-0.258,20.14,-0.4,-0.92,1785101045927.4912
0.048,-0.962,-0.262,19.17,-1.16,-1.16,1785101045927.677
0.056,-0.949,-0.267,17.82,-1.71,-1.56,1785101045927.86
0.057,-0.948,-0.28,16.39,-2.01,-2.26,1785101045928.0442
0.06,-0.961,-0.284,13.46,-2.01,-4.06,1785101045928.228
0.051,-0.97,-0.279,9.49,-1.83,-6.81,1785101045928.4128
0.041,-0.961,-0.273,6.53,-1.07,-7.81,1785101045928.596
0.041,-0.956,-0.27,5.13,0.12,-7.05,1785101045928.7832
0.043,-0.935,-0.265,4.49,0.89,-5.95,1785101045928.967
0.05,-0.922,-0.269,5.4,1.43,-4.27,1785101045929.15
0.055,-0.91,-0.275,6.07,1.56,-2.75,1785101045929.334
0.058,-0.907,-0.286,6.38,1.4,-1.37,1785101045929.518
0.054,-0.904,-0.304,5.83,1.25,-0.52,1785101045929.7039
0.057,-0.904,-0.304,4.09,1.01,0.61,1785101045929.8857
0.061,-0.914,-0.307,2.2,0.52,0.79,1785101045930.0688
0.065,-0.945,-0.3,-0.55,-0.24,0.15,1785101045930.254
0.058,-0.99,-0.298,-2.11,-0.67,-1.89,1785101045930.435
0.037,-0.957,-0.287,-3.33,-0.7,-1.92,1785101045930.6409
0.053,-0.936,-0.274,-2.14,-1.43,2.32,1785101045930.835
0.06,-0.956,-0.278,0.37,-1.95,3.81,1785101045931.0168
0.055,-0.966,-0.271,0.37,-2.66,2.72,1785101045931.2598
0.06,-0.98,-0.25,-0.21,-3.39,2.75,1785101045931.4548
0.07,-1.008,-0.241,-0.52,-3.85,2.26,1785101045931.632
0.062,-1.018,-0.238,-1.8,-4.12,0.34,1785101045931.806
0.06,-1.004,-0.24,-2.66,-4.15,0.37,1785101045931.983
0.071,-1.014,-0.241,-0.85,-4.12,1.83,1785101045932.16
0.074,-1.0,-0.251,2.78,-3.57,2.66,1785101045932.3352
0.082,-0.991,-0.255,6.84,-2.96,3.6,1785101045932.512
0.093,-1.005,-0.259,10.5,-2.41,3.14,1785101045932.691
0.089,-0.993,-0.261,13.98,-1.4,2.2,1785101045932.8699
0.087,-0.949,-0.257,17.79,0.0,4.09,1785101045933.0461
0.091,-0.928,-0.262,21.76,0.31,7.35,1785101045933.2258
0.095,-0.947,-0.267,22.61,-0.15,8.76,1785101045933.409
0.086,-0.965,-0.264,19.78,-0.18,7.57,1785101045933.5942
0.072,-0.942,-0.255,15.84,0.52,7.45,1785101045933.773
0.085,-0.936,-0.249,13.25,1.16,9.4,1785101045933.95
0.108,-0.982,-0.27,9.95,1.71,7.14,1785101045934.125
0.101,-1.011,-0.293,4.39,3.57,2.23,1785101045934.298
0.082,-1.027,-0.292,0.95,5.58,1.46,1785101045934.4731
0.075,-1.037,-0.288,0.34,5.68,2.72,1785101045934.6501
0.06,-0.996,-0.297,-0.76,5.19,4.03,1785101045934.824
0.058,-0.959,-0.294,-1.59,5.34,7.2,1785101045934.997
0.061,-0.968,-0.294,-2.04,5.28,8.91,1785101045935.173
0.069,-0.993,-0.286,-3.14,5.28,8.12,1785101045935.351
0.071,-1.01,-0.276,-2.59,5.58,6.35,1785101045935.5269
0.068,-1.021,-0.268,-0.46,5.83,5.01,1785101045935.704
0.056,-1.021,-0.256,1.07,5.37,3.81,1785101045935.8809
0.041,-1.006,-0.245,3.2,5.01,3.48,1785101045936.059
0.042,-1.006,-0.239,6.16,4.91,3.81,1785101045936.2349
0.046,-1.024,-0.244,7.6,4.67,2.47,1785101045936.414
0.047,-1.024,-0.243,5.04,3.97,0.24,1785101045936.59
0.048,-1.022,-0.237,0.98,3.23,-1.4,1785101045936.759
0.043,-1.013,-0.232,-2.93,2.29,-2.26,1785101045936.9412
0.044,-1.015,-0.228,-5.8,1.92,-2.38,1785101045937.122
0.045,-1.012,-0.224,-8.27,1.43,-2.87,1785101045937.294
0.039,-0.991,-0.221,-8.58,0.76,-2.93,1785101045937.4622
0.037,-0.965,-0.218,-6.84,0.27,-2.5,1785101045937.633
0.044,-0.954,-0.217,-4.24,-0.21,-2.26,1785101045937.8062
0.043,-0.944,-0.225,-2.14,-0.18,-2.96,1785101045937.976
0.04,-0.934,-0.218,-0.27,0.21,-2.66,1785101045938.1519
0.038,-0.948,-0.216,2.96,0.24,-2.9,1785101045938.3262
0.039,-0.972,-0.209,5.98,0.37,-4.18,1785101045938.5012
0.037,-1.009,-0.213,9.0,0.58,-5.92,1785101045938.6702
0.032,-1.013,-0.218,9.16,0.49,-7.08,1785101045938.84
0.033,-0.997,-0.229,8.15,0.18,-6.13,1785101045939.012
0.039,-0.981,-0.24,5.86,0.12,-4.67,1785101045939.1812
0.04,-0.947,-0.25,1.01,-0.4,-3.69,1785101045939.353
0.05,-0.938,-0.244,-4.49,-1.13,-2.2,1785101045939.5251
0.054,-0.949,-0.23,-9.77,-2.17,-2.17,1785101045939.6968
0.053,-0.973,-0.23,-12.6,-2.9,-3.94,1785101045939.8667
0.046,-0.985,-0.226,-13.43,-3.27,-6.26,1785101045940.043
0.039,-0.971,-0.229,-11.29,-3.66,-6.41,1785101045940.217
0.046,-0.954,-0.233,-7.14,-3.54,-4.43,1785101045940.3892
0.045,-0.938,-0.246,-3.27,-3.27,-2.96,1785101045940.563
0.043,-0.923,-0.254,-0.98,-2.69,-1.8,1785101045940.736
0.044,-0.916,-0.255,-0.64,-2.53,-0.43,1785101045940.907
0.052,-0.927,-0.247,-0.49,-2.78,0.34,1785101045941.076
0.051,-0.956,-0.247,0.21,-3.14,-0.27,1785101045941.251
0.042,-0.959,-0.248,0.67,-2.9,-0.64,1785101045941.4248
0.045,-0.96,-0.251,2.5,-2.38,0.67,1785101045941.5933
0.052,-0.963,-0.248,4.12,-1.98,1.62,1785101045941.7651
0.053,-0.974,-0.245,4.76,-1.74,1.07,1785101045941.937
0.053,-0.975,-0.24,3.42,-1.77,0.21,1785101045942.11
0.049,-0.972,-0.245,3.02,-1.74,-0.06,1785101045942.2788
0.049,-0.962,-0.248,3.11,-1.34,0.76,1785101045942.445
0.057,-0.971,-0.255,3.6,-1.04,2.62,1785101045942.7969
0.056,-0.97,-0.26,2.59,-1.46,2.53,1785101045942.98
-0.277,-0.941,-0.939,-56.67,-23.38,-47.98,1785101045943.369
-0.259,-1.0,-0.863,-47.7,-12.36,-74.65,1785101045943.5579
-0.29,-0.958,-0.722,-27.38,-6.44,-100.28,1785101045947.895
-0.317,-0.885,-0.678,2.72,-4.76,-120.03,1785101045961.1677
-0.347,-0.819,-0.715,34.61,-4.49,-136.97,1785101045966.732
-0.389,-0.753,-0.758,58.84,-6.68,-151.77,1785101045977.546
-0.41,-0.711,-0.781,72.94,-10.25,-162.21,1785101045988.215
-0.388,-0.688,-0.788,78.92,-13.31,-167.58,1785101046001.456
-0.332,-0.689,-0.789,79.81,-16.88,-168.92,1785101046007.425
-0.261,-0.673,-0.798,75.05,-20.26,-167.18,1785101046018.2058
-0.204,-0.632,-0.781,65.16,-22.71,-161.93,1785101046031.445
-0.165,-0.581,-0.733,52.37,-24.96,-153.29,1785101046037.28
-0.128,-0.548,-0.673,40.96,-26.83,-143.04,1785101046048.2078
-0.071,-0.532,-0.615,33.39,-29.33,-133.55,1785101046061.535
0.023,-0.531,-0.607,31.62,-33.3,-124.52,1785101046067.2742
0.11,-0.529,-0.589,33.75,-36.62,-115.45,1785101046078.2249
0.144,-0.532,-0.559,40.65,-39.64,-105.87,1785101046091.463
0.155,-0.532,-0.542,51.12,-43.0,-95.46,1785101046097.145
0.166,-0.497,-0.535,61.89,-46.14,-84.29,1785101046108.0818
0.213,-0.464,-0.585,73.21,-46.63,-72.51,1785101046121.286
0.248,-0.426,-0.59,81.24,-44.83,-62.47,1785101046127.035
0.283,-0.361,-0.594,80.26,-47.43,-52.06,1785101046137.664
0.349,-0.372,-0.621,71.87,-50.2,-43.06,1785101046148.31
0.379,-0.424,-0.636,58.66,-51.33,-39.37,1785101046161.561
0.377,-0.443,-0.58,43.28,-52.98,-36.01,1785101046167.277
0.364,-0.457,-0.554,32.53,-56.03,-29.88,1785101046178.04
0.375,-0.509,-0.581,30.03,-56.89,-22.8,1785101046191.3608
0.391,-0.535,-0.579,33.2,-55.02,-17.21,1785101046196.9412
0.4,-0.524,-0.561,44.59,-51.88,-11.51,1785101046207.825
0.401,-0.526,-0.57,62.35,-49.13,-5.07,1785101046218.291
0.417,-0.531,-0.612,77.91,-47.7,1.83,1785101046231.533
0.438,-0.544,-0.645,89.72,-44.86,7.78,1785101046237.3389
0.439,-0.584,-0.671,98.73,-41.17,11.41,1785101046247.8188
0.433,-0.624,-0.694,102.82,-37.57,13.82,1785101046261.091
0.436,-0.65,-0.71,101.84,-34.3,18.16,1785101046266.887
0.445,-0.66,-0.704,97.6,-31.4,23.13,1785101046277.707
0.456,-0.669,-0.7,93.02,-28.08,26.43,1785101046288.327
0.467,-0.688,-0.719,87.71,-24.26,27.07,1785101046301.6582
0.462,-0.688,-0.709,78.68,-20.78,26.64,1785101046307.521
0.456,-0.676,-0.701,67.26,-18.56,26.98,1785101046318.066
0.457,-0.696,-0.701,55.73,-16.05,27.89,1785101046331.304
0.439,-0.715,-0.686,45.08,-13.58,27.83,1785101046337.0737
0.424,-0.724,-0.683,38.03,-11.32,28.53,1785101046347.716
0.417,-0.745,-0.676,35.28,-9.16,29.85,1785101046358.3638
0.414,-0.771,-0.673,36.13,-6.99,31.07,1785101046371.594
0.408,-0.782,-0.682,40.1,-4.27,32.35,1785101046377.258
0.405,-0.791,-0.668,45.93,-1.83,34.03,1785101046387.718
0.393,-0.82,-0.646,52.98,-0.34,35.25,1785101046398.263
0.371,-0.852,-0.628,59.88,0.7,35.58,1785101046411.625
0.349,-0.872,-0.627,65.07,0.98,35.37,1785101046417.33
0.333,-0.89,-0.61,68.67,1.16,35.22,1785101046427.714
0.318,-0.929,-0.593,72.82,1.59,34.79,1785101046438.2458
0.299,-0.952,-0.582,78.01,2.29,34.12,1785101046451.515
0.286,-0.948,-0.581,82.8,2.66,34.67,1785101046457.3171
0.284,-0.927,-0.589,84.69,3.05,35.58,1785101046467.7131
0.284,-0.912,-0.596,80.57,4.21,34.39,1785101046478.3782
0.275,-0.949,-0.605,71.08,3.88,34.06,1785101046491.674
0.267,-0.978,-0.576,60.49,4.82,31.71,1785101046497.3052
0.246,-0.996,-0.555,51.48,5.62,26.49,1785101046507.869
0.237,-1.016,-0.533,43.95,5.46,22.16,1785101046518.303
0.227,-1.015,-0.502,39.74,6.53,18.77,1785101046531.569
0.212,-1.01,-0.474,39.28,8.24,17.15,1785101046537.359
0.2,-1.016,-0.458,41.78,8.39,17.58,1785101046547.7441
0.205,-1.017,-0.446,45.81,7.42,21.33,1785101046558.4
0.227,-0.983,-0.448,49.87,7.81,22.92,1785101046571.562
0.227,-0.926,-0.48,49.35,7.14,21.33,1785101046577.2732
0.235,-0.914,-0.474,41.9,5.16,21.21,1785101046587.7122
0.23,-0.969,-0.453,32.56,5.25,18.92,1785101046598.3733
0.191,-1.003,-0.441,25.79,6.56,15.02,1785101046611.582
0.169,-1.016,-0.424,22.34,6.99,15.29,1785101046617.2512
0.16,-1.003,-0.402,19.26,6.53,19.59,1785101046627.761
0.163,-0.98,-0.371,16.02,6.84,22.28,1785101046638.268
0.156,-0.983,-0.352,13.03,6.13,22.22,1785101046651.5642
0.153,-1.001,-0.335,10.74,6.16,20.36,1785101046657.6152
0.141,-1.02,-0.36,10.8,8.06,16.14,1785101046667.735
0.14,-1.041,-0.397,11.08,9.09,13.06,1785101046678.3008
0.138,-1.037,-0.408,10.71,9.8,13.52,1785101046691.594
0.137,-1.067,-0.414,15.66,14.31,14.8,1785101046697.237
0.111,-1.092,-0.437,23.8,16.17,14.77,1785101046708.05
0.102,-1.066,-0.423,28.23,16.14,15.38,1785101046721.251
0.109,-1.028,-0.405,28.02,17.79,15.66,1785101046727.014
0.111,-1.017,-0.382,25.54,19.41,15.08,1785101046737.623
0.1,-1.048,-0.343,23.41,19.47,14.07,1785101046748.299
0.086,-1.068,-0.322,23.07,18.16,12.91,1785101046761.5093
0.082,-1.053,-0.309,25.03,16.36,12.82,1785101046767.28
0.08,-1.023,-0.309,28.44,14.53,13.15,1785101046777.995
0.083,-0.992,-0.313,29.97,12.18,12.88,1785101046791.265
0.091,-0.981,-0.321,28.05,9.64,11.23,1785101046796.9502
0.093,-1.017,-0.342,22.61,7.35,8.27,1785101046807.483
0.085,-1.055,-0.344,12.91,5.28,5.4,1785101046817.877
0.074,-1.073,-0.338,4.12,3.36,2.99,1785101046828.2722
0.057,-1.057,-0.343,-1.92,1.98,0.85,1785101046841.603
0.046,-1.016,-0.336,-7.69,0.98,0.12,1785101046846.9739
0.041,-0.981,-0.325,-13.0,-0.49,0.03,1785101046857.395
0.039,-0.962,-0.311,-17.46,-2.04,-0.46,1785101046867.782
0.038,-0.964,-0.297,-20.94,-4.12,-1.98,1785101046878.3171
0.033,-0.976,-0.288,-22.74,-6.2,-4.15,1785101046891.662
0.021,-0.981,-0.274,-22.95,-8.06,-7.05,1785101046897.2148
0.009,-0.976,-0.273,-20.02,-10.07,-8.55,1785101046907.5461
0.002,-0.945,-0.276,-14.37,-11.72,-7.81,1785101046918.0422
0.001,-0.916,-0.286,-5.71,-12.3,-6.13,1785101046931.297
-0.009,-0.904,-0.317,3.36,-11.72,-6.13,1785101046936.933
-0.023,-0.885,-0.341,9.13,-10.83,-6.35,1785101046947.224
-0.027,-0.877,-0.347,11.32,-11.05,-5.58,1785101046957.833
-0.03,-0.89,-0.34,10.71,-11.81,-6.44,1785101046968.3389
-0.035,-0.926,-0.324,8.79,-12.24,-9.06,1785101046981.575
-0.044,-0.928,-0.306,5.92,-13.12,-12.02,1785101046987.367
-0.042,-0.936,-0.285,4.55,-14.59,-12.79,1785101046997.709
-0.042,-0.936,-0.285,3.81,-15.87,-13.58,1785101047008.327
-0.041,-0.938,-0.267,1.53,-17.58,-13.67,1785101047021.537
-0.051,-0.894,-0.267,-1.95,-18.77,-12.79,1785101047027.287
-0.043,-0.888,-0.229,-8.3,-22.22,-14.31,1785101047037.697
-0.038,-0.915,-0.201,-16.24,-26.15,-15.9,1785101047048.362
-0.026,-0.948,-0.203,-16.24,-26.15,-15.9,1785101047061.644
-0.007,-0.954,-0.244,-19.96,-27.44,-17.37,1785101047067.353
-0.012,-0.917,-0.299,-20.29,-26.8,-16.63,1785101047078.0532
0.02,-0.838,-0.308,-21.12,-26.18,-11.23,1785101047091.3542
0.047,-0.811,-0.31,-19.41,-25.7,-7.48,1785101047097.0107
0.067,-0.841,-0.319,-20.14,-25.48,-7.72,1785101047107.6008
0.079,-0.903,-0.344,-22.83,-24.69,-11.96,1785101047118.222
0.077,-0.944,-0.359,-25.18,-22.68,-15.56,1785101047131.4612
0.087,-0.964,-0.372,-24.08,-19.9,-14.16,1785101047137.148
0.1,-0.918,-0.389,-21.36,-17.3,-8.64,1785101047147.824
0.112,-0.849,-0.371,-17.33,-14.4,-2.99,1785101047158.4949
0.11,-0.84,-0.368,-12.21,-12.79,0.34,1785101047171.7063
0.133,-0.897,-0.364,-9.77,-10.86,0.52,1785101047177.3792
0.12,-0.917,-0.365,-10.5,-7.63,-3.51,1785101047187.642
0.091,-0.913,-0.386,-12.09,-6.62,-3.39,1785101047198.2068
0.09,-0.881,-0.392,-16.17,-8.27,1.56,1785101047211.385
0.102,-0.858,-0.403,-20.33,-8.48,5.68,1785101047217.0408
0.095,-0.852,-0.43,-24.81,-7.78,9.03,1785101047227.314
0.089,-0.853,-0.436,-27.68,-7.81,12.57,1785101047237.854
0.076,-0.873,-0.439,-23.19,-6.04,13.76,1785101047248.712
0.073,-0.925,-0.436,-13.67,-3.05,12.18,1785101047261.676
0.071,-0.975,-0.44,-5.77,0.06,6.62,1785101047267.295
0.047,-1.005,-0.407,-7.05,1.62,0.49,1785101047277.486
0.014,-1.042,-0.39,-15.17,-0.18,-3.94,1785101047287.9282
-0.008,-1.028,-0.366,-23.32,-1.5,-5.19,1785101047298.41
-0.001,-1.037,-0.362,-22.19,0.58,-3.91,1785101047311.6902
-0.014,-1.033,-0.376,-15.72,3.66,-3.48,1785101047317.3188
0.001,-0.996,-0.349,-11.44,4.39,-2.23,1785101047327.625
0.026,-0.989,-0.334,-6.9,4.24,-2.69,1785101047338.038
0.035,-0.996,-0.338,-2.69,4.7,-6.38,1785101047348.47
0.032,-0.988,-0.351,1.62,5.37,-10.35,1785101047361.6882
0.031,-0.955,-0.36,8.55,6.29,-10.28,1785101047367.423
0.03,-0.928,-0.365,18.25,6.23,-8.48,1785101047377.56
0.03,-0.916,-0.375,26.98,5.71,-7.6,1785101047388.0051
0.039,-0.92,-0.359,32.75,5.16,-6.9,1785101047401.307
0.05,-0.94,-0.335,37.23,3.97,-6.68,1785101047406.949
0.042,-0.907,-0.31,36.35,1.89,-6.38,1785101047417.5151
0.06,-0.871,-0.261,29.15,-1.68,-3.27,1785101047427.7
0.076,-0.878,-0.219,16.85,-7.05,-2.81,1785101047438.196
0.077,-0.901,-0.187,1.07,-12.39,-4.33,1785101047451.432
0.085,-0.902,-0.196,-12.67,-16.82,-4.61,1785101047457.2139
0.094,-0.911,-0.231,-17.27,-18.59,-4.7,1785101047467.581
0.096,-0.902,-0.299,-11.54,-18.31,-4.12,1785101047478.1902
0.094,-0.879,-0.36,-0.12,-16.69,-1.59,1785101047491.4429
0.107,-0.822,-0.394,6.5,-16.82,3.91,1785101047497.104
0.12,-0.827,-0.399,7.17,-17.21,8.24,1785101047507.3499
0.124,-0.886,-0.391,2.78,-17.12,6.13,1785101047517.7998
0.119,-0.964,-0.379,-2.29,-14.89,0.52,1785101047528.227
0.094,-1.018,-0.371,-2.75,-11.26,-3.91,1785101047541.574
0.076,-0.998,-0.358,1.28,-8.21,-2.11,1785101047547.01
0.073,-0.928,-0.34,7.05,-6.29,4.12,1785101047557.3271
0.078,-0.876,-0.33,11.81,-4.7,10.13,1785101047567.776
0.097,-0.901,-0.346,14.22,-3.05,11.32,1785101047578.377
0.104,-0.965,-0.387,13.03,-1.77,6.93,1785101047591.603
0.089,-0.999,-0.412,6.59,-1.86,2.47,1785101047597.1301
0.072,-0.99,-0.42,-2.01,-2.87,1.37,1785101047607.383
0.064,-0.959,-0.416,-9.46,-4.27,1.89,1785101047617.7349
0.066,-0.94,-0.41,-13.09,-4.43,2.32,1785101047628.191
0.072,-0.966,-0.423,-11.29,-3.23,2.44,1785101047641.569
0.063,-0.98,-0.439,-7.97,-1.43,1.22,1785101047647.014
0.052,-0.981,-0.449,-5.28,0.85,0.67,1785101047657.294
0.039,-0.96,-0.425,-5.34,2.47,0.46,1785101047667.6072
0.04,-0.918,-0.386,-7.81,2.93,0.67,1785101047677.987
0.05,-0.931,-0.375,-8.91,3.08,-0.46,1785101047688.373
0.042,-0.962,-0.371,-8.94,3.69,-4.21,1785101047701.628
0.035,-0.999,-0.365,-8.24,4.09,-7.2,1785101047707.092
0.034,-1.018,-0.351,-6.93,4.27,-8.36,1785101047717.283
0.039,-1.02,-0.346,-3.63,4.67,-8.88,1785101047727.674
0.044,-1.008,-0.361,1.71,6.04,-10.28,1785101047738.2532
0.04,-0.962,-0.377,8.33,8.3,-9.8,1785101047751.382
0.041,-0.941,-0.385,15.87,9.98,-6.81,1785101047757.037
0.045,-0.963,-0.372,22.13,10.44,-5.25,1785101047767.346
0.044,-0.968,-0.346,25.33,9.61,-5.89,1785101047777.7942
0.057,-0.974,-0.334,28.99,8.24,-6.01,1785101047788.28
0.06,-0.968,-0.317,31.77,6.16,-4.97,1785101047801.529
0.058,-0.924,-0.268,28.57,3.36,-2.2,1785101047807.1628
0.092,-0.904,-0.232,21.85,0.4,0.7,1785101047817.428
0.095,-0.943,-0.239,19.84,-0.52,-1.28,1785101047827.9521
0.074,-0.919,-0.251,15.08,-1.34,-2.81,1785101047838.392
0.097,-0.922,-0.262,6.16,-4.43,-2.5,1785101047851.646
0.108,-0.945,-0.265,-0.61,-6.04,-3.45,1785101047857.1992
0.124,-0.925,-0.276,-0.09,-4.27,-2.78,1785101047867.306
0.127,-0.884,-0.328,4.33,-2.41,-0.98,1785101047877.697
0.109,-0.848,-0.366,4.27,-2.93,2.04,1785101047888.109
0.113,-0.838,-0.357,-3.72,-6.04,5.46,1785101047898.424
0.126,-0.88,-0.345,-11.99,-6.47,5.4,1785101047911.668
0.116,-0.934,-0.333,-14.01,-4.58,2.11,1785101047917.28
0.108,-0.944,-0.324,-12.3,-2.93,1.22,1785101047927.582
0.114,-0.956,-0.323,-8.33,-1.59,3.75,1785101047937.965
0.11,-0.973,-0.33,-3.63,-0.21,5.71,1785101047948.355
0.099,-0.953,-0.324,-1.56,2.04,6.93,1785101047961.691
0.099,-0.932,-0.332,-2.01,3.3,8.55,1785101047967.0469
0.105,-0.944,-0.384,-4.58,4.18,8.51,1785101047977.288
0.086,-0.939,-0.429,-10.68,4.7,8.12,1785101047987.741
0.079,-0.918,-0.406,-17.46,5.13,10.77,1785101047998.385
0.084,-0.919,-0.405,-17.82,5.22,12.09,1785101048011.591
0.076,-0.937,-0.396,-14.04,6.38,11.35,1785101048017.3381
0.067,-0.955,-0.371,-9.52,6.04,10.35,1785101048027.69
0.063,-0.965,-0.365,-4.55,5.62,8.73,1785101048038.06
0.06,-0.965,-0.36,0.09,5.74,6.96,1785101048048.4568
0.052,-0.978,-0.368,2.78,6.01,5.8,1785101048061.7148
0.048,-0.96,-0.358,-1.83,4.97,5.58,1785101048067.1538
0.044,-0.935,-0.344,-8.76,2.69,6.2,1785101048077.399
0.03,-0.868,-0.346,-13.15,1.95,7.9,1785101048087.924
0.059,-0.896,-0.352,-11.6,4.36,10.68,1785101048098.447
0.054,-1.012,-0.351,-9.77,6.32,4.43,1785101048111.7283
0.031,-1.069,-0.317,-13.15,5.46,-6.62,1785101048117.3142
0.028,-1.078,-0.31,-11.87,4.67,-11.23,1785101048127.771
0.032,-1.084,-0.322,-2.47,5.95,-9.61,1785101048138.012
0.029,-1.038,-0.349,4.55,7.6,-9.06,1785101048148.3892
0.031,-0.953,-0.363,7.29,8.64,-6.93,1785101048161.619
0.049,-0.946,-0.369,11.93,8.7,-3.36,1785101048167.228
0.057,-0.988,-0.343,17.79,9.64,-2.93,1785101048177.456
0.048,-0.973,-0.323,22.28,9.19,-3.72,1785101048187.9402
0.049,-0.955,-0.309,26.09,7.63,-1.65,1785101048198.4
0.066,-0.937,-0.282,26.7,6.29,-0.58,1785101048211.667
0.067,-0.899,-0.286,23.16,3.63,-1.53,1785101048217.346
0.066,-0.906,-0.283,17.06,0.7,-1.71,1785101048227.572
0.074,-0.935,-0.267,6.99,-2.81,-2.41,1785101048237.9639
0.067,-0.924,-0.263,-1.89,-4.18,-3.11,1785101048248.372
0.076,-0.932,-0.275,-7.97,-4.85,-3.17,1785101048261.659
0.089,-0.948,-0.284,-14.5,-6.2,-4.46,1785101048267.127
0.089,-0.94,-0.283,-15.26,-6.41,-4.39,1785101048277.445
0.083,-0.914,-0.29,-11.9,-6.13,-2.84,1785101048287.91
0.083,-0.914,-0.29,-10.59,-7.26,-0.31,1785101048298.39
0.097,-0.895,-0.304,-8.73,-8.12,1.65,1785101048311.666
0.093,-0.907,-0.323,-8.03,-9.19,1.59,1785101048317.086
0.081,-0.925,-0.32,-8.94,-9.55,-0.85,1785101048327.302
0.086,-0.948,-0.318,-8.94,-9.55,-0.85,1785101048337.687
0.082,-0.936,-0.322,-9.03,-9.13,-1.74,1785101048348.0818
0.09,-0.923,-0.341,-7.63,-8.73,0.76,1785101048358.5012
0.097,-0.94,-0.348,-5.95,-8.36,1.59,1785101048371.783
0.089,-0.964,-0.34,-5.62,-7.75,0.0,1785101048377.143
0.09,-0.983,-0.335,-5.22,-6.29,-1.34,1785101048387.344
0.106,-1.021,-0.352,-3.91,-4.46,-2.84,1785101048397.7659
0.1,-1.048,-0.395,-3.51,-2.41,-5.31,1785101048408.2693
0.06,-0.985,-0.424,-8.51,-2.2,-4.43,1785101048421.4512
0.053,-0.885,-0.419,-16.02,-3.6,2.96,1785101048426.963
0.09,-0.859,-0.39,-20.17,-4.73,9.7,1785101048437.2742
0.112,-0.919,-0.382,-18.13,-4.73,7.48,1785101048447.809
0.094,-0.947,-0.402,-16.11,-4.79,0.7,1785101048458.2441
0.08,-0.961,-0.395,-14.47,-4.91,-1.77,1785101048471.463
0.075,-0.974,-0.386,-11.17,-5.55,-2.14,1785101048477.136
0.072,-0.994,-0.392,-7.54,-5.1,-2.87,1785101048487.294
0.057,-0.986,-0.381,-6.81,-5.13,-3.85,1785101048497.736
0.049,-0.955,-0.371,-9.55,-6.74,-3.17,1785101048508.216
0.059,-0.955,-0.37,-13.7,-8.7,-2.08,1785101048518.541
0.072,-0.987,-0.373,-16.91,-9.7,-2.84,1785101048531.741
0.057,-0.962,-0.363,-18.98,-10.04,-3.66,1785101048537.5
0.057,-0.937,-0.342,-15.2,-9.98,-1.86,1785101048547.793
0.071,-0.944,-0.351,-8.06,-9.83,-2.47,1785101048558.254
0.072,-0.952,-0.371,-3.94,-9.58,-5.86,1785101048571.388
0.07,-0.947,-0.373,-3.6,-9.86,-8.12,1785101048576.8828
0.062,-0.941,-0.381,-2.53,-10.1,-8.79,1785101048587.1511
0.053,-0.942,-0.401,-0.43,-9.67,-9.03,1785101048597.5461
0.05,-0.935,-0.421,2.23,-8.3,-9.25,1785101048607.9849
0.054,-0.943,-0.432,7.51,-6.23,-8.51,1785101048618.3438
0.058,-0.953,-0.414,12.36,-4.55,-8.45,1785101048631.595
0.057,-0.96,-0.379,15.29,-3.78,-9.55,1785101048637.2878
0.052,-0.954,-0.361,15.38,-4.0,-10.8,1785101048647.61
0.049,-0.936,-0.351,13.92,-4.39,-10.74,1785101048658.2798
0.047,-0.914,-0.336,13.61,-4.61,-9.49,1785101048671.438
0.069,-0.869,-0.3,9.89,-5.46,-7.05,1785101048676.938
0.1,-0.85,-0.308,3.75,-7.81,-5.77,1785101048687.157
0.096,-0.881,-0.34,-1.28,-8.39,-7.9,1785101048697.5369
0.076,-0.883,-0.375,-10.04,-10.35,-9.98,1785101048708.174
0.081,-0.886,-0.388,-21.24,-11.35,-9.43,1785101048721.3728
0.081,-0.876,-0.391,-27.77,-10.16,-9.06,1785101048727.141
0.08,-0.9,-0.397,-26.25,-9.09,-8.67,1785101048737.477
0.082,-0.932,-0.395,-21.33,-7.39,-8.33,1785101048748.0059
0.08,-0.939,-0.397,-14.01,-5.95,-6.74,1785101048758.484
0.079,-0.913,-0.375,-7.23,-4.73,-3.05,1785101048771.659
0.083,-0.871,-0.35,-3.88,-4.85,-0.46,1785101048777.156
0.102,-0.857,-0.359,-2.35,-5.28,1.19,1785101048787.321
0.087,-0.877,-0.404,5.43,-3.78,1.31,1785101048797.7888
0.068,-0.87,-0.401,8.55,-4.36,2.81,1785101048808.1658
0.104,-0.88,-0.377,4.36,-5.92,4.55,1785101048818.435
0.107,-0.914,-0.397,1.28,-5.83,3.17,1785101048831.709
0.084,-0.911,-0.405,-3.27,-5.4,2.38,1785101048837.152
0.089,-0.938,-0.401,-10.62,-5.52,1.89,1785101048847.501
0.084,-0.958,-0.403,-19.5,-5.37,-0.67,1785101048857.993
0.073,-0.924,-0.416,-24.6,-3.94,-0.67,1785101048868.371
0.06,-0.878,-0.42,-24.57,-2.62,2.04,1785101048881.6262
0.081,-0.846,-0.423,-23.83,-2.01,4.97,1785101048887.409
0.101,-0.916,-0.442,-19.56,0.15,3.78,1785101048897.5989
0.074,-0.939,-0.445,-17.91,0.92,-0.37,1785101048908.0781
0.06,-0.923,-0.461,-17.43,0.61,0.15,1785101048921.291
0.058,-0.922,-0.452,-15.59,0.21,3.2,1785101048927.0
0.058,-0.902,-0.443,-15.02,-1.25,5.16,1785101048937.2402
0.065,-0.894,-0.436,-13.76,-1.65,6.62,1785101048947.708
0.062,-0.9,-0.429,-10.25,-1.01,7.29,1785101048958.2588
0.048,-0.9,-0.426,-5.13,-0.43,6.71,1785101048971.426
0.042,-0.897,-0.425,-0.95,-0.49,5.49,1785101048976.865
0.046,-0.909,-0.425,-0.03,-0.76,4.0,1785101048987.0752
0.052,-0.93,-0.423,-2.01,-1.4,1.68,1785101048997.479
0.052,-0.949,-0.432,-4.18,-1.62,-0.85,1785101049007.9492
0.045,-0.939,-0.45,-4.97,-1.22,-1.98,1785101049018.2002
0.053,-0.926,-0.447,-3.72,-0.46,-0.76,1785101049031.529
0.063,-0.927,-0.456,-0.61,0.31,-0.82,1785101049036.9312
0.062,-0.927,-0.469,2.17,1.98,-1.5,1785101049047.1858
0.061,-0.914,-0.463,3.6,3.85,-1.5,1785101049057.641
0.057,-0.902,-0.459,4.36,4.46,-1.98,1785101049067.929
0.05,-0.88,-0.44,5.1,4.58,-2.38,1785101049078.314
0.052,-0.9,-0.407,8.48,4.79,-2.81,1785101049091.568
0.046,-0.914,-0.374,10.56,2.66,-4.94,1785101049097.138
0.052,-0.942,-0.348,12.73,0.37,-6.07,1785101049107.451
0.056,-0.986,-0.325,16.6,-0.46,-7.08,1785101049117.894
0.052,-0.975,-0.323,18.04,-1.53,-7.84,1785101049128.375
0.069,-0.948,-0.344,19.93,-3.81,-4.15,1785101049141.711
0.083,-0.943,-0.379,23.83,-5.16,-0.76,1785101049147.281
0.082,-0.899,-0.421,24.11,-5.16,1.59,1785101049157.64
0.083,-0.832,-0.444,21.06,-3.78,4.55,1785101049168.0068
0.119,-0.839,-0.423,19.14,-2.14,6.59,1785101049178.461
0.131,-0.874,-0.404,18.4,-0.7,3.6,1785101049191.757
0.109,-0.898,-0.403,16.91,-0.43,-0.34,1785101049197.428
0.096,-0.912,-0.416,14.28,-0.21,-1.77,1785101049207.7087
0.091,-0.913,-0.435,11.11,0.18,-0.82,1785101049218.171
0.089,-0.91,-0.426,6.99,0.64,1.01,1785101049228.523
0.086,-0.889,-0.409,-0.76,-0.24,2.11,1785101049241.8281
0.097,-0.902,-0.411,-10.71,-1.86,3.2,1785101049247.3901
0.072,-0.883,-0.405,-20.39,-3.02,3.97,1785101049257.714
0.07,-0.837,-0.379,-26.18,-4.03,7.87,1785101049268.1
0.1,-0.88,-0.365,-21.88,-3.08,9.28,1785101049281.3818
0.101,-0.945,-0.365,-13.98,-2.17,5.62,1785101049286.962
0.089,-0.982,-0.367,-9.25,-2.69,2.9,1785101049297.178
0.088,-0.995,-0.392,-6.62,-2.72,2.72,1785101049307.5818
0.096,-1.007,-0.408,-4.64,-0.82,2.62,1785101049317.971
0.102,-1.008,-0.44,-4.61,1.92,0.89,1785101049328.376
0.073,-0.973,-0.483,-6.9,4.64,0.34,1785101049341.651
0.042,-0.86,-0.484,-14.31,4.12,4.91,1785101049347.1448
0.064,-0.82,-0.482,-19.9,3.08,10.9,1785101049357.613
0.088,-0.885,-0.479,-22.4,3.2,10.16,1785101049368.112
0.081,-0.926,-0.454,-25.64,2.87,4.85,1785101049381.418
0.065,-0.939,-0.42,-24.23,2.78,2.04,1785101049386.98
0.058,-0.943,-0.401,-17.21,1.83,1.01,1785101049397.268
0.052,-0.956,-0.398,-8.48,0.82,0.27,1785101049407.653
0.049,-0.964,-0.397,-3.48,-0.7,-0.34,1785101049418.008
0.042,-0.946,-0.406,-3.2,-2.47,-0.61,1785101049428.394
0.037,-0.924,-0.427,-3.69,-2.93,-0.21,1785101049441.719
0.036,-0.897,-0.428,-3.78,-2.72,1.25,1785101049447.1418
0.054,-0.906,-0.421,-2.9,-2.93,2.32,1785101049457.3828
0.071,-0.95,-0.422,-2.23,-3.02,-0.34,1785101049467.721
0.061,-0.963,-0.435,-3.2,-2.59,-4.55,1785101049478.119
0.051,-0.941,-0.434,-2.69,-1.56,-5.19,1785101049488.458
0.047,-0.915,-0.443,1.01,-0.52,-3.91,1785101049501.7458
0.055,-0.869,-0.436,2.08,-0.21,-2.93,1785101049507.155
0.065,-0.871,-0.421,0.95,-1.01,-3.23,1785101049517.3882
0.054,-0.877,-0.413,-0.09,-2.38,-5.62,1785101049527.817
0.06,-0.913,-0.397,3.75,-2.66,-6.35,1785101049538.197
0.064,-0.96,-0.386,11.41,-2.78,-7.84,1785101049551.4272
0.057,-0.964,-0.384,17.67,-3.23,-8.73,1785101049557.127
0.057,-0.945,-0.385,22.03,-3.57,-6.71,1785101049567.323
0.057,-0.945,-0.385,21.45,-4.82,-3.97,1785101049577.831
0.066,-0.902,-0.392,16.69,-6.93,-2.78,1785101049588.279
0.083,-0.885,-0.409,9.37,-7.84,-4.79,1785101049601.5518
0.082,-0.901,-0.401,0.49,-9.67,-6.53,1785101049607.0
0.083,-0.916,-0.403,-6.96,-11.11,-5.8,1785101049617.347
0.084,-0.922,-0.431,-6.96,-11.11,-5.8,1785101049627.761
0.1,-0.905,-0.458,-9.03,-9.43,-3.02,1785101049638.199
0.104,-0.904,-0.457,-1.56,-5.01,-0.85,1785101049648.8508
0.088,-0.869,-0.448,6.2,-2.35,-0.09,1785101049662.064
0.093,-0.837,-0.43,3.69,-3.85,1.62,1785101049667.6748
0.096,-0.835,-0.44,-4.12,-5.52,1.25,1785101049677.709
0.082,-0.828,-0.437,-8.55,-4.97,0.92,1785101049688.115
0.076,-0.844,-0.424,-7.17,-4.06,3.14,1785101049698.472
0.07,-0.857,-0.419,-5.49,-4.3,4.91,1785101049711.838
0.071,-0.873,-0.409,-5.46,-4.76,5.92,1785101049717.366
0.08,-0.91,-0.403,-4.76,-4.46,5.46,1785101049727.468
0.082,-0.953,-0.419,-3.48,-3.85,3.08,1785101049737.8372
0.077,-0.96,-0.445,-3.08,-2.72,1.07,1785101049748.208
0.074,-0.959,-0.449,-2.62,-0.58,1.77,1785101049758.6619
0.078,-0.968,-0.467,-2.38,1.71,2.17,1785101049772.016
0.072,-0.952,-0.485,-4.91,4.58,2.2,1785101049777.503
0.062,-0.904,-0.48,-8.45,5.8,5.07,1785101049787.4492
0.057,-0.855,-0.481,-10.53,4.94,9.89,1785101049797.973
0.067,-0.851,-0.483,-12.45,4.36,11.57,1785101049808.59
0.07,-0.873,-0.474,-15.44,4.61,8.39,1785101049821.797
0.062,-0.894,-0.464,-16.27,4.79,4.55,1785101049827.7532
0.05,-0.912,-0.446,-13.34,4.3,2.62,1785101049837.73
0.04,-0.909,-0.426,-9.22,3.45,2.17,1785101049848.085
0.034,-0.91,-0.419,-3.17,3.08,2.56,1785101049858.5
0.028,-0.913,-0.41,2.17,2.84,2.72,1785101049871.704
0.026,-0.917,-0.405,4.91,2.38,2.29,1785101049877.357
0.021,-0.921,-0.4,5.28,1.59,1.53,1785101049887.3757
0.019,-0.93,-0.406,6.13,1.07,0.61,1785101049897.748
0.026,-0.946,-0.425,8.85,1.8,-0.21,1785101049908.161
0.031,-0.94,-0.443,11.69,3.54,-0.55,1785101049918.6292
0.042,-0.929,-0.451,15.08,5.43,0.15,1785101049932.163
0.054,-0.922,-0.454,17.37,6.74,0.0,1785101049937.6982
0.058,-0.918,-0.456,17.3,7.81,-1.68,1785101049947.8708
0.054,-0.918,-0.451,15.78,8.82,-3.78,1785101049958.442
0.049,-0.924,-0.444,13.43,9.28,-5.52,1785101049968.749
0.045,-0.925,-0.438,9.58,8.85,-6.32,1785101049981.966
0.045,-0.895,-0.42,3.97,7.45,-5.31,1785101049987.631
0.054,-0.872,-0.398,-0.03,5.46,-2.66,1785101049997.7268
0.057,-0.85,-0.382,-0.49,3.17,-0.43,1785101050008.121
0.067,-0.86,-0.369,3.2,1.43,0.61,1785101050018.4163
0.072,-0.876,-0.367,8.03,-0.85,-0.27,1785101050028.821
0.069,-0.905,-0.379,12.21,-3.51,-1.22,1785101050042.123
0.065,-0.924,-0.375,14.19,-5.13,-1.34,1785101050047.8667
0.073,-0.923,-0.375,14.1,-6.04,-0.46,1785101050058.097
0.075,-0.897,-0.391,11.72,-6.65,0.95,1785101050068.538
0.081,-0.889,-0.4,7.23,-7.05,2.08,1785101050081.6892
0.084,-0.901,-0.399,2.78,-7.29,1.74,1785101050087.316
0.081,-0.907,-0.411,0.64,-7.2,1.04,1785101050097.3708
0.083,-0.917,-0.421,0.03,-7.45,1.4,1785101050107.8433
0.089,-0.929,-0.432,-1.16,-7.97,1.92,1785101050118.14
0.094,-0.949,-0.449,-0.95,-6.93,1.8,1785101050128.535
0.096,-0.972,-0.45,2.35,-4.27,1.56,1785101050141.834
0.097,-0.971,-0.44,4.58,-2.35,1.62,1785101050147.4402
0.096,-0.959,-0.436,3.17,-2.2,1.74,1785101050157.588
0.09,-0.956,-0.425,1.1,-2.17,1.83,1785101050167.798
0.067,-0.924,-0.415,0.09,-2.26,3.3,1785101050178.2249
0.044,-0.828,-0.411,-1.77,-2.41,9.03,1785101050188.571
0.085,-0.805,-0.408,-3.66,-1.19,14.8,1785101050201.8208
0.106,-0.882,-0.431,-5.16,-0.09,7.93,1785101050207.5579
0.087,-0.933,-0.43,-8.0,1.37,0.27,1785101050217.555
0.083,-0.986,-0.429,-5.62,3.6,-0.67,1785101050227.9849
0.076,-1.0,-0.445,-2.75,4.97,-2.38,1785101050238.375
0.057,-0.935,-0.447,-3.3,5.04,-1.22,1785101050248.75
0.065,-0.927,-0.456,-2.75,4.55,2.99,1785101050262.024
0.063,-0.947,-0.476,-4.97,3.69,2.69,1785101050267.313
0.055,-0.96,-0.468,-8.39,3.88,1.1,1785101050277.5637
0.04,-0.934,-0.446,-8.79,4.97,1.74,1785101050288.033
0.043,-0.899,-0.418,-5.22,5.52,4.85,1785101050298.2778
0.059,-0.904,-0.406,0.82,5.55,6.35,1785101050308.873
0.053,-0.925,-0.411,5.22,5.8,3.94,1785101050322.122
0.036,-0.941,-0.416,6.38,5.37,0.7,1785101050327.7532
0.025,-0.923,-0.406,4.03,4.24,-0.95,1785101050337.759
0.032,-0.918,-0.408,1.46,3.81,-1.95,1785101050348.144
0.04,-0.927,-0.416,0.27,4.88,-3.51,1785101050358.5479
0.035,-0.931,-0.418,0.0,5.92,-4.43,1785101050371.931
0.033,-0.9,-0.411,-0.43,5.98,-3.42,1785101050377.4011
0.048,-0.899,-0.399,0.31,5.07,-1.95,1785101050387.426
0.054,-0.898,-0.396,0.34,3.36,-2.08,1785101050397.8018
0.049,-0.889,-0.395,-0.15,2.04,-1.92,1785101050408.201
0.053,-0.896,-0.395,0.27,1.28,-1.37,1785101050418.593
0.054,-0.904,-0.401,2.17,1.22,-1.65,1785101050431.803
0.046,-0.895,-0.41,4.55,1.31,-1.71,1785101050437.461
0.038,-0.877,-0.419,6.84,1.34,-0.79,1785101050447.4812
0.042,-0.867,-0.431,7.29,0.4,0.61,1785101050457.9119
0.046,-0.885,-0.422,7.23,0.61,0.95,1785101050468.1191
0.05,-0.901,-0.41,8.39,1.43,0.43,1785101050478.555
0.047,-0.893,-0.405,7.14,0.85,0.21,1785101050491.6868
0.048,-0.892,-0.367,0.21,-1.74,0.49,1785101050497.685
0.063,-0.94,-0.335,-6.99,-4.27,-1.4,1785101050507.5981
0.07,-0.993,-0.339,-8.94,-5.16,-5.92,1785101050517.921
0.071,-0.997,-0.356,-6.29,-4.88,-8.03,1785101050528.3452
0.079,-0.98,-0.385,-2.41,-4.85,-6.84,1785101050538.7761
0.082,-0.944,-0.423,1.37,-4.82,-3.6,1785101050551.938
0.087,-0.917,-0.451,6.56,-3.23,1.04,1785101050557.9487
0.094,-0.906,-0.45,11.99,-0.98,3.66,1785101050567.736
0.101,-0.895,-0.433,14.01,0.21,3.51,1785101050578.2102
0.103,-0.897,-0.422,11.35,0.27,2.32,1785101050588.632
0.09,-0.891,-0.402,4.39,0.0,1.53,1785101050601.909
0.075,-0.882,-0.388,-2.29,-1.1,2.08,1785101050607.508
0.07,-0.866,-0.387,-5.52,-1.22,4.39,1785101050617.6052
0.094,-0.876,-0.388,-4.88,0.24,5.77,1785101050627.9612
0.09,-0.915,-0.414,-2.23,0.85,2.35,1785101050638.884
0.075,-0.916,-0.417,-1.95,1.07,1.1,1785101050648.884
0.08,-0.91,-0.407,-0.67,1.71,2.84,1785101050662.9172
0.089,-0.925,-0.409,2.23,2.87,3.51,1785101050667.684
0.088,-0.946,-0.427,5.13,4.49,3.05,1785101050677.8613
0.079,-0.958,-0.453,7.02,5.58,3.33,1785101050688.035
0.073,-0.96,-0.484,6.16,6.01,4.61,1785101050698.417
0.064,-0.948,-0.489,2.44,6.5,6.53,1785101050708.723
0.067,-0.919,-0.477,-1.56,6.93,8.79,1785101050722.049
0.075,-0.906,-0.47,-2.72,7.9,10.38,1785101050727.878
0.067,-0.87,-0.45,-3.48,8.76,11.05,1785101050737.975
0.068,-0.874,-0.435,-3.45,8.73,10.99,1785101050748.469
0.06,-0.882,-0.409,-4.94,8.03,8.58,1785101050758.791
0.054,-0.894,-0.395,-8.06,6.38,5.1,1785101050772.209
0.051,-0.921,-0.384,-10.83,5.01,2.01,1785101050777.8308
0.043,-0.962,-0.372,-9.64,3.63,0.0,1785101050787.783
0.034,-0.989,-0.374,-4.49,2.72,-0.61,1785101050798.1702
0.024,-0.98,-0.378,-0.12,2.14,-0.03,1785101050808.5762
0.026,-0.95,-0.377,2.14,1.74,1.83,1785101050821.7988
0.031,-0.922,-0.385,3.91,2.17,3.23,1785101050827.521
0.028,-0.888,-0.4,4.3,2.66,3.51,1785101050837.473
0.031,-0.842,-0.396,2.26,2.56,4.21,1785101050847.82
0.047,-0.862,-0.386,1.19,2.59,4.15,1785101050858.361
