ax,ay,az,gx,gy,gz,timestamp_ms
-0.026,-0.922,-0.395,-7.32,2.26,-5.04,1785100946033.042
-0.02,-0.923,-0.383,-5.43,1.62,-4.79,1785100946033.449
-0.013,-0.939,-0.38,-1.59,1.16,-5.31,1785100946033.706
-0.018,-0.932,-0.381,2.59,1.13,-5.74,1785100946033.962
-0.015,-0.927,-0.393,7.81,1.13,-5.34,1785100946034.2058
-0.011,-0.933,-0.407,11.54,1.22,-5.34,1785100946034.4692
-0.014,-0.924,-0.42,11.93,1.74,-5.77,1785100946034.7898
-0.01,-0.907,-0.433,11.29,3.08,-5.16,1785100946035.078
-0.008,-0.907,-0.441,10.32,4.39,-4.7,1785100946035.375
-0.01,-0.906,-0.431,6.68,4.76,-5.19,1785100946035.624
-0.012,-0.901,-0.414,2.72,4.39,-5.04,1785100946035.871
-0.013,-0.917,-0.39,2.14,3.85,-4.12,1785100946036.106
-0.018,-0.911,-0.366,3.08,3.48,-4.36,1785100946036.347
-0.014,-0.869,-0.341,2.14,2.2,-2.44,1785100946036.584
0.003,-0.876,-0.323,0.58,0.06,-0.21,1785100946036.818
0.002,-0.896,-0.31,-1.71,-2.2,-1.07,1785100946037.035
0.004,-0.896,-0.307,-4.91,-3.81,-1.83,1785100946037.26
0.02,-0.915,-0.321,-6.2,-4.85,-2.5,1785100946037.49
0.02,-0.913,-0.352,-5.25,-5.1,-3.17,1785100946037.7212
0.015,-0.896,-0.388,-1.5,-5.16,-1.1,1785100946037.9673
0.021,-0.876,-0.406,4.21,-4.61,3.42,1785100946038.1948
0.023,-0.854,-0.417,10.65,-3.94,7.51,1785100946038.412
0.032,-0.869,-0.423,12.94,-3.88,9.49,1785100946038.6538
0.022,-0.905,-0.42,6.93,-4.79,7.51,1785100946038.8748
0.02,-0.92,-0.404,-6.38,-5.92,4.12,1785100946039.095
0.032,-0.965,-0.398,-17.06,-5.83,1.5,1785100946039.314
0.028,-1.011,-0.408,-18.04,-4.03,-0.06,1785100946039.5378
-0.004,-0.994,-0.41,-9.77,-1.5,1.59,1785100946039.7593
-0.018,-0.886,-0.394,0.92,0.0,8.42,1785100946039.9722
0.006,-0.806,-0.391,8.15,0.06,15.59,1785100946040.192
0.033,-0.852,-0.402,9.37,0.55,14.25,1785100946040.4219
0.02,-0.938,-0.439,4.64,1.86,5.34,1785100946040.648
-0.005,-0.987,-0.468,-2.93,2.44,-0.92,1785100946040.884
-0.016,-0.985,-0.47,-9.46,1.77,-0.49,1785100946041.117
-0.012,-0.957,-0.46,-11.96,1.01,3.11,1785100946041.353
-0.008,-0.935,-0.448,-11.26,1.28,6.41,1785100946041.576
-0.01,-0.91,-0.433,-8.45,1.89,7.75,1785100946041.8381
-0.003,-0.921,-0.433,-4.06,1.95,6.96,1785100946042.0798
-0.011,-0.931,-0.424,-1.37,2.23,3.69,1785100946042.306
-0.018,-0.934,-0.405,0.79,2.75,1.22,1785100946042.5322
-0.018,-0.949,-0.394,4.03,2.99,-0.12,1785100946042.754
-0.016,-0.967,-0.392,5.71,2.29,-1.4,1785100946042.962
-0.015,-0.988,-0.397,5.31,1.74,-2.53,1785100946043.172
-0.019,-0.982,-0.406,4.12,1.46,-3.23,1785100946043.384
-0.015,-0.973,-0.424,4.09,2.11,-3.75,1785100946043.589
-0.015,-0.938,-0.425,4.24,4.09,-3.42,1785100946043.79
-0.006,-0.935,-0.42,4.36,5.46,-2.62,1785100946044.0012
-0.009,-0.922,-0.406,1.68,5.55,-4.39,1785100946044.209
-0.011,-0.905,-0.39,-1.5,5.1,-5.65,1785100946044.4072
-0.005,-0.913,-0.391,-1.31,5.07,-5.68,1785100946044.616
-0.004,-0.922,-0.388,0.98,5.16,-6.2,1785100946044.8481
-0.009,-0.919,-0.387,5.71,4.94,-6.78,1785100946045.045
-0.011,-0.905,-0.388,11.17,4.67,-6.16,1785100946045.255
-0.004,-0.923,-0.398,15.78,4.58,-5.68,1785100946045.464
-0.009,-0.922,-0.407,16.02,4.39,-7.02,1785100946045.665
-0.01,-0.909,-0.406,13.64,3.91,-7.17,1785100946045.8792
-0.01,-0.926,-0.405,11.6,2.99,-6.84,1785100946046.091
-0.015,-0.945,-0.388,8.51,1.56,-7.35,1785100946046.3
-0.016,-0.954,-0.355,4.39,-0.79,-6.84,1785100946046.499
-0.011,-0.954,-0.331,0.7,-3.02,-5.13,1785100946046.707
-0.003,-0.914,-0.328,-2.84,-4.27,-3.05,1785100946046.918
0.008,-0.887,-0.337,-5.62,-5.13,-1.5,1785100946047.1199
0.019,-0.881,-0.341,-7.35,-6.32,-1.86,1785100946047.3389
0.012,-0.887,-0.354,-5.68,-7.08,-3.2,1785100946047.553
0.005,-0.874,-0.383,-1.98,-7.57,-1.46,1785100946047.7542
0.015,-0.879,-0.402,1.68,-7.78,2.32,1785100946047.963
0.017,-0.875,-0.423,4.0,-7.32,4.0,1785100946048.1719
0.016,-0.87,-0.42,4.33,-5.77,4.46,1785100946048.3752
0.021,-0.882,-0.415,2.38,-4.85,4.7,1785100946048.5789
0.014,-0.915,-0.405,-1.86,-4.67,3.78,1785100946048.7969
0.004,-0.931,-0.388,-9.0,-5.58,2.44,1785100946049.0088
0.011,-0.942,-0.382,-15.41,-5.65,2.69,1785100946049.217
0.015,-0.945,-0.394,-15.17,-4.18,4.18,1785100946049.4312
0.018,-0.933,-0.389,-9.8,-2.56,6.23,1785100946049.643
0.01,-0.913,-0.386,-2.04,-1.65,8.45,1785100946049.845
0.009,-0.862,-0.373,2.32,-1.62,11.32,1785100946050.055
0.02,-0.865,-0.368,3.02,-2.17,11.99,1785100946050.273
0.022,-0.916,-0.381,0.55,-2.66,7.81,1785100946050.475
0.01,-0.961,-0.395,-1.53,-2.35,4.46,1785100946050.673
0.005,-0.97,-0.398,-2.11,-1.46,4.39,1785100946050.875
0.012,-0.956,-0.409,-2.44,-0.34,4.33,1785100946051.069
0.006,-0.952,-0.436,-2.2,1.46,3.91,1785100946051.2588
-0.008,-0.938,-0.45,-2.56,2.9,5.13,1785100946051.459
-0.008,-0.929,-0.454,-4.39,2.87,6.38,1785100946051.6592
-0.008,-0.926,-0.462,-7.05,2.38,5.4,1785100946051.855
-0.014,-0.926,-0.455,-8.85,2.66,4.12,1785100946052.054
-0.019,-0.941,-0.444,-8.39,2.96,4.18,1785100946052.257
-0.022,-0.948,-0.435,-5.68,3.17,4.09,1785100946052.45
-0.031,-0.945,-0.418,-1.95,3.39,3.45,1785100946052.674
-0.037,-0.942,-0.406,1.65,3.57,2.75,1785100946052.8792
-0.032,-0.934,-0.4,4.21,3.75,2.29,1785100946053.09
-0.024,-0.93,-0.392,5.4,3.33,1.43,1785100946053.312
-0.021,-0.937,-0.396,5.01,2.99,-0.15,1785100946053.526
-0.026,-0.939,-0.409,4.7,3.23,-2.17,1785100946053.762
-0.028,-0.938,-0.415,6.5,4.64,-2.99,1785100946053.9893
-0.03,-0.91,-0.406,7.69,5.52,-2.26,1785100946054.228
-0.016,-0.914,-0.398,8.03,5.37,-1.68,1785100946054.442
-0.013,-0.934,-0.405,6.99,5.46,-3.66,1785100946054.635
-0.02,-0.923,-0.4,5.68,5.65,-5.16,1785100946054.841
-0.021,-0.917,-0.386,6.84,5.62,-4.39,1785100946055.0488
-0.019,-0.933,-0.377,8.45,5.07,-4.91,1785100946055.242
-0.024,-0.941,-0.37,8.73,4.09,-6.26,1785100946055.44
-0.027,-0.942,-0.363,8.73,2.11,-6.13,1785100946055.6328
-0.026,-0.947,-0.345,10.77,0.58,-4.76,1785100946055.8237
-0.028,-0.925,-0.334,13.7,-0.58,-2.96,1785100946056.0178
-0.024,-0.898,-0.319,13.06,-2.11,-1.07,1785100946056.208
-0.007,-0.897,-0.31,7.6,-4.21,-0.49,1785100946056.39
-0.005,-0.924,-0.323,4.24,-5.31,-2.5,1785100946056.5708
-0.017,-0.933,-0.335,4.3,-5.68,-4.06,1785100946056.7578
-0.009,-0.947,-0.361,4.21,-7.14,-3.48,1785100946056.943
-0.001,-0.94,-0.392,2.56,-7.72,-2.32,1785100946057.1233
0.005,-0.903,-0.423,3.85,-5.74,0.55,1785100946057.3281
0.003,-0.853,-0.457,8.61,-3.17,4.82,1785100946057.51
0.013,-0.834,-0.455,9.4,-3.27,8.33,1785100946057.693
0.008,-0.865,-0.426,4.36,-3.72,7.6,1785100946057.897
-0.007,-0.903,-0.388,-6.04,-4.82,3.97,1785100946058.0808
-0.002,-0.939,-0.369,-16.79,-5.16,0.76,1785100946058.271
-0.002,-0.939,-0.369,-18.31,-3.14,-0.49,1785100946058.4531
-0.006,-0.967,-0.376,-10.93,-0.67,2.26,1785100946058.671
-0.009,-0.952,-0.366,-1.25,-0.18,6.78,1785100946058.86
0.001,-0.929,-0.355,1.25,-1.37,8.64,1785100946059.041
0.013,-0.91,-0.367,-3.36,-1.95,6.99,1785100946059.2297
0.021,-0.925,-0.38,-3.36,-1.95,6.99,1785100946059.438
0.016,-0.961,-0.395,-8.94,-0.43,3.42,1785100946059.617
-0.005,-0.968,-0.405,-10.96,2.35,0.89,1785100946059.804
-0.009,-0.927,-0.421,-10.35,4.55,2.2,1785100946059.9922
0.001,-0.908,-0.438,-8.91,5.43,5.77,1785100946060.173
0.01,-0.928,-0.452,-9.37,4.73,6.5,1785100946060.3572
0.003,-0.956,-0.46,-11.02,4.24,4.49,1785100946060.543
-0.011,-0.961,-0.447,-12.27,4.03,2.96,1785100946060.727
-0.016,-0.937,-0.428,-11.2,4.18,3.51,1785100946060.91
-0.016,-0.917,-0.415,-7.51,4.79,4.21,1785100946061.097
-0.024,-0.899,-0.395,-4.33,4.73,3.97,1785100946061.2842
-0.023,-0.931,-0.382,-0.85,4.12,3.78,1785100946061.464
-0.026,-0.969,-0.38,1.8,3.6,2.08,1785100946061.654
-0.033,-0.97,-0.371,1.8,3.14,0.24,1785100946061.841
-0.029,-0.955,-0.366,-0.64,1.89,-0.79,1785100946062.022
-0.024,-0.94,-0.375,-4.55,0.79,-1.16,1785100946062.1992
-0.018,-0.93,-0.392,-6.23,0.85,-0.37,1785100946062.3792
-0.009,-0.923,-0.4,-5.95,1.77,0.58,1785100946062.556
-0.006,-0.913,-0.401,-6.2,2.14,-0.27,1785100946062.729
-0.008,-0.912,-0.394,-7.78,1.43,-2.53,1785100946062.91
-0.017,-0.916,-0.39,-9.61,0.34,-3.94,1785100946063.092
-0.025,-0.93,-0.382,-7.23,-0.12,-3.81,1785100946063.269
-0.027,-0.948,-0.384,0.34,0.27,-3.36,1785100946063.451
-0.026,-0.949,-0.392,7.29,0.49,-3.94,1785100946063.6301
-0.027,-0.919,-0.411,10.9,0.46,-4.06,1785100946063.8071
-0.022,-0.898,-0.422,13.09,1.19,-2.08,1785100946063.992
-0.009,-0.917,-0.429,13.46,1.56,-1.77,1785100946064.1821
-0.014,-0.93,-0.432,10.38,1.37,-4.27,1785100946064.364
-0.02,-0.93,-0.414,5.55,1.16,-4.94,1785100946064.5352
-0.017,-0.934,-0.401,2.04,0.7,-4.64,1785100946064.718
-0.016,-0.934,-0.397,0.82,0.55,-4.3,1785100946064.9001
-0.017,-0.925,-0.398,1.25,0.55,-4.3,1785100946065.0789
-0.02,-0.91,-0.402,3.02,0.4,-3.3,1785100946065.2642
-0.016,-0.906,-0.398,6.2,0.55,-1.62,1785100946065.4568
-0.009,-0.91,-0.39,10.1,0.76,-0.43,1785100946065.635
-0.012,-0.908,-0.378,13.34,1.01,-0.24,1785100946065.814
-0.014,-0.874,-0.371,12.48,-0.4,1.01,1785100946065.9949
-0.013,-0.859,-0.349,6.65,-2.99,2.62,1785100946066.1719
-0.005,-0.886,-0.331,1.1,-5.77,2.32,1785100946066.357
-0.005,-0.945,-0.33,0.89,-6.38,-0.27,1785100946066.5469
-0.014,-0.943,-0.344,3.02,-6.04,-1.65,1785100946066.7788
-0.001,-0.928,-0.367,5.92,-5.58,0.15,1785100946066.9707
0.004,-0.912,-0.41,8.12,-5.74,2.08,1785100946067.1758
-0.001,-0.898,-0.421,10.13,-4.3,5.43,1785100946067.38
0.015,-0.893,-0.427,12.63,-2.38,8.0,1785100946067.574
0.012,-0.885,-0.435,14.04,0.15,8.61,1785100946067.757
0.0,-0.879,-0.433,10.16,0.85,8.42,1785100946067.963
0.01,-0.917,-0.413,-0.03,-0.03,6.59,1785100946068.153
-0.007,-0.963,-0.397,-8.67,0.09,2.62,1785100946068.343
-0.022,-0.975,-0.378,-12.51,0.49,1.62,1785100946068.5408
-0.01,-0.941,-0.37,-11.14,0.55,3.75,1785100946068.8948
-0.001,-0.939,-0.375,-6.23,1.71,4.21,1785100946069.085
0.032,-0.754,-0.835,39.64,-4.91,-0.43,1785100946069.492
-0.009,-0.709,-0.808,32.04,-3.75,-3.23,1785100946069.663
-0.035,-0.715,-0.77,20.66,-2.66,-8.03,1785100946076.4912
-0.076,-0.733,-0.758,5.49,-3.54,-16.27,1785100946089.685
-0.097,-0.771,-0.784,-7.42,-2.81,-25.73,1785100946095.2507
-0.116,-0.821,-0.756,-11.63,0.79,-36.96,1785100946105.7952
-0.149,-0.877,-0.719,-3.14,3.91,-49.9,1785100946116.231
-0.188,-0.932,-0.713,15.72,7.26,-62.96,1785100946126.7588
-0.227,-0.965,-0.688,39.25,9.74,-75.78,1785100946139.9722
-0.225,-0.97,-0.668,64.7,9.92,-85.85,1785100946145.671
-0.202,-0.962,-0.655,88.6,8.88,-94.18,1785100946156.224
-0.185,-0.941,-0.634,107.24,6.5,-101.54,1785100946169.483
-0.17,-0.907,-0.649,118.84,2.17,-106.51,1785100946175.3071
-0.17,-0.846,-0.658,122.75,-0.92,-108.31,1785100946186.2222
-0.186,-0.783,-0.619,123.6,-3.39,-107.7,1785100946199.4272
-0.187,-0.762,-0.582,123.91,-5.95,-108.34,1785100946205.29
-0.175,-0.744,-0.569,121.07,-7.84,-110.6,1785100946216.199
-0.118,-0.683,-0.562,115.3,-9.31,-109.99,1785100946229.482
-0.014,-0.619,-0.512,110.48,-10.99,-105.53,1785100946235.289
0.079,-0.572,-0.462,104.95,-15.69,-99.89,1785100946246.291
0.14,-0.523,-0.412,94.33,-22.61,-93.54,1785100946259.5588
0.163,-0.492,-0.317,80.63,-29.97,-86.03,1785100946265.31
0.15,-0.508,-0.23,69.61,-37.69,-79.1,1785100946276.227
0.116,-0.521,-0.219,61.92,-44.68,-72.88,1785100946286.701
0.123,-0.506,-0.286,57.92,-49.13,-64.79,1785100946300.0781
0.189,-0.479,-0.386,55.36,-51.15,-56.06,1785100946305.981
0.283,-0.468,-0.451,49.01,-51.64,-48.62,1785100946316.552
0.343,-0.494,-0.461,38.61,-51.97,-42.73,1785100946329.7842
0.375,-0.522,-0.467,28.78,-53.32,-36.9,1785100946336.0808
0.403,-0.552,-0.473,24.54,-54.17,-29.54,1785100946346.251
0.41,-0.561,-0.451,28.11,-53.44,-21.76,1785100946356.93
0.393,-0.564,-0.472,39.74,-52.52,-14.22,1785100946370.089
0.402,-0.586,-0.534,53.77,-50.9,-5.77,1785100946376.224
0.423,-0.597,-0.578,64.21,-46.33,0.03,1785100946386.375
0.458,-0.6,-0.612,69.03,-42.6,5.34,1785100946396.9312
0.514,-0.607,-0.602,67.57,-41.47,11.84,1785100946410.253
0.551,-0.623,-0.542,62.53,-40.65,16.6,1785100946416.1292
0.563,-0.663,-0.497,57.04,-40.99,19.14,1785100946426.677
0.559,-0.689,-0.496,49.47,-42.73,21.0,1785100946439.8022
0.561,-0.703,-0.509,41.81,-44.5,23.87,1785100946445.8728
0.566,-0.747,-0.533,36.35,-44.95,26.98,1785100946456.3699
0.554,-0.783,-0.552,31.95,-44.07,27.95,1785100946467.136
0.537,-0.799,-0.553,30.3,-43.15,29.51,1785100946480.133
0.523,-0.812,-0.547,33.27,-42.27,32.04,1785100946486.258
0.511,-0.816,-0.532,39.7,-41.66,34.27,1785100946496.512
0.511,-0.824,-0.541,48.28,-42.18,36.65,1785100946510.1462
0.522,-0.825,-0.582,55.7,-43.06,38.64,1785100946516.0461
0.53,-0.816,-0.617,59.05,-43.52,40.56,1785100946526.3071
0.523,-0.822,-0.655,58.41,-43.21,41.57,1785100946537.065
0.496,-0.838,-0.681,52.46,-42.57,40.86,1785100946550.33
0.47,-0.855,-0.702,41.44,-41.69,39.16,1785100946556.313
0.454,-0.887,-0.705,28.02,-39.86,36.84,1785100946566.7551
0.422,-0.922,-0.642,14.44,-36.99,31.89,1785100946580.09
0.374,-0.955,-0.58,1.56,-38.3,28.26,1785100946585.9421
0.371,-0.988,-0.512,-5.58,-40.96,30.18,1785100946596.2988
0.348,-0.981,-0.434,-3.27,-42.42,29.91,1785100946606.894
0.326,-0.957,-0.396,5.68,-47.0,30.67,1785100946620.195
0.327,-0.95,-0.41,18.28,-51.61,32.99,1785100946626.3271
0.328,-0.94,-0.475,30.92,-53.8,34.91,1785100946636.5308
0.331,-0.939,-0.532,42.3,-54.45,37.35,1785100946649.7112
0.316,-0.926,-0.551,49.29,-56.18,40.35,1785100946655.669
0.304,-0.906,-0.527,53.83,-58.81,45.96,1785100946666.2212
0.289,-0.908,-0.488,61.07,-58.44,49.1,1785100946676.732
0.24,-0.931,-0.498,68.12,-57.5,47.82,1785100946690.076
0.192,-0.966,-0.532,68.51,-58.63,47.36,1785100946696.226
0.164,-0.977,-0.567,58.9,-58.63,45.87,1785100946706.51
0.145,-0.991,-0.618,40.59,-57.62,42.91,1785100946719.772
0.14,-1.004,-0.631,17.06,-56.52,39.86,1785100946725.8242
0.14,-1.008,-0.597,-4.03,-54.41,36.26,1785100946736.258
0.14,-1.008,-0.597,-16.94,-51.94,33.39,1785100946746.798
0.127,-0.994,-0.561,-21.82,-50.78,34.06,1785100946760.092
0.13,-1.004,-0.556,-21.94,-50.02,34.55,1785100946765.981
0.147,-1.014,-0.55,-15.96,-47.46,34.3,1785100946776.5398
0.157,-0.986,-0.538,-4.52,-43.98,32.35,1785100946787.2278
0.16,-1.016,-0.538,-4.52,-43.98,32.35,1785100946800.446
0.134,-1.035,-0.555,1.89,-42.85,27.38,1785100946806.2039
0.105,-1.029,-0.536,0.61,-43.12,23.59,1785100946816.473
0.085,-1.036,-0.512,-5.22,-43.92,19.93,1785100946827.205
0.073,-1.034,-0.497,-13.61,-43.67,16.57,1785100946840.333
0.087,-0.999,-0.502,-19.47,-42.79,16.63,1785100946846.24
0.113,-0.975,-0.515,-19.71,-41.38,18.65,1785100946856.7568
0.12,-0.96,-0.548,-16.45,-39.22,19.38,1785100946869.972
0.12,-0.963,-0.535,-12.57,-36.62,20.87,1785100946876.124
0.116,-0.975,-0.511,-8.3,-35.16,19.93,1785100946886.377
0.109,-0.967,-0.501,-4.21,-33.85,17.58,1785100946896.961
0.11,-0.963,-0.489,1.46,-31.4,17.52,1785100946910.076
0.105,-0.977,-0.482,10.5,-28.87,18.52,1785100946915.761
0.099,-1.016,-0.493,20.45,-26.67,19.41,1785100946926.481
0.08,-1.037,-0.512,24.14,-25.51,18.56,1785100946941.994
0.066,-1.01,-0.525,20.42,-24.54,17.7,1785100946945.502
0.069,-1.017,-0.542,15.53,-21.12,17.76,1785100946956.128
0.071,-1.027,-0.548,8.39,-17.12,15.66,1785100946966.8857
0.064,-1.013,-0.522,0.52,-12.42,12.39,1785100946980.221
0.066,-0.985,-0.49,-3.08,-7.78,10.32,1785100946985.6611
0.07,-0.998,-0.478,-2.56,-3.45,8.48,1785100946995.828
0.067,-1.004,-0.469,-3.23,0.27,4.88,1785100947006.3801
0.055,-1.002,-0.47,-1.83,3.39,2.99,1785100947016.744
0.032,-1.038,-0.47,2.08,5.65,3.6,1785100947030.059
0.002,-1.039,-0.455,3.33,6.2,3.6,1785100947035.768
-0.017,-1.011,-0.44,6.23,6.65,3.63,1785100947045.6838
-0.028,-1.014,-0.441,13.0,7.9,2.69,1785100947056.1863
-0.035,-1.014,-0.447,16.02,8.85,0.52,1785100947066.664
-0.042,-1.01,-0.44,14.34,9.7,-0.89,1785100947077.091
-0.05,-0.994,-0.431,11.2,10.71,-1.74,1785100947090.3699
-0.059,-0.982,-0.413,7.63,11.41,-2.59,1785100947096.446
-0.071,-0.971,-0.385,0.73,10.83,-4.33,1785100947106.343
-0.08,-0.976,-0.377,-8.15,9.98,-6.9,1785100947116.733
-0.103,-0.983,-0.372,-15.23,9.49,-9.95,1785100947129.974
-0.128,-0.972,-0.347,-17.21,9.34,-11.87,1785100947135.8872
-0.137,-0.98,-0.303,-12.82,9.0,-13.52,1785100947146.15
-0.145,-1.004,-0.284,-8.58,7.57,-17.85,1785100947156.575
-0.174,-0.988,-0.291,-8.0,6.1,-22.55,1785100947167.03
-0.196,-0.952,-0.301,-7.39,4.67,-23.19,1785100947180.276
-0.193,-0.929,-0.317,-5.22,2.87,-22.83,1785100947186.0637
-0.175,-0.94,-0.348,-1.71,2.08,-24.14,1785100947196.2222
-0.171,-0.946,-0.345,-0.67,1.92,-25.48,1785100947206.698
-0.183,-0.937,-0.313,-0.7,1.01,-25.42,1785100947219.9612
-0.195,-0.898,-0.252,3.63,0.21,-23.8,1785100947225.785
-0.18,-0.855,-0.223,13.21,-1.59,-20.08,1785100947235.942
-0.157,-0.826,-0.207,24.66,-4.18,-16.6,1785100947246.48
-0.133,-0.793,-0.247,32.29,-8.7,-14.89,1785100947257.104
-0.106,-0.793,-0.276,33.54,-11.17,-13.92,1785100947270.313
-0.1,-0.792,-0.302,29.3,-13.4,-12.76,1785100947276.5078
-0.101,-0.808,-0.316,23.01,-13.92,-12.21,1785100947286.8271
-0.112,-0.805,-0.312,14.65,-15.2,-12.39,1785100947300.037
-0.1,-0.822,-0.279,6.1,-16.69,-11.17,1785100947305.956
-0.096,-0.841,-0.248,0.52,-17.0,-10.19,1785100947316.293
-0.09,-0.839,-0.261,-1.25,-16.42,-8.55,1785100947326.7578
-0.068,-0.783,-0.288,-4.58,-17.12,-5.55,1785100947340.1821
-0.033,-0.759,-0.317,-6.96,-17.21,-2.04,1785100947345.8381
-0.018,-0.762,-0.341,-5.31,-16.02,-0.46,1785100947355.9338
-0.016,-0.787,-0.328,-4.67,-15.41,0.95,1785100947366.463
-0.026,-0.812,-0.31,-6.44,-15.05,2.14,1785100947376.9001
-0.016,-0.83,-0.274,-7.02,-13.43,4.73,1785100947390.2249
-0.007,-0.833,-0.325,-3.63,-10.83,5.86,1785100947396.113
-0.015,-0.807,-0.368,-4.18,-9.49,7.14,1785100947405.89
-0.004,-0.799,-0.372,-9.8,-8.64,8.45,1785100947416.348
0.035,-0.858,-0.394,-13.03,-5.25,9.03,1785100947426.8743
0.045,-0.938,-0.432,-10.38,-0.24,6.65,1785100947440.175
0.02,-0.965,-0.465,-6.35,3.45,4.06,1785100947445.8262
-0.001,-0.977,-0.471,-4.55,4.91,4.33,1785100947455.877
-0.028,-0.978,-0.453,-5.4,5.62,6.47,1785100947466.218
-0.042,-0.967,-0.389,-7.23,6.41,11.11,1785100947476.563
-0.033,-0.964,-0.347,-3.02,7.51,15.08,1785100947489.9958
-0.037,-0.991,-0.326,5.43,8.27,14.53,1785100947495.527
-0.045,-1.004,-0.316,9.31,6.9,10.86,1785100947505.9001
-0.048,-1.025,-0.298,7.9,4.33,6.96,1785100947516.4978
-0.06,-1.029,-0.293,5.07,1.4,3.08,1785100947526.6829
-0.058,-1.033,-0.301,1.31,-1.25,-0.76,1785100947537.108
-0.057,-1.039,-0.33,-3.48,-3.33,-5.49,1785100947550.138
-0.059,-1.052,-0.354,-6.44,-4.55,-9.34,1785100947556.0188
-0.063,-1.041,-0.372,-4.79,-4.27,-11.32,1785100947566.0952
-0.049,-1.032,-0.37,-0.58,-3.27,-12.6,1785100947576.299
-0.042,-1.023,-0.377,4.43,-1.37,-15.26,1785100947586.813
-0.047,-1.014,-0.383,8.94,0.85,-17.64,1785100947600.2131
-0.06,-0.986,-0.383,11.41,2.14,-18.43,1785100947606.164
-0.047,-0.963,-0.381,13.67,3.45,-17.55,1785100947616.348
-0.052,-0.958,-0.361,15.63,3.54,-18.22,1785100947626.914
-0.082,-0.937,-0.365,15.66,2.75,-19.41,1785100947640.1938
-0.053,-0.951,-0.373,15.84,2.69,-19.01,1785100947646.606
-0.045,-0.976,-0.351,17.76,1.31,-19.32,1785100947656.315
-0.037,-0.976,-0.367,21.12,0.37,-18.19,1785100947666.903
-0.02,-0.953,-0.361,24.08,1.8,-15.26,1785100947680.037
0.008,-0.878,-0.347,24.51,2.53,-13.58,1785100947686.052
0.004,-0.878,-0.339,25.85,1.95,-11.23,1785100947696.096
-0.004,-0.879,-0.318,21.55,0.27,-11.75,1785100947706.743
-0.007,-0.891,-0.294,18.04,-1.59,-11.23,1785100947720.1282
-0.011,-0.902,-0.299,15.53,-3.97,-10.5,1785100947726.1472
0.001,-0.906,-0.332,9.4,-6.47,-10.44,1785100947736.247
0.027,-0.923,-0.335,1.46,-6.96,-9.4,1785100947746.656
0.042,-0.925,-0.339,-2.5,-5.34,-8.3,1785100947757.022
0.032,-0.914,-0.373,-3.11,-3.85,-7.26,1785100947770.262
0.068,-0.854,-0.363,-12.05,-4.91,-5.62,1785100947776.133
0.075,-0.875,-0.37,-13.46,-2.99,-1.31,1785100947786.073
0.053,-0.891,-0.361,-14.01,-2.01,-0.64,1785100947796.614
0.053,-0.908,-0.318,-20.14,-2.23,-1.1,1785100947807.0898
0.04,-0.889,-0.307,-27.1,-1.86,-1.13,1785100947820.2932
0.062,-0.849,-0.304,-32.35,-2.11,1.22,1785100947826.556
0.078,-0.88,-0.312,-34.12,-3.2,2.23,1785100947836.228
0.052,-0.907,-0.297,-33.94,-3.69,2.38,1785100947846.7131
0.036,-0.917,-0.253,-28.57,-3.66,5.43,1785100947860.0562
0.042,-0.939,-0.277,-17.43,-3.11,8.15,1785100947865.809
0.027,-0.957,-0.336,-8.48,-2.44,8.06,1785100947875.844
0.016,-0.951,-0.374,-6.81,-2.38,7.93,1785100947886.467
0.016,-0.977,-0.374,-8.88,-3.11,7.66,1785100947896.595
0.006,-1.017,-0.365,-11.9,-4.49,6.35,1785100947907.0332
-0.006,-1.028,-0.364,-14.77,-5.31,5.4,1785100947920.307
-0.019,-1.017,-0.34,-17.06,-6.01,4.85,1785100947926.1748
-0.036,-0.997,-0.311,-18.86,-7.45,4.39,1785100947935.9722
-0.07,-0.953,-0.3,-22.31,-9.19,3.6,1785100947946.767
-0.053,-0.899,-0.34,-28.63,-9.98,2.78,1785100947959.999
-0.02,-0.933,-0.352,-29.45,-9.31,-0.98,1785100947965.7249
-0.027,-0.989,-0.37,-24.29,-8.73,-8.73,1785100947975.89
-0.044,-1.007,-0.392,-18.43,-7.23,-13.67,1785100947986.455
-0.05,-1.002,-0.404,-14.04,-5.55,-14.01,1785100947996.9941
-0.056,-0.973,-0.413,-10.07,-3.6,-13.31,1785100948010.344
-0.059,-0.941,-0.42,-4.73,-1.25,-11.72,1785100948016.15
-0.059,-0.941,-0.42,1.46,0.7,-10.47,1785100948026.289
-0.064,-0.915,-0.409,7.02,1.59,-10.01,1785100948036.72
-0.055,-0.901,-0.394,10.35,1.13,-11.41,1785100948049.966
-0.039,-0.913,-0.391,10.77,0.79,-13.79,1785100948055.907
-0.035,-0.919,-0.387,11.23,-0.34,-14.19,1785100948066.1208
-0.051,-0.89,-0.381,11.23,-0.34,-14.19,1785100948076.731
-0.045,-0.897,-0.363,15.47,-0.73,-13.09,1785100948089.975
-0.033,-0.907,-0.353,20.42,-0.92,-13.7,1785100948095.905
-0.024,-0.928,-0.372,24.05,-1.22,-14.8,1785100948106.2131
-0.024,-0.917,-0.382,23.93,-0.95,-14.68,1785100948116.729
-0.007,-0.893,-0.397,21.85,-0.79,-12.6,1785100948129.9883
0.006,-0.886,-0.403,20.45,-0.18,-10.9,1785100948135.911
0.009,-0.88,-0.388,17.94,-0.55,-8.76,1785100948146.08
0.024,-0.893,-0.365,13.76,-1.83,-5.95,1785100948156.569
0.027,-0.882,-0.378,12.88,-1.89,-4.12,1785100948167.061
0.032,-0.893,-0.355,12.42,-1.65,-2.17,1785100948180.247
0.052,-0.888,-0.341,6.35,-2.69,-1.71,1785100948186.229
0.053,-0.881,-0.344,0.52,-3.45,-1.25,1785100948195.9722
0.048,-0.881,-0.35,-2.26,-4.43,-0.7,1785100948206.297
0.061,-0.88,-0.35,-3.36,-4.91,1.13,1785100948216.754
0.064,-0.895,-0.365,0.24,-3.94,3.6,1785100948230.002
0.062,-0.884,-0.371,3.05,-4.7,6.23,1785100948235.821
0.091,-0.903,-0.35,1.37,-5.77,7.93,1785100948245.7212
0.094,-0.928,-0.372,0.46,-6.35,7.05,1785100948256.0608
0.074,-0.936,-0.384,0.15,-4.88,7.39,1785100948266.482
0.075,-0.944,-0.403,-0.34,-2.62,8.15,1785100948276.9302
0.077,-0.956,-0.418,-1.1,-0.46,8.33,1785100948290.113
0.05,-0.951,-0.418,-5.52,-0.4,8.73,1785100948295.74
0.037,-0.931,-0.429,-15.38,-2.53,10.5,1785100948306.0212
0.042,-0.962,-0.432,-23.87,-2.99,12.02,1785100948316.517
0.036,-0.975,-0.434,-27.71,-2.5,11.29,1785100948327.081
0.025,-0.948,-0.429,-27.28,-2.23,10.71,1785100948340.2341
0.016,-0.924,-0.412,-24.69,-2.87,11.69,1785100948346.039
0.01,-0.92,-0.402,-22.89,-3.91,12.42,1785100948356.519
-0.001,-0.949,-0.398,-19.14,-3.33,11.23,1785100948367.072
-0.013,-0.982,-0.398,-13.49,-3.2,8.18,1785100948380.322
-0.021,-1.006,-0.408,-11.78,-3.94,4.91,1785100948386.1592
-0.033,-1.004,-0.404,-14.31,-4.3,2.32,1785100948396.239
-0.034,-0.986,-0.395,-14.92,-4.12,1.92,1785100948406.678
-0.03,-0.967,-0.403,-9.4,-2.87,2.35,1785100948417.073
-0.026,-0.948,-0.415,-1.74,-0.98,2.53,1785100948430.2988
-0.019,-0.939,-0.419,2.04,0.24,0.4,1785100948436.0918
-0.017,-0.925,-0.417,0.58,0.58,-2.96,1785100948446.053
-0.007,-0.943,-0.444,-0.98,1.5,-6.04,1785100948456.395
-0.02,-0.926,-0.458,-1.53,3.08,-8.51,1785100948466.804
-0.025,-0.885,-0.443,0.4,4.18,-6.87,1785100948479.864
-0.002,-0.911,-0.433,5.19,4.88,-5.8,1785100948485.6929
-0.005,-0.956,-0.415,8.55,4.82,-9.03,1785100948495.533
-0.017,-0.962,-0.392,10.77,4.85,-11.41,1785100948506.294
-0.01,-0.947,-0.37,14.07,5.07,-9.95,1785100948516.737
0.001,-0.939,-0.357,19.26,5.19,-8.12,1785100948530.0479
0.006,-0.944,-0.338,24.66,6.29,-6.59,1785100948535.8323
0.002,-0.91,-0.328,26.15,5.89,-4.88,1785100948545.8271
0.017,-0.879,-0.32,24.81,3.69,-0.37,1785100948556.3772
0.035,-0.885,-0.326,24.02,2.47,3.33,1785100948566.894
0.029,-0.881,-0.334,22.34,1.8,3.27,1785100948580.107
0.025,-0.863,-0.313,15.69,-0.34,3.33,1785100948585.9158
0.044,-0.882,-0.317,9.8,-2.62,3.14,1785100948595.957
0.047,-0.898,-0.335,6.26,-3.2,1.43,1785100948606.2961
0.056,-0.909,-0.355,6.84,-2.72,1.22,1785100948616.739
0.057,-0.923,-0.376,11.54,-1.65,1.31,1785100948629.965
0.063,-0.904,-0.401,12.97,-1.43,2.04,1785100948635.7761
0.073,-0.919,-0.429,11.44,-0.85,3.23,1785100948645.897
0.061,-0.946,-0.412,7.05,-0.76,3.69,1785100948656.031
0.059,-0.965,-0.386,-2.53,-1.71,3.42,1785100948666.6438
0.049,-0.973,-0.358,-15.23,-3.02,2.9,1785100948680.0059
0.05,-0.971,-0.336,-23.29,-2.56,2.56,1785100948685.782
0.054,-0.958,-0.334,-17.82,0.06,2.87,1785100948695.916
0.053,-0.929,-0.34,-3.36,2.01,4.61,1785100948706.265
0.063,-0.918,-0.342,7.35,2.11,6.04,1785100948716.533
0.078,-0.955,-0.35,8.33,1.37,3.51,1785100948727.0342
0.076,-1.006,-0.378,3.57,1.65,-2.17,1785100948740.284
0.058,-1.033,-0.412,-1.31,2.53,-5.65,1785100948746.045
0.042,-1.043,-0.428,-6.96,2.26,-5.37,1785100948756.0442
0.029,-1.027,-0.414,-14.01,0.89,-3.63,1785100948766.466
0.008,-0.975,-0.385,-18.31,-0.24,0.06,1785100948776.674
0.005,-0.939,-0.365,-15.87,-0.55,4.94,1785100948789.909
-0.007,-0.913,-0.346,-9.34,-1.01,7.08,1785100948796.233
-0.016,-0.884,-0.369,-3.78,-2.14,5.77,1785100948805.967
-0.005,-0.893,-0.388,-1.46,-2.72,2.5,1785100948816.192
-0.0,-0.936,-0.398,-1.89,-3.48,-2.32,1785100948826.7012
0.003,-0.976,-0.406,-4.97,-3.78,-6.23,1785100948837.013
0.001,-1.001,-0.411,-7.66,-3.57,-8.76,1785100948850.324
-0.009,-0.999,-0.417,-8.24,-2.69,-10.07,1785100948856.191
-0.017,-0.96,-0.433,-5.8,-0.85,-8.88,1785100948866.0732
-0.016,-0.915,-0.469,-3.57,1.8,-5.46,1785100948876.5461
-0.021,-0.841,-0.467,-5.8,3.6,-1.71,1785100948886.825
-0.01,-0.807,-0.438,-10.1,3.94,1.5,1785100948900.1082
-0.0,-0.834,-0.42,-14.56,4.06,-0.21,1785100948905.926
-0.0,-0.905,-0.397,-16.97,4.27,-5.43,1785100948916.011
-0.025,-0.955,-0.392,-15.81,4.82,-11.08,1785100948926.6382
-0.038,-0.96,-0.377,-10.47,5.46,-12.51,1785100948937.116
-0.035,-0.944,-0.356,-0.92,5.49,-10.56,1785100948950.342
-0.024,-0.921,-0.363,10.22,5.71,-7.29,1785100948956.4722
-0.014,-0.883,-0.379,18.13,6.26,-4.33,1785100948966.315
-0.008,-0.851,-0.388,21.61,6.87,-2.17,1785100948976.83
0.007,-0.862,-0.385,22.25,6.9,-1.71,1785100948990.097
0.018,-0.902,-0.387,20.11,6.65,-4.09,1785100948995.865
0.008,-0.909,-0.382,15.44,6.26,-6.53,1785100949005.991
0.006,-0.911,-0.372,11.63,4.85,-5.37,1785100949016.4312
-0.004,-0.921,-0.364,11.05,3.57,-3.11,1785100949027.0269
-0.007,-0.893,-0.354,10.19,2.38,-0.31,1785100949040.274
0.01,-0.874,-0.328,8.0,1.01,2.14,1785100949046.05
0.016,-0.855,-0.321,3.6,-1.46,1.59,1785100949055.9038
0.023,-0.879,-0.315,-1.59,-4.36,0.27,1785100949066.3162
0.021,-0.91,-0.297,-7.87,-7.42,-2.2,1785100949076.731
0.031,-0.939,-0.306,-11.41,-9.0,-3.45,1785100949087.1028
0.031,-0.944,-0.343,-10.86,-9.74,-3.14,1785100949100.347
0.041,-0.936,-0.387,-5.83,-8.94,0.27,1785100949106.125
0.038,-0.915,-0.448,4.09,-6.5,4.64,1785100949116.101
0.048,-0.858,-0.442,10.68,-4.12,11.02,1785100949126.82
0.084,-0.853,-0.416,13.58,-2.11,15.35,1785100949140.1301
0.077,-0.902,-0.388,10.86,-1.62,11.14,1785100949145.678
0.061,-0.961,-0.35,-1.37,-3.48,3.17,1785100949155.7188
0.051,-1.022,-0.336,-12.02,-3.88,-2.14,1785100949166.51
0.048,-1.06,-0.33,-11.44,-2.2,-1.77,1785100949176.79
0.045,-1.027,-0.345,-2.23,-0.37,1.86,1785100949190.1929
0.033,-0.92,-0.357,5.92,0.4,7.48,1785100949195.801
0.053,-0.851,-0.359,9.52,0.15,12.97,1785100949205.972
0.077,-0.877,-0.376,8.12,0.21,12.02,1785100949216.4229
0.082,-0.965,-0.408,4.12,1.62,4.97,1785100949226.8547
0.062,-1.02,-0.438,-2.81,2.66,-1.59,1785100949240.0178
0.038,-0.967,-0.447,-12.39,1.46,-2.32,1785100949245.7239
0.045,-0.954,-0.443,-16.48,0.27,1.28,1785100949255.906
0.047,-0.984,-0.452,-15.72,0.18,3.2,1785100949266.37
0.038,-1.008,-0.437,-14.04,0.61,3.48,1785100949276.819
0.018,-0.992,-0.422,-9.92,0.92,2.66,1785100949290.1729
0.017,-0.936,-0.418,-4.39,1.77,2.9,1785100949295.7493
0.025,-0.929,-0.419,0.82,2.93,2.23,1785100949305.781
0.025,-0.929,-0.419,0.43,3.23,-0.43,1785100949316.067
0.024,-0.941,-0.408,-3.69,2.78,-3.08,1785100949326.508
0.018,-0.971,-0.391,-7.48,1.86,-5.58,1785100949336.859
0.005,-0.998,-0.377,-8.82,1.13,-7.17,1785100949350.198
-0.001,-1.003,-0.381,-7.26,1.71,-7.72,1785100949355.7188
-0.003,-0.981,-0.398,-7.26,1.71,-7.72,1785100949365.818
0.006,-0.947,-0.418,-4.12,2.99,-6.78,1785100949376.289
0.016,-0.944,-0.454,-2.56,4.27,-5.86,1785100949386.55
0.012,-0.926,-0.431,-4.18,4.58,-4.88,1785100949397.001
0.021,-0.905,-0.403,-4.27,4.21,-4.64,1785100949410.304
0.013,-0.879,-0.411,-4.06,3.81,-6.81,1785100949415.826
0.004,-0.875,-0.415,-7.42,3.72,-7.75,1785100949425.866
0.005,-0.883,-0.389,-13.58,3.11,-7.63,1785100949436.159
-0.001,-0.906,-0.372,-13.49,2.96,-8.3,1785100949446.797
-0.005,-0.918,-0.368,-7.78,3.3,-9.4,1785100949460.0662
-0.011,-0.906,-0.378,1.31,4.12,-9.03,1785100949465.6838
-0.004,-0.885,-0.388,9.06,3.97,-7.39,1785100949475.768
0.003,-0.892,-0.401,13.43,3.33,-6.78,1785100949486.2139
0.003,-0.916,-0.392,15.63,2.93,-6.41,1785100949496.47
0.005,-0.932,-0.371,17.4,2.69,-5.43,1785100949507.1318
0.014,-0.918,-0.353,17.0,1.92,-4.18,1785100949520.411
0.018,-0.906,-0.342,13.82,0.15,-3.48,1785100949526.316
0.018,-0.909,-0.322,8.03,-2.35,-3.36,1785100949536.211
0.026,-0.926,-0.301,1.8,-4.91,-3.88,1785100949546.616
0.035,-0.965,-0.287,-0.27,-5.71,-4.88,1785100949556.906
0.036,-0.962,-0.289,0.89,-5.22,-5.8,1785100949570.2952
0.043,-0.933,-0.308,3.75,-4.67,-4.91,1785100949576.09
0.047,-0.908,-0.332,8.39,-4.3,-3.78,1785100949585.8938
0.057,-0.906,-0.351,11.75,-5.22,-2.62,1785100949596.4102
0.06,-0.92,-0.365,11.41,-6.5,-1.95,1785100949607.0972
0.045,-0.923,-0.368,6.1,-8.15,-2.17,1785100949627.2068
0.043,-0.897,-0.348,-7.11,-11.84,-2.44,1785100949628.089
0.082,-0.946,-0.33,-17.27,-14.28,-2.84,1785100949635.742
0.083,-1.027,-0.367,-14.62,-13.03,-7.23,1785100949646.317
0.044,-0.995,-0.409,-4.67,-9.8,-8.45,1785100949656.7522
0.041,-0.87,-0.408,6.84,-7.87,-1.25,1785100949670.2341
0.085,-0.8,-0.394,15.56,-7.08,7.14,1785100949675.6743
0.107,-0.861,-0.392,16.69,-5.95,5.65,1785100949686.103
0.083,-0.928,-0.38,8.33,-5.04,-3.72,1785100949696.469
0.067,-0.957,-0.39,0.79,-3.66,-8.55,1785100949706.928
0.068,-0.961,-0.423,-0.21,-2.2,-7.05,1785100949720.021
0.078,-0.93,-0.454,-2.11,-2.23,-3.3,1785100949725.856
0.085,-0.918,-0.464,-7.78,-3.39,-0.24,1785100949735.7349
0.083,-0.942,-0.459,-13.18,-3.54,1.5,1785100949746.2358
0.073,-0.96,-0.454,-14.86,-3.11,2.08,1785100949756.768
0.063,-0.924,-0.441,-13.61,-2.47,2.96,1785100949769.9468
0.061,-0.889,-0.433,-9.49,-1.5,5.07,1785100949775.788
0.056,-0.882,-0.439,-5.31,-0.12,6.04,1785100949785.6938
0.046,-0.887,-0.435,-4.06,0.89,5.22,1785100949796.2617
0.05,-0.924,-0.434,-4.09,1.04,3.88,1785100949806.5159
0.048,-0.963,-0.446,-6.13,0.92,1.04,1785100949816.9082
0.037,-0.984,-0.442,-10.1,1.13,-0.95,1785100950000.79
0.029,-0.966,-0.436,-11.78,1.5,-0.7,1785100950001.044
0.031,-0.939,-0.443,-10.44,2.56,1.74,1785100950001.397
0.039,-0.926,-0.438,-11.02,3.17,3.14,1785100950001.719
0.032,-0.883,-0.421,-15.2,3.02,3.42,1785100950002.126
0.038,-0.898,-0.392,-15.93,3.48,3.88,1785100950002.5542
0.026,-0.925,-0.385,-12.12,4.27,1.22,1785100950002.9321
0.018,-0.94,-0.379,-6.78,5.4,-0.79,1785100950003.337
0.013,-0.938,-0.375,-1.25,5.62,-0.79,1785100950003.5378
0.018,-0.927,-0.378,3.75,5.62,0.85,1785100950003.7383
0.028,-0.919,-0.386,7.39,5.68,1.98,1785100950003.937
0.027,-0.907,-0.411,9.31,5.98,1.65,1785100950004.1357
0.021,-0.879,-0.422,8.64,6.26,2.47,1785100950004.3362
0.037,-0.861,-0.405,6.44,6.2,4.58,1785100950004.538
0.039,-0.887,-0.404,7.05,6.68,4.03,1785100950004.7412
0.032,-0.911,-0.403,8.7,7.78,1.95,1785100950014.751
0.025,-0.911,-0.402,10.32,8.51,1.25,1785100950015.229
0.022,-0.893,-0.408,12.36,9.13,3.05,1785100950015.7812
0.031,-0.869,-0.406,12.18,9.58,5.52,1785100950016.387
0.032,-0.878,-0.4,11.84,9.64,5.8,1785100950017.012
0.029,-0.9,-0.386,12.15,9.61,4.82,1785100950026.855
0.028,-0.918,-0.372,12.39,9.09,3.81,1785100950040.0432
0.032,-0.931,-0.355,11.96,8.06,3.88,1785100950045.759
0.031,-0.935,-0.329,11.23,6.44,4.76,1785100950056.139
0.036,-0.94,-0.307,8.76,4.43,5.28,1785100950066.612
0.043,-0.958,-0.294,4.91,2.26,4.39,1785100950076.7
0.042,-0.953,-0.307,0.98,0.73,3.33,1785100950089.941
0.049,-0.945,-0.329,-1.16,-0.85,4.06,1785100950095.4011
0.044,-0.923,-0.365,-1.19,-2.56,6.04,1785100950105.66
0.051,-0.894,-0.406,1.92,-2.53,10.35,1785100950116.09
0.056,-0.874,-0.426,8.64,-0.43,14.25,1785100950126.952
0.064,-0.886,-0.391,12.63,0.55,15.2,1785100950139.91
0.078,-0.936,-0.353,9.52,-0.4,11.29,1785100950145.587
0.073,-1.005,-0.348,2.47,-0.55,3.94,1785100950155.763
0.042,-1.043,-0.36,-3.88,0.03,-1.22,1785100950166.2058
0.024,-0.997,-0.354,-8.18,0.03,0.46,1785100950176.5562
0.029,-0.934,-0.353,-7.66,0.21,7.08,1785100950190.0908
0.033,-0.856,-0.322,-7.57,-0.4,13.15,1785100950195.32
0.047,-0.867,-0.31,-5.68,-1.28,14.77,1785100950205.966
0.046,-0.931,-0.346,-3.11,-0.58,10.16,1785100950216.0798
0.047,-0.977,-0.37,-3.17,0.89,4.61,1785100950226.473
0.045,-1.006,-0.388,-1.92,2.41,1.77,1785100950237.1143
0.047,-1.021,-0.422,-0.79,3.02,0.89,1785100950250.414
0.034,-0.993,-0.467,-3.75,2.69,0.76,1785100950256.0178
0.013,-0.935,-0.478,-9.83,2.38,4.24,1785100950265.966
0.013,-0.902,-0.458,-14.83,1.8,9.13,1785100950276.263
0.017,-0.888,-0.445,-16.88,2.56,10.5,1785100950286.877
0.018,-0.906,-0.418,-14.98,4.0,9.31,1785100950301.3608
0.01,-0.934,-0.401,-12.18,4.3,6.23,1785100950305.722
-0.004,-0.937,-0.383,-10.41,3.72,3.72,1785100950316.042
-0.008,-0.944,-0.368,-7.84,2.59,2.62,1785100950326.7131
-0.009,-0.965,-0.359,-5.07,1.22,1.59,1785100950336.9631
-0.013,-0.979,-0.356,-4.33,-0.43,-0.12,1785100950350.3362
-0.012,-0.978,-0.377,-4.58,-1.59,-1.71,1785100950356.143
-0.007,-0.972,-0.401,-5.77,-2.26,-2.5,1785100950366.0369
-0.004,-0.936,-0.401,-8.91,-2.87,-1.74,1785100950376.2651
0.016,-0.929,-0.398,-10.04,-3.14,-0.18,1785100950386.7068
0.015,-0.93,-0.41,-8.09,-2.23,-0.52,1785100950400.033
0.014,-0.925,-0.43,-3.72,-0.4,-0.82,1785100950405.434
0.021,-0.932,-0.451,-0.37,0.92,-1.77,1785100950415.4802
0.019,-0.915,-0.459,-2.08,1.13,-3.54,1785100950426.2122
0.02,-0.888,-0.451,-6.59,0.82,-3.66,1785100950436.563
0.032,-0.895,-0.438,-10.28,0.82,-3.14,1785100950447.1208
0.032,-0.92,-0.427,-12.7,1.34,-4.52,1785100950460.479
0.028,-0.947,-0.412,-12.6,1.83,-6.5,1785100950466.007
0.013,-0.942,-0.412,-9.61,2.08,-6.84,1785100950475.842
0.005,-0.913,-0.411,-4.7,2.72,-3.75,1785100950486.5469
0.005,-0.864,-0.409,-1.53,2.08,0.7,1785100950496.772
0.016,-0.872,-0.399,0.21,0.82,3.85,1785100950510.092
0.009,-0.881,-0.39,-0.18,-0.95,3.75,1785100950515.397
0.007,-0.887,-0.36,-0.43,-2.04,4.12,1785100950525.604
0.009,-0.881,-0.339,-1.01,-3.75,3.97,1785100950535.975
0.021,-0.903,-0.322,-2.41,-5.83,1.98,1785100950546.612
0.025,-0.918,-0.317,-4.7,-8.12,-1.04,1785100950556.983
0.023,-0.947,-0.342,-2.35,-8.48,-3.51,1785100950570.2468
0.004,-0.944,-0.392,2.53,-8.76,-4.58,1785100950576.047
0.01,-0.925,-0.435,5.62,-8.91,-1.65,1785100950586.098
0.023,-0.907,-0.469,7.45,-8.27,1.37,1785100950596.0479
0.023,-0.907,-0.469,7.66,-6.35,2.99,1785100950607.2168
0.027,-0.875,-0.479,5.95,-4.91,3.3,1785100950617.117
0.033,-0.874,-0.464,1.86,-4.39,1.07,1785100950630.2551
0.036,-0.921,-0.44,-2.87,-3.97,-2.81,1785100950635.4612
0.022,-0.963,-0.427,-2.87,-3.97,-2.81,1785100950645.9573
0.013,-0.97,-0.41,-5.77,-3.36,-4.24,1785100950661.5957
0.013,-0.956,-0.408,-4.3,-2.11,-3.2,1785100950666.613
0.012,-0.912,-0.403,0.89,-0.85,-0.37,1785100950677.101
0.02,-0.867,-0.386,5.52,-0.98,3.33,1785100950690.1099
0.036,-0.87,-0.379,7.54,-1.74,3.91,1785100950696.1438
0.031,-0.893,-0.401,7.11,-2.17,1.59,1785100950706.746
0.031,-0.907,-0.414,4.7,-1.95,-0.34,1785100950716.445
0.036,-0.921,-0.42,2.56,-1.34,-1.62,1785100950726.6182
0.041,-0.955,-0.423,2.26,0.52,-1.74,1785100950736.906
0.036,-0.981,-0.436,3.08,2.96,-1.86,1785100950750.381
0.023,-0.961,-0.45,2.93,4.61,-1.56,1785100950756.174
0.015,-0.907,-0.47,1.62,5.25,1.4,1785100950766.1519
0.018,-0.864,-0.485,-1.4,5.4,4.97,1785100950776.4712
0.021,-0.848,-0.478,-6.68,5.65,6.59,1785100950786.8328
0.019,-0.871,-0.461,-10.93,5.83,6.44,1785100950800.019
0.008,-0.889,-0.44,-12.21,6.35,5.04,1785100950805.791
0.004,-0.928,-0.428,-9.46,6.96,3.14,1785100950815.708
-0.003,-0.949,-0.413,-6.41,6.99,0.55,1785100950826.378
-0.007,-0.95,-0.417,-3.57,6.99,0.34,1785100950844.851
-0.013,-0.945,-0.422,-1.34,7.26,2.04,1785100950846.689
-0.014,-0.92,-0.42,-0.98,6.96,4.09,1785100950860.143
-0.01,-0.899,-0.418,-1.34,6.59,5.43,1785100950865.529
-0.008,-0.902,-0.42,-1.34,6.65,5.43,1785100950875.7288
-0.011,-0.91,-0.411,-0.76,7.32,4.7,1785100950886.402
-0.004,-0.924,-0.395,0.85,7.93,3.69,1785100950897.346
0.001,-0.942,-0.402,3.3,8.03,1.31,1785100950909.079
-0.006,-0.94,-0.411,4.24,8.18,0.03,1785100950920.1912
-0.005,-0.936,-0.413,4.52,7.9,0.49,1785100950925.656
-0.0,-0.929,-0.41,3.81,7.14,0.27,1785100950936.06
-0.005,-0.909,-0.396,2.84,6.47,-0.4,1785100950946.318
-0.006,-0.894,-0.388,1.95,5.46,-0.4,1785100950956.9358
-0.009,-0.898,-0.395,1.25,4.03,-0.34,1785100950967.425
-0.008,-0.906,-0.398,1.13,2.75,-0.27,1785100950980.593
