ax,ay,az,gx,gy,gz,timestamp_ms
0.124,-0.988,-0.298,18.01,1.98,0.15,1785101263442.785
0.127,-0.995,-0.304,18.37,2.47,-0.34,1785101263497.746
0.126,-1.001,-0.31,17.12,3.23,-1.34,1785101263498.014
0.121,-0.996,-0.33,15.05,4.15,-1.77,1785101263498.2422
0.11,-0.962,-0.355,11.57,4.39,-0.85,1785101263498.4807
0.114,-0.947,-0.367,7.6,3.78,1.37,1785101263498.7148
0.116,-0.952,-0.377,3.17,2.35,2.59,1785101263498.944
0.109,-0.954,-0.384,-2.81,1.1,2.47,1785101263499.176
0.097,-0.949,-0.374,-8.3,0.27,2.04,1785101263499.4077
0.092,-0.948,-0.363,-9.89,-0.18,2.35,1785101263499.6428
0.089,-0.946,-0.364,-8.48,0.03,2.44,1785101263499.859
0.089,-0.946,-0.364,-7.87,0.12,2.23,1785101263500.088
0.079,-0.918,-0.353,-5.95,0.46,2.62,1785101263500.314
0.079,-0.92,-0.335,-4.58,0.43,1.31,1785101263500.53
0.074,-0.93,-0.328,-3.2,0.55,0.31,1785101263500.755
0.069,-0.925,-0.325,-1.92,0.15,0.43,1785101263500.98
0.073,-0.939,-0.326,-1.92,0.15,0.43,1785101263501.2212
0.072,-0.942,-0.324,-2.93,0.03,-0.15,1785101263501.445
0.067,-0.935,-0.33,-5.13,-0.21,-0.73,1785101263501.67
0.068,-0.929,-0.33,-5.49,0.06,0.09,1785101263501.898
0.079,-0.94,-0.343,-4.33,0.27,0.79,1785101263502.1162
0.073,-0.919,-0.372,-2.72,-0.06,0.89,1785101263502.347
0.076,-0.927,-0.371,-0.43,0.58,1.92,1785101263502.572
0.071,-0.906,-0.347,-1.86,0.58,1.46,1785101263502.791
0.076,-0.878,-0.321,-6.5,-0.46,1.8,1785101263503.0232
0.08,-0.885,-0.299,-12.54,-2.87,1.16,1785101263503.253
0.065,-0.889,-0.27,-19.23,-5.89,-1.65,1785101263503.478
0.063,-0.923,-0.24,-21.36,-7.69,-3.78,1785101263503.6877
0.075,-0.958,-0.238,-20.51,-9.46,-5.74,1785101263503.899
0.086,-1.007,-0.26,-13.58,-9.77,-7.02,1785101263504.107
0.091,-1.031,-0.309,-2.23,-9.16,-6.35,1785101263504.312
0.104,-0.997,-0.359,9.92,-7.02,-3.39,1785101263504.5178
0.12,-0.929,-0.376,19.9,-4.18,0.76,1785101263504.731
0.137,-0.881,-0.379,25.94,-1.46,3.94,1785101263504.938
0.139,-0.871,-0.384,24.63,-0.43,4.06,1785101263505.148
0.144,-0.883,-0.36,15.32,-0.64,3.02,1785101263505.388
0.149,-0.918,-0.331,5.01,-0.73,0.98,1785101263505.591
0.151,-0.97,-0.318,0.06,0.46,-1.59,1785101263505.8
0.146,-0.997,-0.311,-0.4,1.37,-2.72,1785101263506.01
0.148,-0.991,-0.323,1.43,1.77,-1.19,1785101263506.2349
0.15,-0.963,-0.348,4.0,2.17,1.4,1785101263506.44
0.148,-0.925,-0.352,4.94,2.29,4.7,1785101263506.6611
0.153,-0.907,-0.351,4.03,2.59,7.23,1785101263506.8691
0.162,-0.922,-0.349,2.69,3.23,8.21,1785101263507.073
0.159,-0.956,-0.353,2.72,3.81,7.29,1785101263507.2861
0.15,-0.978,-0.366,2.81,3.6,6.56,1785101263507.5159
0.143,-0.978,-0.373,1.43,2.29,7.51,1785101263507.726
0.14,-0.961,-0.358,-0.67,0.7,9.77,1785101263507.935
0.141,-0.955,-0.35,-2.14,-0.58,10.77,1785101263508.168
0.133,-0.939,-0.345,-4.49,-1.4,10.41,1785101263508.383
0.125,-0.924,-0.331,-7.39,-2.2,9.8,1785101263508.589
0.124,-0.928,-0.314,-9.0,-2.72,8.39,1785101263508.8
0.117,-0.941,-0.308,-9.67,-3.27,6.04,1785101263509.018
0.108,-0.949,-0.291,-10.96,-3.81,4.24,1785101263509.226
0.1,-0.96,-0.283,-11.23,-4.79,3.66,1785101263509.443
0.09,-0.952,-0.281,-11.11,-5.86,3.94,1785101263509.6628
0.089,-0.928,-0.283,-10.93,-7.08,4.88,1785101263509.871
0.092,-0.919,-0.297,-11.14,-8.48,5.4,1785101263510.078
0.092,-0.927,-0.322,-13.52,-9.43,4.61,1785101263510.292
0.085,-0.924,-0.332,-18.22,-9.83,3.54,1785101263510.507
0.08,-0.919,-0.332,-21.42,-9.61,3.2,1785101263510.732
0.074,-0.925,-0.333,-20.66,-8.55,2.66,1785101263510.9492
0.072,-0.935,-0.332,-17.64,-7.14,1.46,1785101263511.154
0.062,-0.947,-0.335,-13.86,-6.1,0.0,1785101263511.3489
0.055,-0.956,-0.347,-10.1,-5.28,-0.82,1785101263511.55
0.053,-0.966,-0.349,-7.35,-4.73,-0.85,1785101263511.7542
0.047,-0.968,-0.351,-5.65,-4.12,-1.22,1785101263511.945
0.054,-0.963,-0.35,-5.8,-3.94,-0.89,1785101263512.1548
0.066,-0.948,-0.343,-5.98,-4.06,-0.21,1785101263512.3542
0.076,-0.956,-0.352,-3.42,-3.54,0.03,1785101263512.554
0.076,-0.959,-0.367,-0.34,-3.57,-0.09,1785101263512.744
0.076,-0.944,-0.367,1.5,-3.63,1.01,1785101263512.9458
0.084,-0.959,-0.368,3.08,-3.94,1.46,1785101263513.148
0.079,-0.972,-0.378,3.08,-4.06,-0.21,1785101263513.34
0.072,-0.962,-0.385,1.98,-4.09,-0.55,1785101263513.536
0.074,-0.956,-0.389,1.01,-3.85,0.24,1785101263513.729
0.074,-0.964,-0.399,0.98,-3.39,-0.4,1785101263513.917
0.077,-0.966,-0.405,-0.31,-3.3,-1.25,1785101263514.113
0.077,-0.966,-0.398,-2.9,-3.6,-1.71,1785101263514.313
0.073,-0.951,-0.395,-4.91,-3.72,-1.43,1785101263514.504
0.074,-0.955,-0.392,-4.82,-3.08,-0.4,1785101263514.697
0.072,-0.949,-0.384,-5.1,-2.96,-0.82,1785101263514.893
0.064,-0.949,-0.368,-4.18,-2.69,-1.5,1785101263515.0972
0.062,-0.957,-0.357,-2.01,-2.56,-1.77,1785101263515.286
0.059,-0.96,-0.359,0.09,-2.35,-2.47,1785101263515.486
0.058,-0.933,-0.355,1.68,-2.14,-1.71,1785101263515.687
0.067,-0.923,-0.349,3.78,-1.86,-0.34,1785101263515.895
0.068,-0.931,-0.354,5.46,-2.14,-0.92,1785101263516.104
0.064,-0.934,-0.353,5.68,-2.75,-1.77,1785101263516.3
0.059,-0.931,-0.36,6.2,-2.99,-1.86,1785101263516.4922
0.056,-0.922,-0.369,6.62,-2.84,-1.89,1785101263516.691
0.058,-0.915,-0.374,5.71,-2.78,-1.8,1785101263516.8992
0.054,-0.901,-0.375,3.6,-2.5,-1.59,1785101263517.088
0.053,-0.885,-0.375,2.01,-1.92,-1.16,1785101263517.275
0.056,-0.888,-0.368,1.8,-1.16,-1.22,1785101263517.464
0.054,-0.898,-0.359,2.17,-0.61,-2.35,1785101263517.656
0.05,-0.893,-0.35,2.04,-0.52,-3.11,1785101263517.8408
0.047,-0.913,-0.342,3.33,-0.21,-3.78,1785101263518.039
0.036,-0.939,-0.339,4.76,0.49,-5.86,1785101263518.238
0.018,-0.946,-0.331,5.04,1.13,-7.75,1785101263518.421
0.015,-0.95,-0.327,5.04,1.46,-8.58,1785101263518.615
0.02,-0.96,-0.326,5.8,1.95,-9.77,1785101263518.808
0.024,-0.952,-0.329,6.68,2.62,-11.11,1785101263518.993
0.028,-0.931,-0.332,7.35,2.9,-11.05,1785101263519.1838
0.032,-0.895,-0.328,8.06,2.9,-9.74,1785101263519.4
0.033,-0.875,-0.335,10.32,3.23,-8.76,1785101263519.5972
0.038,-0.887,-0.343,12.94,4.21,-9.49,1785101263519.786
0.033,-0.907,-0.341,13.09,4.82,-12.57,1785101263519.9841
0.028,-0.924,-0.336,11.66,5.1,-15.81,1785101263520.193
0.026,-0.954,-0.334,10.62,5.86,-18.68,1785101263520.4092
0.026,-0.971,-0.341,10.38,6.71,-21.21,1785101263520.6023
0.028,-0.946,-0.336,9.86,7.23,-21.21,1785101263520.8262
0.045,-0.935,-0.33,11.72,7.54,-19.29,1785101263521.0317
0.056,-0.952,-0.329,15.02,7.78,-19.01,1785101263521.224
0.053,-0.969,-0.331,16.36,8.09,-20.26,1785101263521.4138
0.044,-0.951,-0.34,13.58,7.84,-21.24,1785101263521.601
0.048,-0.896,-0.34,7.97,7.35,-20.17,1785101263521.815
0.075,-0.883,-0.328,4.76,7.66,-17.88,1785101263522.025
0.093,-0.917,-0.331,4.91,8.88,-18.86,1785101263522.233
0.095,-0.939,-0.33,5.01,9.8,-21.24,1785101263522.443
0.109,-0.959,-0.321,5.95,9.4,-21.36,1785101263522.672
0.126,-0.957,-0.318,7.11,8.88,-21.3,1785101263522.863
0.132,-0.923,-0.312,7.6,8.33,-20.84,1785101263523.0488
0.146,-0.913,-0.316,8.73,7.63,-19.35,1785101263523.235
0.162,-0.924,-0.323,9.89,7.08,-18.59,1785101263523.447
0.17,-0.931,-0.333,9.98,7.42,-18.65,1785101263523.646
0.165,-0.925,-0.341,8.06,8.24,-18.1,1785101263523.825
0.165,-0.899,-0.327,4.91,9.34,-16.66,1785101263524.0068
0.18,-0.901,-0.316,3.6,10.13,-15.59,1785101263524.191
0.193,-0.908,-0.31,2.01,10.62,-15.59,1785101263524.3718
0.205,-0.918,-0.298,0.12,11.02,-15.5,1785101263524.558
0.212,-0.932,-0.295,-0.79,11.17,-15.26,1785101263524.742
0.216,-0.941,-0.296,-0.82,11.17,-14.53,1785101263524.929
0.218,-0.944,-0.294,-0.37,11.17,-13.73,1785101263525.107
0.22,-0.943,-0.297,-0.06,11.02,-12.79,1785101263525.291
0.225,-0.946,-0.3,0.55,11.29,-11.69,1785101263525.472
0.222,-0.951,-0.31,1.25,12.45,-10.74,1785101263525.651
0.213,-0.951,-0.316,1.37,14.28,-9.55,1785101263525.834
0.21,-0.945,-0.321,0.46,16.21,-8.03,1785101263526.043
0.21,-0.945,-0.321,-1.22,17.61,-6.13,1785101263526.259
0.218,-0.935,-0.324,-3.14,18.43,-4.18,1785101263526.47
0.238,-0.926,-0.324,-4.79,18.71,-2.56,1785101263526.675
0.251,-0.93,-0.325,-7.69,18.49,-1.8,1785101263526.883
0.248,-0.933,-0.327,-10.5,18.16,-0.98,1785101263527.075
0.243,-0.931,-0.325,-10.5,18.16,-0.98,1785101263527.2852
0.244,-0.934,-0.322,-12.54,17.73,-0.09,1785101263527.509
0.24,-0.938,-0.327,-14.1,17.58,1.01,1785101263527.7031
0.237,-0.945,-0.333,-15.26,17.43,1.86,1785101263527.89
0.233,-0.954,-0.337,-16.54,17.37,1.83,1785101263528.073
0.217,-0.949,-0.345,-18.19,17.7,1.98,1785101263528.259
0.217,-0.946,-0.348,-20.48,18.13,2.75,1785101263528.4578
0.231,-0.953,-0.342,-22.71,18.22,3.42,1785101263528.674
0.229,-0.958,-0.331,-24.02,17.76,3.54,1785101263528.863
0.224,-0.956,-0.324,-23.65,16.66,4.03,1785101263529.039
0.218,-0.952,-0.318,-21.42,15.5,4.61,1785101263529.221
0.219,-0.952,-0.316,-17.82,14.44,5.37,1785101263529.424
0.221,-0.946,-0.319,-14.1,13.34,5.65,1785101263529.598
0.224,-0.939,-0.328,-10.47,12.45,5.95,1785101263529.7742
0.226,-0.93,-0.34,-7.6,12.09,6.35,1785101263529.9521
0.229,-0.919,-0.347,-5.89,11.96,7.02,1785101263530.134
0.231,-0.913,-0.348,-5.52,11.66,7.75,1785101263530.304
0.233,-0.915,-0.344,-6.13,10.83,8.09,1785101263530.484
0.236,-0.917,-0.338,-6.78,9.92,8.33,1785101263530.6711
0.233,-0.924,-0.34,-6.78,9.13,8.3,1785101263530.841
0.231,-0.921,-0.346,-6.87,8.21,8.36,1785101263531.02
0.235,-0.909,-0.352,-7.29,7.17,8.61,1785101263531.198
0.241,-0.909,-0.358,-7.6,6.53,8.73,1785101263531.3699
0.251,-0.913,-0.359,-7.42,6.16,8.24,1785101263531.5662
0.256,-0.919,-0.356,-6.81,5.95,7.72,1785101263531.746
0.251,-0.919,-0.349,-5.74,5.71,7.57,1785101263531.931
0.246,-0.916,-0.34,-3.78,5.04,8.27,1785101263532.105
0.247,-0.919,-0.338,-0.92,4.33,9.06,1785101263532.2727
0.262,-0.923,-0.352,8.79,2.11,11.26,1785101263532.783
0.261,-0.929,-0.357,9.86,1.8,11.51,1785101263532.9531
-0.07,-0.95,-0.773,29.24,11.51,-12.85,1785101263533.163
-0.101,-0.986,-0.772,32.32,13.73,-22.03,1785101263533.3372
-0.148,-0.995,-0.755,30.4,16.33,-34.0,1785101263533.51
-0.187,-0.981,-0.708,27.28,17.64,-46.54,1785101263544.917
-0.171,-0.988,-0.677,30.27,17.33,-59.33,1785101263550.572
-0.142,-0.983,-0.646,36.13,15.29,-73.49,1785101263561.331
-0.144,-0.989,-0.606,43.92,11.54,-87.5,1785101263572.0398
-0.157,-1.019,-0.579,58.35,7.42,-100.53,1785101263585.3079
-0.181,-1.027,-0.583,73.4,3.45,-113.01,1785101263590.954
-0.195,-1.013,-0.592,84.32,-0.43,-121.43,1785101263601.731
-0.166,-0.985,-0.606,90.55,-3.81,-125.43,1785101263614.947
-0.114,-0.929,-0.592,91.74,-6.29,-126.13,1785101263620.654
-0.05,-0.861,-0.556,90.09,-8.94,-123.45,1785101263631.448
0.004,-0.831,-0.532,90.06,-11.54,-119.57,1785101263642.2231
0.048,-0.802,-0.548,91.4,-13.31,-116.92,1785101263655.469
0.082,-0.867,-0.488,93.72,-17.06,-116.18,1785101263661.263
0.12,-0.771,-0.43,78.71,-28.66,-116.61,1785101263672.242
0.18,-0.612,-0.426,54.14,-36.59,-105.32,1785101263685.426
0.203,-0.55,-0.43,35.4,-42.54,-94.85,1785101263691.189
0.19,-0.554,-0.463,21.61,-45.9,-92.96,1785101263702.035
0.19,-0.573,-0.509,7.84,-46.78,-94.24,1785101263715.2458
0.26,-0.599,-0.536,-1.89,-45.66,-95.07,1785101263721.001
0.36,-0.598,-0.529,-3.45,-44.8,-94.88,1785101263731.5142
0.453,-0.568,-0.521,1.95,-47.0,-90.43,1785101263742.197
0.5,-0.544,-0.528,11.14,-50.87,-81.33,1785101263755.605
0.5,-0.5,-0.474,18.77,-54.99,-70.22,1785101263761.6628
0.475,-0.472,-0.426,27.68,-58.78,-60.52,1785101263771.96
0.447,-0.455,-0.412,37.81,-62.11,-53.35,1785101263785.1511
0.466,-0.444,-0.435,47.21,-64.88,-46.94,1785101263791.205
0.516,-0.469,-0.467,57.71,-66.16,-41.26,1785101263801.7112
0.556,-0.502,-0.509,67.48,-66.74,-36.5,1785101263812.244
0.575,-0.492,-0.549,75.72,-66.44,-30.98,1785101263825.521
0.598,-0.486,-0.588,84.38,-63.54,-23.01,1785101263831.458
0.598,-0.498,-0.641,90.91,-58.93,-14.92,1785101263842.02
0.6,-0.494,-0.643,91.92,-53.13,-8.09,1785101263852.558
0.604,-0.491,-0.573,89.94,-48.04,-3.08,1785101263865.721
0.596,-0.491,-0.497,88.75,-44.1,0.15,1785101263871.6301
0.59,-0.521,-0.426,90.12,-41.47,2.69,1785101263881.939
0.577,-0.54,-0.38,92.01,-40.65,5.34,1785101263892.534
0.583,-0.533,-0.417,94.45,-40.77,10.9,1785101263905.932
0.61,-0.53,-0.478,95.22,-39.98,17.73,1785101263911.722
0.627,-0.554,-0.527,92.17,-38.48,22.8,1785101263922.47
0.622,-0.586,-0.547,86.73,-36.07,25.97,1785101263935.6611
0.598,-0.617,-0.502,84.32,-32.75,29.3,1785101263941.1577
0.586,-0.617,-0.486,87.95,-29.91,33.78,1785101263951.901
0.577,-0.648,-0.447,99.06,-24.29,38.06,1785101263965.179
0.562,-0.641,-0.413,106.57,-20.23,40.25,1785101263970.9019
0.536,-0.625,-0.4,107.73,-18.86,44.4,1785101263981.845
0.534,-0.685,-0.324,105.75,-18.65,50.17,1785101263995.132
0.55,-0.769,-0.308,103.95,-19.32,51.39,1785101264001.0938
0.518,-0.841,-0.362,102.63,-18.49,49.87,1785101264011.773
0.486,-0.906,-0.388,99.95,-18.65,48.71,1785101264022.764
0.494,-0.984,-0.371,99.8,-14.83,48.8,1785101264035.6118
0.485,-1.066,-0.336,98.61,-11.66,48.65,1785101264042.1592
0.46,-1.125,-0.345,99.34,-9.31,47.61,1785101264052.017
0.453,-1.147,-0.345,99.09,-6.9,45.5,1785101264065.244
0.44,-1.112,-0.335,93.3,-5.98,43.06,1785101264071.183
0.401,-1.081,-0.337,82.09,-6.16,41.69,1785101264081.54
0.37,-1.065,-0.331,66.32,-7.17,39.89,1785101264092.0142
0.365,-1.074,-0.327,48.22,-9.64,35.4,1785101264105.2979
0.366,-1.118,-0.306,30.98,-11.72,30.55,1785101264111.245
0.359,-1.169,-0.317,16.69,-13.76,25.06,1785101264121.6462
0.348,-1.172,-0.304,3.51,-15.96,20.02,1785101264132.166
0.34,-1.158,-0.291,-7.23,-18.68,16.21,1785101264145.437
0.328,-1.155,-0.281,-13.31,-20.45,13.21,1785101264151.327
0.326,-1.163,-0.273,-12.6,-21.67,11.26,1785101264162.303
0.32,-1.167,-0.261,-6.93,-22.52,10.32,1785101264172.5068
0.298,-1.157,-0.248,-1.37,-24.17,9.0,1785101264185.505
0.271,-1.131,-0.229,1.95,-26.4,7.72,1785101264191.4802
0.253,-1.107,-0.237,3.54,-28.69,6.74,1785101264201.519
0.24,-1.08,-0.256,2.41,-30.82,5.89,1785101264212.029
0.232,-1.045,-0.293,-1.46,-33.14,4.88,1785101264222.547
0.239,-1.02,-0.338,-6.93,-34.85,3.17,1785101264235.678
0.239,-1.02,-0.338,-13.58,-35.13,-0.34,1785101264241.8672
0.24,-1.02,-0.36,-20.45,-34.67,-3.97,1785101264251.851
0.225,-1.02,-0.365,-22.28,-32.65,-6.2,1785101264262.5652
0.195,-1.017,-0.38,-20.14,-29.27,-7.05,1785101264275.6338
0.172,-0.986,-0.396,-20.14,-29.27,-7.05,1785101264281.896
0.174,-0.964,-0.406,-15.02,-25.85,-7.6,1785101264291.8599
0.174,-0.96,-0.418,-7.72,-22.92,-8.33,1785101264302.108
0.15,-0.949,-0.428,0.58,-19.87,-6.93,1785101264315.5452
0.132,-0.944,-0.422,9.67,-16.05,-3.14,1785101264321.402
0.144,-0.932,-0.391,17.67,-12.79,-0.43,1785101264331.5872
0.16,-0.922,-0.352,23.35,-11.78,-1.46,1785101264342.161
0.171,-0.947,-0.319,25.33,-11.02,-4.06,1785101264355.342
0.167,-0.948,-0.286,21.49,-10.07,-7.08,1785101264361.459
0.158,-0.946,-0.253,15.29,-10.83,-8.06,1785101264371.598
0.151,-0.929,-0.201,8.64,-13.0,-7.08,1785101264382.066
0.151,-0.894,-0.174,5.19,-14.19,-5.77,1785101264392.524
0.155,-0.905,-0.139,5.68,-14.8,-4.03,1785101264405.589
0.175,-0.893,-0.149,5.01,-17.46,-2.41,1785101264411.26
0.209,-0.89,-0.175,5.52,-18.52,-1.04,1785101264421.671
0.226,-0.879,-0.19,7.51,-18.52,-0.21,1785101264432.142
0.24,-0.84,-0.228,5.28,-19.56,0.55,1785101264445.3982
0.25,-0.823,-0.243,-2.72,-19.96,2.41,1785101264451.205
0.249,-0.849,-0.256,-9.37,-19.17,4.15,1785101264461.3508
0.239,-0.833,-0.281,-13.4,-17.43,7.08,1785101264471.9172
0.25,-0.82,-0.281,-18.92,-16.05,13.03,1785101264485.1938
0.263,-0.866,-0.319,-24.96,-14.25,14.98,1785101264490.888
0.271,-0.931,-0.346,-32.23,-8.94,11.47,1785101264501.605
0.268,-0.965,-0.353,-38.27,-2.96,6.44,1785101264512.022
0.236,-0.958,-0.388,-40.1,-0.18,5.4,1785101264522.7468
0.22,-0.945,-0.41,-41.26,0.21,9.25,1785101264535.952
0.207,-0.925,-0.39,-42.76,-0.58,13.64,1785101264541.8142
0.197,-0.913,-0.379,-41.72,-1.31,18.74,1785101264551.826
0.192,-0.935,-0.356,-37.08,-1.4,23.77,1785101264562.423
0.172,-0.959,-0.333,-28.75,-1.34,26.76,1785101264575.8237
0.136,-0.95,-0.324,-19.38,-1.34,27.92,1785101264581.543
0.113,-0.942,-0.321,-11.57,-1.59,28.2,1785101264591.865
0.09,-0.949,-0.306,-8.55,-3.2,26.0,1785101264602.376
0.076,-0.958,-0.305,-8.3,-5.37,22.68,1785101264615.5432
0.065,-0.983,-0.322,-3.94,-5.86,20.48,1785101264621.32
0.081,-1.026,-0.353,3.81,-5.19,19.71,1785101264631.49
0.084,-1.04,-0.365,7.87,-3.66,16.72,1785101264642.035
0.061,-1.01,-0.338,8.36,-2.14,14.01,1785101264652.3882
0.038,-0.995,-0.3,12.91,-1.56,13.95,1785101264665.641
0.058,-1.038,-0.279,23.99,-1.43,12.85,1785101264671.21
0.064,-1.052,-0.255,33.97,-1.31,9.06,1785101264681.731
0.06,-1.045,-0.228,41.2,-2.99,8.39,1785101264692.249
0.083,-1.029,-0.211,44.34,-5.92,10.28,1785101264705.7112
0.11,-0.991,-0.194,43.7,-7.35,11.32,1785101264711.437
0.125,-0.939,-0.197,41.32,-8.58,11.84,1785101264721.6848
0.139,-0.912,-0.221,38.82,-8.21,11.75,1785101264732.299
0.161,-0.892,-0.255,34.85,-9.03,11.51,1785101264745.596
0.177,-0.911,-0.281,27.31,-10.44,10.1,1785101264751.4
0.186,-0.943,-0.263,19.99,-10.41,8.33,1785101264762.1511
0.187,-0.95,-0.216,15.44,-9.58,7.32,1785101264772.38
0.196,-0.937,-0.215,14.62,-8.55,7.54,1785101264785.42
0.198,-0.909,-0.234,17.7,-7.26,9.58,1785101264791.1128
0.189,-0.87,-0.253,22.68,-6.78,13.03,1785101264801.516
0.199,-0.852,-0.285,23.77,-6.74,16.3,1785101264812.1072
0.169,-0.816,-0.277,20.66,-7.72,20.78,1785101264825.4248
0.209,-0.873,-0.271,11.05,-9.34,25.21,1785101264831.272
0.215,-0.98,-0.293,-5.01,-9.16,19.75,1785101264841.604
0.169,-1.016,-0.311,-22.03,-6.59,12.97,1785101264851.978
0.135,-1.015,-0.328,-33.3,-2.84,11.66,1785101264865.8318
0.13,-1.021,-0.341,-36.87,3.54,12.02,1785101264871.3
0.117,-1.041,-0.346,-36.19,7.57,10.1,1785101264881.6572
0.097,-1.034,-0.318,-38.7,7.26,8.76,1785101264891.9192
0.09,-1.03,-0.25,-39.28,5.55,10.8,1785101264902.4893
0.085,-1.008,-0.226,-33.54,3.08,12.88,1785101264915.7021
0.087,-1.001,-0.226,-26.34,0.64,13.37,1785101264921.581
0.076,-1.014,-0.23,-22.34,-1.53,10.25,1785101264931.883
0.058,-1.028,-0.219,-21.64,-3.63,6.1,1785101264942.368
0.037,-1.022,-0.206,-19.56,-5.31,2.29,1785101264955.699
0.027,-1.028,-0.201,-12.63,-7.14,0.73,1785101264961.56
0.046,-1.056,-0.216,-5.04,-8.82,-1.22,1785101264971.3972
0.047,-1.049,-0.244,1.5,-9.03,-4.06,1785101264981.7998
0.055,-1.029,-0.282,7.93,-8.12,-4.7,1785101264992.249
0.077,-1.009,-0.315,14.01,-6.23,-5.25,1785101265005.608
0.086,-0.96,-0.32,17.55,-4.33,-6.2,1785101265011.31
0.092,-0.963,-0.321,19.59,-3.94,-7.14,1785101265021.379
0.089,-1.009,-0.297,20.66,-2.99,-10.07,1785101265031.9429
0.083,-1.012,-0.282,19.81,-4.12,-11.41,1785101265045.2102
0.076,-0.976,-0.264,17.52,-6.5,-9.09,1785101265051.1238
0.087,-0.902,-0.189,11.99,-11.2,-3.69,1785101265061.357
0.123,-0.888,-0.071,2.72,-18.25,-0.61,1785101265071.774
0.134,-0.946,-0.061,2.81,-21.15,-3.6,1785101265082.407
0.122,-1.027,-0.223,22.61,-17.46,-6.59,1785101265095.5781
0.12,-1.022,-0.373,51.45,-10.01,-4.43,1785101265101.3918
0.16,-0.9,-0.429,82.16,-1.34,6.65,1785101265111.603
0.204,-0.769,-0.338,92.81,1.71,17.94,1785101265122.383
0.223,-0.805,-0.309,70.16,-5.28,17.82,1785101265135.625
0.179,-0.969,-0.342,37.87,-7.66,5.74,1785101265141.4668
0.115,-0.986,-0.332,13.64,-4.36,-0.82,1785101265151.402
0.133,-0.925,-0.261,-2.23,-2.78,3.97,1785101265161.8308
0.151,-0.913,-0.23,-15.81,-3.78,4.18,1785101265172.384
0.146,-0.936,-0.208,-29.73,-2.01,-0.34,1785101265185.5203
0.124,-0.98,-0.198,-36.96,0.37,-3.6,1785101265191.378
0.093,-0.978,-0.184,-37.6,1.86,-2.72,1785101265201.58
0.147,-1.044,-0.198,-31.92,4.12,0.64,1785101265211.981
0.156,-1.062,-0.244,-24.78,7.29,-2.93,1785101265222.6418
0.127,-1.031,-0.295,-20.14,9.46,-5.1,1785101265235.6218
0.099,-0.968,-0.315,-21.61,9.86,-3.11,1785101265241.73
0.087,-0.932,-0.303,-26.7,9.03,1.37,1785101265251.591
0.087,-0.932,-0.279,-32.26,7.48,4.91,1785101265262.066
0.078,-0.97,-0.244,-33.54,6.07,5.62,1785101265275.305
0.072,-1.004,-0.242,-30.18,5.01,3.2,1785101265281.142
0.056,-0.982,-0.239,-26.15,3.91,0.85,1785101265291.2278
0.045,-0.957,-0.228,-22.19,1.74,0.7,1785101265301.7002
0.056,-0.979,-0.242,-17.91,-0.12,-0.09,1785101265312.168
0.054,-1.012,-0.269,-14.44,-0.67,-3.6,1785101265325.418
0.051,-1.032,-0.302,-11.35,-0.4,-6.62,1785101265330.981
0.05,-0.988,-0.327,-8.12,0.73,-5.28,1785101265341.31
0.066,-0.945,-0.353,-2.59,2.5,-0.7,1785101265351.625
0.07,-0.915,-0.347,2.41,4.39,2.69,1785101265362.161
0.074,-0.964,-0.309,8.18,5.07,1.95,1785101265372.4329
0.059,-1.003,-0.243,10.13,4.03,-2.84,1785101265385.638
0.045,-0.972,-0.192,4.94,0.21,-5.1,1785101265391.4502
0.061,-0.955,-0.15,-2.66,-5.55,-3.17,1785101265401.487
0.077,-0.97,-0.139,-2.14,-7.11,-1.53,1785101265411.822
0.099,-0.97,-0.2,12.27,-4.0,-0.61,1785101265422.293
0.115,-0.968,-0.288,27.5,-1.4,0.76,1785101265435.494
0.128,-0.925,-0.325,34.36,-0.03,4.33,1785101265441.591
0.144,-0.897,-0.279,38.79,3.6,9.16,1785101265451.499
0.139,-0.895,-0.281,41.44,5.22,9.37,1785101265462.031
0.121,-0.918,-0.3,32.44,3.48,6.71,1785101265472.5261
0.114,-0.915,-0.284,13.82,1.31,5.01,1785101265485.7249
0.115,-0.914,-0.249,2.99,1.95,6.2,1785101265491.144
0.112,-0.909,-0.232,0.37,3.27,8.24,1785101265501.443
0.131,-0.942,-0.247,-2.5,3.14,8.48,1785101265511.809
0.131,-0.942,-0.247,-5.58,5.22,4.82,1785101265522.218
0.117,-1.016,-0.261,-6.78,8.18,1.53,1785101265535.5388
0.095,-1.066,-0.286,-8.03,9.89,2.5,1785101265541.198
0.088,-1.044,-0.326,-11.51,10.19,6.74,1785101265551.319
0.081,-0.997,-0.331,-15.32,9.49,9.98,1785101265561.7622
0.079,-0.987,-0.289,-15.32,9.49,9.98,1785101265572.3828
0.081,-0.994,-0.258,-17.43,8.82,11.02,1785101265585.465
0.069,-0.963,-0.237,-18.34,7.84,11.54,1785101265591.451
0.071,-0.952,-0.22,-17.37,5.49,11.57,1785101265601.666
0.07,-0.981,-0.213,-15.96,2.84,8.15,1785101265612.127
0.055,-0.989,-0.212,-16.48,1.01,3.08,1785101265625.429
0.052,-0.998,-0.224,-14.65,-0.15,1.01,1785101265631.221
0.056,-1.007,-0.243,-10.74,-0.92,0.34,1785101265641.344
0.06,-0.98,-0.25,-7.39,-1.31,0.89,1785101265651.68
0.073,-0.973,-0.271,-1.77,-0.7,2.35,1785101265662.108
0.075,-0.974,-0.32,5.55,0.85,1.46,1785101265672.605
0.066,-0.934,-0.337,9.52,2.29,0.37,1785101265685.678
0.071,-0.958,-0.315,10.99,2.75,0.37,1785101265691.478
0.068,-0.989,-0.268,9.92,1.89,-2.04,1785101265701.576
0.063,-1.014,-0.208,8.67,0.4,-4.15,1785101265711.885
0.058,-0.978,-0.157,2.69,-3.72,-4.46,1785101265722.421
0.091,-0.996,-0.119,-0.82,-8.09,-3.17,1785101265735.5679
0.088,-1.025,-0.118,4.06,-9.98,-4.36,1785101265740.915
0.09,-1.003,-0.167,9.8,-10.47,-3.69,1785101265751.242
0.111,-0.994,-0.264,15.35,-9.19,-2.23,1785101265761.7412
0.119,-0.94,-0.346,22.61,-4.73,0.15,1785101265772.259
0.139,-0.867,-0.335,29.21,-0.09,5.62,1785101265785.4258
0.159,-0.865,-0.315,30.79,1.1,8.24,1785101265791.3389
0.155,-0.938,-0.33,21.42,-0.09,3.6,1785101265801.593
0.133,-1.006,-0.306,1.13,-0.79,-3.91,1785101265811.768
0.109,-1.027,-0.278,-14.83,-0.03,-7.29,1785101265822.388
0.113,-0.994,-0.263,-19.93,1.56,-4.67,1785101265835.5852
0.116,-0.946,-0.243,-17.52,3.2,0.21,1785101265841.681
0.115,-0.918,-0.207,-15.2,2.59,3.54,1785101265851.383
0.122,-0.949,-0.197,-14.22,1.59,3.14,1785101265861.871
0.124,-0.994,-0.202,-12.33,2.81,1.07,1785101265872.5261
0.127,-1.022,-0.231,-9.0,5.07,-0.73,1785101265885.563
0.118,-1.018,-0.274,-7.81,6.04,-2.81,1785101265891.277
0.093,-0.987,-0.304,-12.45,4.76,-3.45,1785101265901.3389
0.067,-0.962,-0.32,-19.2,2.72,-1.59,1785101265911.8071
0.065,-0.947,-0.318,-22.46,2.01,3.02,1785101265922.525
0.079,-0.952,-0.297,-19.53,1.95,7.29,1785101265935.555
0.093,-0.999,-0.296,-11.57,2.32,7.23,1785101265941.4778
0.082,-1.027,-0.292,-5.07,3.57,3.51,1785101265951.343
0.063,-1.011,-0.281,-0.85,4.61,0.52,1785101265961.939
0.056,-0.977,-0.272,1.01,4.94,-0.34,1785101265972.2148
0.051,-0.958,-0.265,-0.34,4.27,-0.79,1785101265985.3818
0.047,-0.962,-0.277,-1.71,3.54,-1.37,1785101265991.0732
0.04,-0.959,-0.277,0.67,4.3,-1.46,1785101266001.031
0.045,-0.959,-0.289,5.8,5.37,-0.52,1785101266011.502
0.053,-0.941,-0.31,9.92,6.62,-0.37,1785101266021.826
0.062,-0.93,-0.315,12.67,7.29,-0.76,1785101266032.306
0.065,-0.944,-0.313,12.27,6.35,-2.47,1785101266045.607
0.062,-0.973,-0.291,8.27,4.36,-5.28,1785101266051.294
0.063,-0.972,-0.267,3.05,1.5,-6.38,1785101266061.3179
0.077,-0.958,-0.243,-1.34,-0.85,-4.58,1785101266071.691
0.074,-0.93,-0.227,-5.19,-3.23,-2.69,1785101266082.298
0.084,-0.94,-0.193,-6.65,-5.77,-0.37,1785101266092.5142
0.106,-1.014,-0.184,-3.51,-6.62,-0.95,1785101266105.8318
0.1,-1.03,-0.239,3.17,-5.68,-2.99,1785101266111.031
0.104,-1.013,-0.29,11.05,-3.72,-0.58,1785101266121.476
0.117,-0.964,-0.293,17.06,-0.64,3.11,1785101266131.907
0.137,-0.914,-0.305,17.58,1.22,6.35,1785101266142.4329
0.155,-0.923,-0.313,9.61,0.73,7.26,1785101266155.851
0.131,-0.965,-0.307,-1.1,0.21,4.18,1785101266161.5369
0.12,-0.987,-0.277,-12.82,-0.67,1.59,1785101266171.349
0.13,-0.988,-0.263,-21.33,-0.79,1.07,1785101266181.9429
0.135,-0.979,-0.265,-21.55,0.73,1.89,1785101266192.3699
0.118,-0.96,-0.262,-13.28,3.2,4.12,1785101266205.7542
0.116,-0.947,-0.249,-4.36,4.21,7.26,1785101266211.4182
0.118,-0.961,-0.24,0.85,4.3,7.81,1785101266221.422
0.127,-0.999,-0.249,3.11,4.94,5.55,1785101266231.7021
0.122,-1.034,-0.297,4.64,6.53,2.5,1785101266241.973
0.098,-1.02,-0.344,2.75,7.26,2.78,1785101266252.533
0.096,-1.001,-0.361,-3.48,6.62,6.62,1785101266265.612
0.095,-0.99,-0.351,-10.25,6.01,8.88,1785101266271.1492
0.081,-0.966,-0.329,-13.98,6.32,9.61,1785101266281.3281
0.079,-0.962,-0.307,-13.92,6.84,10.56,1785101266292.286
0.07,-0.982,-0.294,-12.54,6.99,8.61,1785101266305.506
0.058,-0.981,-0.271,-12.05,6.44,5.62,1785101266311.28
0.049,-0.995,-0.261,-9.64,5.89,3.36,1785101266321.3281
0.035,-0.981,-0.265,-7.63,4.97,1.53,1785101266331.4053
0.028,-0.925,-0.271,-8.85,3.66,2.5,1785101266342.07
0.039,-0.914,-0.266,-10.59,2.38,4.76,1785101266352.536
0.028,-0.926,-0.267,-10.99,2.11,4.3,1785101266365.778
0.026,-0.92,-0.269,-10.07,2.56,3.51,1785101266371.5498
0.034,-0.922,-0.272,-6.9,2.59,2.93,1785101266381.572
0.036,-0.932,-0.284,-2.59,2.75,1.77,1785101266392.019
0.026,-0.912,-0.3,-0.27,1.86,1.1,1785101266402.4
0.028,-0.893,-0.305,0.61,0.73,2.93,1785101266415.621
0.037,-0.895,-0.289,1.68,-0.15,5.83,1785101266421.349
0.043,-0.907,-0.271,3.33,-0.43,6.81,1785101266431.285
0.042,-0.911,-0.235,2.38,-1.16,6.74,1785101266441.8108
0.054,-0.942,-0.214,0.31,-3.08,5.28,1785101266452.018
0.067,-1.018,-0.223,0.06,-4.3,0.85,1785101266462.4597
0.062,-1.041,-0.24,-0.37,-4.85,-1.25,1785101266475.7131
0.068,-0.991,-0.297,-0.67,-4.3,2.11,1785101266480.8928
0.079,-0.892,-0.351,2.44,-1.4,8.61,1785101266491.1711
0.106,-0.872,-0.35,9.31,2.93,14.89,1785101266501.8281
0.109,-0.895,-0.316,10.68,5.31,14.28,1785101266512.397
0.12,-0.939,-0.285,3.05,4.12,9.8,1785101266525.758
0.122,-1.009,-0.275,-7.17,2.69,3.42,1785101266531.337
0.092,-1.028,-0.265,-11.51,3.11,-0.61,1785101266541.501
0.081,-0.992,-0.241,-5.52,4.79,1.37,1785101266551.575
0.101,-0.962,-0.233,6.9,6.29,5.65,1785101266561.982
0.117,-0.969,-0.255,15.2,6.1,6.96,1785101266575.197
0.125,-0.993,-0.264,13.34,5.37,5.07,1785101266581.2778
0.115,-1.014,-0.282,6.87,5.89,1.74,1785101266591.272
0.1,-0.991,-0.332,-0.06,7.69,0.89,1785101266601.682
0.103,-0.973,-0.363,-5.37,8.7,3.02,1785101266612.047
0.1,-0.982,-0.352,-10.77,7.6,3.14,1785101266622.6938
0.083,-1.014,-0.326,-14.56,6.04,1.31,1785101266635.773
0.067,-1.042,-0.297,-14.37,4.91,0.15,1785101266641.857
0.058,-1.048,-0.277,-11.54,4.15,0.37,1785101266651.662
0.05,-1.024,-0.272,-8.0,3.39,0.43,1785101266661.8293
0.044,-0.969,-0.265,-5.77,2.53,1.22,1785101266672.38
0.048,-0.972,-0.266,-3.08,1.28,1.86,1785101266685.6802
0.038,-0.983,-0.256,-2.5,-0.58,0.7,1785101266691.393
0.037,-1.006,-0.263,-2.41,-2.78,0.09,1785101266701.314
0.021,-0.985,-0.279,-3.66,-4.67,-1.01,1785101266711.711
0.025,-0.953,-0.319,-5.19,-5.62,-0.85,1785101266722.333
0.041,-0.953,-0.346,-4.7,-5.8,-1.65,1785101266732.471
0.04,-0.977,-0.369,-2.29,-4.82,-3.69,1785101266745.81
0.029,-0.979,-0.375,-1.04,-2.75,-5.4,1785101266751.4
0.022,-0.956,-0.375,0.27,-0.82,-5.89,1785101266761.475
0.028,-0.94,-0.368,1.46,0.76,-5.52,1785101266771.716
0.034,-0.944,-0.354,1.22,1.31,-5.92,1785101266782.175
0.027,-0.957,-0.327,-0.06,1.71,-7.42,1785101266795.458
0.019,-0.944,-0.306,-1.65,0.7,-7.78,1785101266801.258
0.019,-0.944,-0.306,-1.95,-0.89,-5.52,1785101266811.157
0.014,-0.924,-0.279,-2.04,-3.54,-2.66,1785101266821.529
0.017,-0.904,-0.226,-2.93,-7.45,-2.17,1785101266831.865
0.039,-0.923,-0.166,-1.98,-10.56,-4.39,1785101266842.5112
0.056,-0.965,-0.144,-1.98,-10.56,-4.39,1785101266855.646
0.075,-1.043,-0.161,4.64,-11.29,-7.48,1785101266861.435
0.075,-1.063,-0.262,14.04,-9.7,-10.22,1785101266871.665
0.055,-0.962,-0.363,21.97,-5.8,-5.92,1785101266882.3428
0.083,-0.846,-0.364,25.24,-2.62,4.94,1785101266895.3398
0.12,-0.834,-0.315,24.35,-1.28,9.86,1785101266901.166
0.131,-0.906,-0.291,16.33,-2.29,4.46,1785101266911.283
0.114,-1.007,-0.292,5.49,-2.2,-4.97,1785101266921.8582
0.087,-1.046,-0.293,-0.06,-0.37,-9.28,1785101266932.053
0.085,-1.003,-0.281,1.89,2.23,-6.26,1785101266942.3672
0.102,-0.955,-0.276,3.91,2.99,-1.71,1785101266957.948
0.099,-0.902,-0.269,-1.98,1.8,0.12,1785101266961.096
0.108,-0.913,-0.265,-7.63,2.26,0.34,1785101266971.266
0.106,-0.972,-0.293,-6.59,5.34,-1.65,1785101266981.7239
0.1,-0.991,-0.321,-6.93,7.08,-3.27,1785101266992.933
0.104,-1.006,-0.342,-9.28,6.84,-3.63,1785101267002.516
0.096,-1.002,-0.352,-12.6,5.92,-3.78,1785101267015.685
0.077,-0.985,-0.346,-14.98,5.16,-1.74,1785101267021.597
0.065,-0.962,-0.334,-14.4,4.33,1.95,1785101267031.6929
0.068,-0.935,-0.312,-11.38,3.91,5.52,1785101267042.308
0.08,-0.932,-0.302,-7.66,3.39,6.65,1785101267052.5032
0.083,-0.963,-0.302,-5.4,2.93,4.61,1785101267065.759
0.07,-0.991,-0.29,-5.62,2.53,1.28,1785101267071.409
0.055,-1.001,-0.28,-5.83,1.89,-1.16,1785101267081.516
0.042,-0.978,-0.271,-6.71,0.73,-2.04,1785101267091.828
0.045,-0.967,-0.274,-6.41,-0.15,-1.4,1785101267102.1838
0.049,-0.967,-0.286,-5.68,-0.21,-2.14,1785101267115.5461
0.038,-0.944,-0.302,-4.36,0.76,-2.59,1785101267121.354
0.045,-0.94,-0.309,-2.62,1.68,-1.8,1785101267131.172
0.054,-0.928,-0.314,-2.81,1.56,-2.35,1785101267141.5479
0.049,-0.919,-0.326,-0.79,2.41,-2.93,1785101267151.9082
0.054,-0.953,-0.339,4.46,3.66,-3.39,1785101267162.33
0.051,-0.988,-0.342,7.11,3.36,-5.71,1785101267175.571
0.045,-0.991,-0.321,6.26,2.75,-6.9,1785101267181.489
0.044,-0.952,-0.309,5.8,1.65,-5.22,1785101267191.1978
0.048,-0.898,-0.291,5.65,0.31,-1.43,1785101267201.566
0.064,-0.908,-0.252,5.31,-1.34,0.95,1785101267212.0
0.063,-0.919,-0.226,2.84,-4.09,-0.98,1785101267223.37
0.079,-0.952,-0.207,0.92,-6.78,-2.87,1785101267235.6072
0.08,-0.989,-0.225,1.07,-9.77,-4.7,1785101267241.402
0.102,-1.019,-0.25,2.38,-10.5,-4.43,1785101267251.2651
0.107,-0.999,-0.322,5.43,-9.83,-3.42,1785101267261.8618
0.116,-0.925,-0.361,9.13,-6.23,2.14,1785101267272.178
0.142,-0.867,-0.358,13.15,-2.84,8.82,1785101267285.3901
0.143,-0.887,-0.361,14.28,-1.28,9.06,1785101267291.1858
0.116,-0.903,-0.32,1.1,-4.0,4.43,1785101267301.3142
0.124,-0.944,-0.257,-18.25,-7.78,0.73,1785101267311.575
0.12,-0.991,-0.253,-20.75,-5.43,-2.69,1785101267322.1572
0.104,-1.008,-0.275,-4.12,0.46,-1.98,1785101267332.5188
0.102,-0.97,-0.288,13.46,3.36,2.41,1785101267345.83
0.126,-0.958,-0.291,19.53,3.94,5.25,1785101267351.5981
0.145,-0.989,-0.3,14.44,4.21,2.14,1785101267361.801
0.132,-1.023,-0.335,6.62,5.83,-2.69,1785101267372.131
0.107,-1.019,-0.35,0.58,7.14,-3.42,1785101267382.4739
0.109,-1.006,-0.35,-4.55,7.05,-0.98,1785101267395.72
0.106,-1.006,-0.338,-8.88,6.9,0.64,1785101267401.611
0.099,-1.006,-0.317,-11.38,6.62,2.2,1785101267411.4749
0.092,-1.018,-0.298,-10.59,6.5,2.84,1785101267422.1802
0.086,-1.008,-0.278,-8.36,6.38,1.8,1785101267432.374
0.087,-1.008,-0.275,-3.69,6.68,0.09,1785101267445.591
0.077,-0.987,-0.275,0.12,6.71,-2.04,1785101267451.233
0.077,-0.987,-0.283,2.26,6.01,-2.66,1785101267461.3208
0.069,-0.991,-0.283,0.82,4.64,-3.14,1785101267471.628
0.056,-0.986,-0.284,-3.11,3.05,-3.72,1785101267481.863
0.042,-0.929,-0.285,-7.93,1.59,-3.11,1785101267492.401
0.053,-0.914,-0.292,-8.12,0.95,-1.04,1785101267505.774
0.058,-0.93,-0.3,-7.14,0.49,-2.2,1785101267511.342
0.052,-0.943,-0.303,-8.61,-0.43,-5.37,1785101267521.6682
0.049,-0.961,-0.305,-10.47,-1.46,-7.72,1785101267531.835
0.043,-0.974,-0.3,-9.74,-1.95,-8.61,1785101267542.412
0.04,-0.974,-0.3,-6.26,-2.01,-8.27,1785101267555.691
0.039,-0.963,-0.302,-2.35,-1.77,-7.32,1785101267560.8298
0.047,-0.935,-0.301,-0.4,-1.92,-5.58,1785101267571.475
0.053,-0.918,-0.308,0.76,-2.81,-3.57,1785101267581.7869
0.047,-0.91,-0.312,1.13,-3.51,-2.04,1785101267591.9402
0.037,-0.863,-0.294,0.7,-3.57,0.58,1785101267602.4211
0.048,-0.823,-0.262,0.92,-4.24,4.09,1785101267615.5342
0.076,-0.846,-0.238,1.07,-6.38,4.0,1785101267621.166
0.086,-0.922,-0.218,2.17,-7.6,-0.98,1785101267631.211
0.088,-0.969,-0.23,5.92,-8.18,-5.52,1785101267641.788
0.096,-0.998,-0.265,10.74,-7.78,-6.2,1785101267652.031
0.101,-0.971,-0.315,10.99,-7.45,-3.69,1785101267662.709
0.115,-0.921,-0.348,9.28,-5.83,1.5,1785101267675.811
0.131,-0.89,-0.36,7.39,-4.27,6.16,1785101267681.428
0.149,-0.906,-0.35,4.18,-3.2,7.54,1785101267691.51
0.154,-0.96,-0.314,-1.34,-3.17,5.8,1785101267701.8381
0.159,-1.031,-0.282,-5.01,-2.26,1.5,1785101267712.211
0.134,-1.061,-0.283,-1.83,0.67,-2.44,1785101267725.561
0.108,-0.997,-0.289,5.34,2.78,-0.18,1785101267731.101
0.106,-0.872,-0.285,10.68,3.02,7.63,1785101267741.2422
0.149,-0.84,-0.268,11.96,3.42,14.04,1785101267751.7979
0.159,-0.954,-0.295,11.54,4.94,8.85,1785101267762.371
0.127,-1.033,-0.334,5.13,6.38,-1.01,1785101267775.594
0.108,-1.039,-0.355,-3.78,5.98,-4.21,1785101267781.034
0.112,-1.019,-0.372,-10.22,4.46,-1.71,1785101267791.1091
0.111,-1.003,-0.385,-14.25,3.33,1.34,1785101267801.7202
0.106,-1.002,-0.377,-16.3,2.72,4.24,1785101267811.989
0.102,-1.023,-0.364,-14.77,2.26,6.07,1785101267825.356
0.093,-1.036,-0.351,-10.65,2.23,5.71,1785101267830.9177
0.076,-1.009,-0.337,-6.29,2.56,4.94,1785101267841.1938
0.071,-0.992,-0.328,-2.78,2.72,4.76,1785101267851.6592
0.049,-0.951,-0.316,-2.2,2.53,4.12,1785101267861.93
0.048,-0.901,-0.28,-3.69,1.28,6.2,1785101267872.406
0.063,-0.946,-0.264,-1.74,-0.03,6.26,1785101267885.7139
0.052,-0.987,-0.271,-1.62,-0.89,1.22,1785101267891.238
0.031,-0.987,-0.279,-2.17,-1.46,-2.81,1785101267901.551
0.03,-0.964,-0.288,0.15,-1.37,-2.78,1785101267911.889
0.051,-0.973,-0.306,3.88,-0.79,-2.29,1785101267922.151
0.054,-0.989,-0.332,6.1,0.61,-4.03,1785101267932.518
0.041,-0.975,-0.347,5.95,2.01,-4.43,1785101267945.824
0.041,-0.951,-0.343,5.58,2.66,-2.75,1785101267951.2651
0.049,-0.932,-0.339,4.3,2.59,-2.2,1785101267961.6157
0.044,-0.919,-0.326,0.43,1.98,-2.9,1785101267971.8489
0.038,-0.923,-0.303,-4.27,0.46,-3.85,1785101267982.2422
0.038,-0.911,-0.273,-8.09,-1.98,-3.97,1785101267995.548
0.059,-0.91,-0.227,-8.27,-4.27,-2.87,1785101268001.3298
0.068,-0.928,-0.213,-3.3,-5.13,-3.75,1785101268011.1912
0.067,-0.928,-0.226,-0.15,-6.9,-5.07,1785101268021.6938
0.083,-0.963,-0.223,0.46,-8.42,-6.53,1785101268031.931
0.081,-0.99,-0.263,1.77,-10.1,-8.58,1785101268042.5989
0.073,-0.97,-0.32,3.69,-11.11,-6.16,1785101268055.676
0.083,-0.943,-0.37,6.04,-10.77,0.79,1785101268061.8281
0.112,-0.914,-0.37,9.37,-6.99,6.59,1785101268071.476
0.132,-0.915,-0.343,11.38,-3.14,7.45,1785101268082.135
0.132,-0.915,-0.343,7.51,-1.46,3.02,1785101268092.551
0.139,-0.966,-0.331,-2.44,-1.34,-3.78,1785101268105.623
0.121,-1.019,-0.325,-11.93,-0.79,-7.14,1785101268111.4
0.102,-1.024,-0.303,-14.92,0.0,-4.97,1785101268123.6858
0.094,-0.951,-0.283,-12.27,0.64,2.84,1785101268131.701
0.092,-0.833,-0.258,-12.27,0.64,2.84,1785101268142.688
0.123,-0.795,-0.224,-7.66,1.01,10.07,1785101268155.79
0.147,-0.922,-0.244,-1.89,1.83,5.74,1785101268164.3782
0.121,-0.997,-0.281,-0.73,3.36,-4.18,1785101268171.321
0.096,-0.991,-0.285,1.4,5.74,-4.61,1785101268181.638
0.119,-0.99,-0.311,6.84,6.65,-0.55,1785101268191.988
0.127,-0.98,-0.366,6.87,6.2,0.4,1785101268202.551
0.111,-0.955,-0.382,-0.49,5.22,1.68,1785101268215.843
0.1,-0.988,-0.377,-5.68,4.94,4.27,1785101268221.3938
0.086,-1.006,-0.365,-7.17,5.25,5.22,1785101268231.531
0.082,-0.95,-0.34,-7.93,5.74,6.29,1785101268241.965
0.093,-0.93,-0.315,-5.34,6.23,7.78,1785101268252.207
0.092,-0.952,-0.305,-1.59,6.23,5.95,1785101268262.794
0.072,-0.979,-0.294,-0.03,5.77,1.95,1785101268275.841
0.057,-0.995,-0.283,0.27,4.24,-0.03,1785101268281.441
0.051,-0.985,-0.273,0.67,1.68,0.06,1785101268295.431
0.065,-0.989,-0.288,1.89,0.37,0.09,1785101268301.5881
0.064,-0.993,-0.316,2.56,0.0,-1.71,1785101268311.917
0.052,-0.963,-0.331,2.01,0.12,-1.89,1785101268325.158
0.065,-0.958,-0.336,3.2,0.46,-0.18,1785101268330.549
0.075,-0.967,-0.344,3.72,0.49,-0.79,1785101268340.842
0.068,-0.941,-0.358,1.65,0.24,-2.23,1785101268351.279
0.071,-0.904,-0.352,-0.79,-0.24,-1.16,1785101268361.6362
0.075,-0.938,-0.352,-1.04,-0.82,-1.13,1785101268371.9968
0.052,-0.939,-0.331,-4.46,-2.35,-4.3,1785101268385.237
0.049,-0.925,-0.305,-9.8,-5.68,-5.1,1785101268390.609
0.062,-0.952,-0.265,-12.6,-7.2,-4.79,1785101268400.948
0.053,-0.932,-0.248,-12.94,-8.61,-5.55,1785101268411.451
0.059,-0.945,-0.227,-7.87,-9.28,-4.64,1785101268421.7898
0.067,-0.993,-0.234,-1.83,-11.23,-6.13,1785101268435.082
0.079,-1.014,-0.266,3.36,-10.86,-6.78,1785101268440.684
0.078,-0.982,-0.336,10.07,-8.97,-3.97,1785101268451.134
