ax,ay,az,gx,gy,gz,timestamp_ms
-0.031,-0.994,0.209,0.55,-4.36,0.85,1785111039558.5999
-0.031,-0.977,0.209,0.27,-5.07,1.34,1785111039559.104
-0.031,-0.964,0.198,-0.64,-5.86,2.2,1785111039559.602
-0.024,-0.968,0.19,-0.92,-5.95,3.39,1785111039560.106
-0.023,-0.984,0.177,-0.55,-5.92,3.23,1785111039560.595
-0.024,-0.991,0.164,0.27,-5.89,3.36,1785111039561.0603
-0.019,-0.99,0.151,1.68,-5.43,3.97,1785111039561.534
-0.017,-0.985,0.141,2.08,-4.61,4.55,1785111039561.996
-0.017,-0.984,0.137,1.46,-3.63,5.01,1785111039562.404
-0.019,-0.999,0.14,0.55,-2.78,5.43,1785111039562.7993
-0.021,-1.006,0.144,-0.43,-2.32,5.37,1785111039563.2031
-0.019,-1.0,0.153,-0.43,-1.5,6.04,1785111039563.599
-0.016,-0.995,0.161,-0.37,-1.28,6.68,1785111039563.998
-0.013,-1.007,0.16,-0.82,-1.07,6.2,1785111039564.399
-0.017,-1.017,0.16,-2.04,-1.01,4.61,1785111039564.7932
-0.014,-1.017,0.15,-2.81,-0.7,3.6,1785111039565.2007
-0.008,-1.031,0.139,-1.07,0.24,2.93,1785111039565.602
-0.015,-1.038,0.135,2.04,1.1,2.23,1785111039566.029
-0.02,-1.029,0.131,4.85,1.77,1.62,1785111039566.4539
-0.024,-1.014,0.125,6.01,2.5,1.19,1785111039566.845
-0.029,-1.001,0.122,4.88,3.45,0.73,1785111039567.342
-0.033,-1.0,0.126,1.8,4.18,-0.03,1785111039567.7969
-0.028,-1.01,0.145,-1.5,4.97,-0.7,1785111039568.208
-0.026,-1.032,0.168,-2.08,5.22,-1.34,1785111039568.604
-0.032,-1.033,0.177,-0.15,5.04,-2.53,1785111039568.995
-0.032,-1.019,0.18,1.37,4.61,-3.08,1785111039569.4038
-0.031,-1.009,0.178,0.85,4.21,-3.14,1785111039569.792
-0.03,-1.001,0.175,-0.43,4.15,-3.33,1785111039570.174
-0.025,-0.992,0.179,-1.4,4.15,-3.2,1785111039570.5103
-0.027,-1.002,0.189,-2.08,3.78,-3.23,1785111039570.848
-0.03,-1.018,0.187,-1.07,3.48,-3.94,1785111039571.1848
-0.03,-1.022,0.177,2.08,3.36,-3.88,1785111039571.5159
-0.03,-1.009,0.169,4.03,2.72,-3.48,1785111039571.848
-0.028,-0.987,0.174,4.09,2.5,-3.08,1785111039572.191
-0.025,-0.979,0.16,4.61,2.53,-2.81,1785111039572.5498
-0.03,-0.956,0.167,2.53,3.02,-2.99,1785111039572.912
-0.029,-0.953,0.194,-1.71,2.5,-2.41,1785111039573.2842
-0.029,-0.995,0.217,-6.5,1.16,-2.96,1785111039573.625
-0.03,-1.019,0.214,-8.15,0.03,-3.78,1785111039573.952
-0.032,-1.002,0.204,-6.71,-0.34,-2.75,1785111039574.2888
-0.032,-1.002,0.204,-7.32,-1.13,-1.04,1785111039574.6292
-0.04,-0.972,0.192,-10.77,-1.92,-0.49,1785111039574.976
-0.046,-0.959,0.17,-13.15,-2.26,0.52,1785111039575.3323
-0.035,-0.97,0.159,-11.2,-3.02,1.37,1785111039575.68
-0.035,-0.992,0.16,-11.2,-3.02,1.37,1785111039576.0361
-0.041,-1.0,0.17,-7.42,-4.12,2.2,1785111039576.3672
-0.041,-0.996,0.167,-3.91,-5.31,2.99,1785111039576.716
-0.044,-0.993,0.161,-0.37,-6.13,3.85,1785111039577.08
-0.046,-0.986,0.162,2.2,-6.53,4.94,1785111039577.44
-0.043,-0.973,0.161,2.84,-6.9,5.77,1785111039577.7659
-0.038,-0.965,0.163,0.24,-6.93,6.04,1785111039578.086
-0.032,-0.961,0.178,-3.36,-6.78,6.78,1785111039578.379
-0.027,-0.988,0.178,-4.79,-6.56,7.26,1785111039578.6692
-0.032,-1.013,0.176,-4.46,-6.74,6.5,1785111039578.971
-0.032,-1.001,0.177,-3.42,-6.99,7.29,1785111039579.2708
-0.026,-1.004,0.168,-1.07,-7.14,9.03,1785111039579.5671
-0.03,-1.025,0.149,1.13,-7.42,8.39,1785111039579.8708
-0.032,-1.047,0.125,3.02,-7.97,6.81,1785111039580.184
-0.025,-1.056,0.099,4.79,-7.57,6.23,1785111039580.499
-0.022,-1.052,0.066,6.9,-5.65,6.01,1785111039580.82
-0.034,-1.017,0.063,6.41,-3.05,5.68,1785111039581.126
-0.032,-1.0,0.064,3.57,-1.34,5.95,1785111039581.44
-0.029,-0.99,0.059,0.34,1.07,5.31,1785111039581.752
-0.033,-0.985,0.088,-2.53,3.81,5.52,1785111039582.061
-0.035,-1.01,0.125,-2.81,5.04,5.77,1785111039582.3738
-0.04,-1.033,0.152,-1.01,4.91,3.97,1785111039582.6812
-0.039,-1.032,0.165,2.87,4.36,2.47,1785111039582.978
-0.038,-1.03,0.171,5.16,3.63,1.43,1785111039583.282
-0.036,-1.023,0.18,2.59,3.08,-0.46,1785111039583.607
-0.031,-1.012,0.186,-1.71,2.75,-1.59,1785111039583.9019
-0.026,-1.001,0.196,-4.91,2.56,-1.89,1785111039584.201
-0.023,-0.998,0.199,-6.1,1.83,-2.29,1785111039584.503
-0.019,-0.993,0.188,-5.68,1.19,-2.72,1785111039584.7979
-0.019,-0.983,0.171,-4.52,0.89,-2.75,1785111039585.101
-0.021,-0.956,0.162,-4.24,1.34,-1.77,1785111039585.403
-0.025,-0.943,0.164,-5.98,1.95,-0.49,1785111039585.706
-0.025,-0.949,0.191,-8.91,1.13,0.58,1785111039585.9749
-0.024,-0.977,0.193,-9.83,0.06,0.52,1785111039586.2542
-0.018,-0.977,0.215,-9.37,-0.27,0.95,1785111039586.559
-0.017,-0.958,0.221,-10.35,-2.04,2.69,1785111039586.835
-0.013,-0.937,0.213,-13.46,-3.57,5.77,1785111039587.1912
-0.018,-0.938,0.198,-15.56,-4.76,7.66,1785111039587.502
-0.026,-0.95,0.164,-12.6,-6.01,9.06,1785111039587.784
-0.03,-0.988,0.129,-2.78,-6.62,10.62,1785111039588.0588
-0.045,-1.023,0.103,7.23,-6.78,10.35,1785111039588.353
-0.058,-1.039,0.088,13.86,-6.16,9.43,1785111039588.643
-0.072,-1.045,0.087,17.18,-4.85,8.61,1785111039588.9211
-0.078,-1.038,0.092,17.27,-3.27,8.18,1785111039589.207
-0.076,-1.014,0.101,14.56,-1.71,7.69,1785111039589.502
-0.068,-1.012,0.119,11.75,-0.34,6.99,1785111039589.7888
-0.067,-1.038,0.133,9.03,0.09,5.43,1785111039590.06
-0.07,-1.059,0.151,6.59,0.4,3.48,1785111039590.344
-0.074,-1.061,0.166,5.62,0.18,2.44,1785111039590.637
-0.071,-1.038,0.171,5.16,0.09,1.89,1785111039590.9067
-0.063,-1.013,0.172,3.78,-0.06,0.76,1785111039591.2322
-0.061,-1.007,0.18,1.01,-0.61,-0.37,1785111039591.5232
-0.054,-1.011,0.187,-0.98,-1.22,-1.13,1785111039591.829
-0.048,-1.022,0.179,-0.95,-1.71,-1.89,1785111039592.104
-0.046,-1.031,0.169,0.58,-2.11,-2.72,1785111039592.371
-0.045,-1.03,0.159,2.66,-2.38,-3.6,1785111039592.639
-0.049,-1.03,0.149,4.91,-1.98,-4.52,1785111039592.897
-0.054,-1.006,0.144,6.29,-1.13,-4.61,1785111039593.1677
-0.046,-0.981,0.146,5.98,-0.95,-3.39,1785111039593.452
-0.044,-0.977,0.146,5.13,-0.27,-3.11,1785111039593.714
-0.047,-0.981,0.156,4.15,0.27,-3.33,1785111039593.9907
-0.046,-0.985,0.165,4.0,0.49,-3.54,1785111039594.254
-0.041,-0.98,0.164,4.7,0.67,-3.48,1785111039594.514
-0.041,-0.976,0.167,5.58,1.07,-3.23,1785111039594.7678
-0.039,-0.985,0.165,8.15,1.31,-2.99,1785111039595.03
-0.033,-0.99,0.158,9.95,0.95,-3.97,1785111039595.289
-0.031,-0.985,0.174,9.89,0.95,-5.22,1785111039595.5432
-0.032,-0.979,0.181,10.86,0.89,-5.04,1785111039595.808
-0.033,-0.945,0.211,9.34,0.4,-3.91,1785111039596.093
-0.032,-0.977,0.208,3.11,-0.64,-3.97,1785111039596.3662
-0.056,-0.977,0.193,-5.71,0.31,-5.28,1785111039596.618
-0.039,-0.982,0.19,-10.62,2.2,-2.26,1785111039596.9028
-0.048,-1.03,0.19,-10.96,1.56,-3.48,1785111039597.1738
-0.052,-1.016,0.206,-10.71,0.89,-4.21,1785111039597.43
-0.037,-1.003,0.214,-7.26,-0.09,-2.84,1785111039597.682
-0.037,-1.01,0.208,-2.84,-1.56,-2.47,1785111039597.929
-0.054,-1.004,0.201,0.06,-2.44,-3.05,1785111039598.165
-0.067,-0.993,0.201,0.34,-3.42,-3.48,1785111039598.408
-0.064,-0.998,0.201,-0.92,-4.3,-3.39,1785111039598.659
-0.054,-1.017,0.19,-1.89,-4.91,-3.08,1785111039598.909
-0.055,-1.02,0.166,-2.23,-5.16,-3.27,1785111039599.146
-0.062,-1.012,0.145,-1.98,-4.52,-3.33,1785111039599.393
-0.069,-1.0,0.138,-2.26,-4.09,-2.62,1785111039599.642
-0.067,-0.976,0.15,-3.63,-3.36,-1.53,1785111039599.8772
-0.056,-0.971,0.179,-3.39,-2.9,-0.64,1785111039600.126
-0.052,-0.981,0.189,-1.56,-3.66,-0.37,1785111039600.3699
-0.053,-0.984,0.178,0.95,-3.85,-0.27,1785111039600.611
-0.056,-0.992,0.165,3.02,-3.91,-0.4,1785111039600.856
-0.055,-1.004,0.139,3.91,-3.33,-0.34,1785111039601.099
-0.05,-1.012,0.118,3.33,-1.92,-0.24,1785111039601.3481
-0.037,-1.022,0.105,3.23,-0.52,0.27,1785111039601.5999
-0.025,-1.028,0.089,5.04,1.25,1.01,1785111039601.846
-0.032,-1.009,0.083,7.84,3.57,1.07,1785111039602.0889
-0.041,-0.98,0.111,8.33,5.19,1.65,1785111039602.3303
-0.036,-0.96,0.138,6.29,6.23,2.59,1785111039602.5999
-0.032,-0.947,0.157,6.5,7.17,3.36,1785111039602.8599
-0.034,-0.962,0.178,8.15,6.29,3.81,1785111039603.0981
-0.04,-0.977,0.204,7.05,4.85,3.17,1785111039603.3372
-0.033,-0.977,0.222,5.34,3.91,4.12,1785111039603.5818
-0.026,-0.985,0.223,5.95,3.3,5.52,1785111039603.825
-0.035,-0.994,0.222,6.44,2.5,4.82,1785111039604.059
-0.04,-1.019,0.222,7.9,1.46,3.91,1785111039604.301
-0.043,-1.029,0.216,9.98,0.21,2.99,1785111039604.544
-0.043,-1.016,0.213,11.81,-0.82,2.44,1785111039604.783
-0.04,-0.988,0.213,11.2,-1.8,2.69,1785111039605.031
-0.036,-0.971,0.202,8.7,-2.32,3.11,1785111039605.276
-0.039,-0.979,0.205,5.4,-2.81,3.27,1785111039605.512
-0.039,-1.001,0.218,1.68,-3.57,3.17,1785111039605.74
-0.042,-1.014,0.213,-0.31,-4.03,1.98,1785111039605.973
-0.037,-1.01,0.209,-0.43,-4.52,1.19,1785111039606.2068
-0.042,-1.004,0.194,-0.09,-5.22,0.76,1785111039606.436
-0.045,-0.991,0.177,0.18,-5.22,0.95,1785111039606.667
-0.039,-0.975,0.173,1.07,-4.91,1.43,1785111039606.899
-0.041,-0.981,0.172,1.1,-4.94,1.16,1785111039607.1292
-0.041,-0.983,0.178,-0.46,-4.64,0.73,1785111039607.405
-0.038,-0.986,0.188,-0.95,-4.58,1.28,1785111039607.668
-0.042,-0.995,0.183,0.43,-4.91,1.68,1785111039607.899
-0.048,-1.001,0.184,1.22,-5.07,1.4,1785111039608.135
-0.049,-1.011,0.178,1.19,-5.13,0.92,1785111039608.372
-0.047,-1.019,0.174,0.61,-5.13,0.58,1785111039608.61
-0.047,-1.015,0.172,0.34,-4.97,0.21,1785111039608.8372
-0.046,-1.007,0.173,0.27,-4.61,0.12,1785111039609.078
-0.046,-1.004,0.166,-0.55,-4.39,-0.15,1785111039609.3098
-0.047,-0.997,0.163,-1.37,-3.81,-0.34,1785111039609.535
-0.047,-0.997,0.163,-1.01,-3.36,-0.24,1785111039609.7668
-0.048,-0.997,0.164,-0.58,-2.96,-0.7,1785111039610.0
-0.053,-1.0,0.168,-0.06,-2.75,-0.95,1785111039610.2268
-0.049,-1.004,0.174,0.24,-2.59,-1.4,1785111039610.471
-0.047,-1.007,0.18,0.92,-2.2,-1.86,1785111039610.697
-0.04,-1.004,0.177,2.35,-1.83,-1.74,1785111039611.146
-0.039,-1.006,0.151,4.58,-1.01,-2.14,1785111039611.376
0.003,-0.997,0.193,-3.45,-1.1,-2.41,1785111039611.875
-0.003,-0.989,0.185,-0.12,-1.01,-1.89,1785111039612.095
-0.008,-0.992,0.184,1.71,-1.89,-2.38,1785111039612.313
-0.006,-0.996,0.185,0.43,-2.41,-2.93,1785111039612.614
0.0,-1.005,0.192,-0.34,-2.11,-2.44,1785111039622.931
-0.001,-0.997,0.196,0.49,-2.04,-2.41,1785111039633.2642
-0.0,-0.995,0.197,1.07,-2.56,-2.53,1785111039643.689
-0.005,-0.987,0.195,-0.52,-2.96,-2.32,1785111039654.029
-0.004,-0.973,0.198,-2.53,-2.69,-0.46,1785111039667.238
-0.008,-0.979,0.2,-2.35,-2.2,0.21,1785111039672.7092
-0.007,-0.993,0.205,-1.34,-2.44,-0.18,1785111039682.97
0.003,-1.016,0.205,1.4,-2.87,-0.52,1785111039693.4578
0.002,-1.017,0.198,5.4,-2.9,-0.95,1785111039703.76
0.008,-1.002,0.198,8.64,-2.81,-0.12,1785111039714.1912
0.012,-1.012,0.169,11.51,-2.35,-0.31,1785111039727.405
-0.009,-1.007,0.124,13.64,-0.4,-1.71,1785111039733.126
-0.021,-0.963,0.132,14.44,1.95,0.7,1785111039743.407
-0.016,-0.957,0.101,16.3,3.48,1.77,1785111039753.8618
-0.02,-0.933,0.088,15.84,6.93,0.76,1785111039767.067
-0.027,-0.947,0.104,13.31,8.27,1.04,1785111039772.799
-0.04,-1.003,0.141,14.07,9.4,-0.82,1785111039783.063
-0.048,-1.055,0.189,16.33,9.8,-2.99,1785111039793.6157
-0.045,-1.073,0.25,13.79,8.33,-4.24,1785111039804.189
-0.031,-1.052,0.277,6.04,6.16,-4.03,1785111039817.412
-0.015,-0.996,0.275,-3.6,5.68,-2.38,1785111039823.2341
-0.007,-0.949,0.244,-9.83,5.65,-1.43,1785111039833.086
-0.005,-0.949,0.232,-11.96,5.22,-1.1,1785111039843.625
-0.016,-0.993,0.221,-14.28,3.05,-2.29,1785111039854.049
-0.027,-1.007,0.21,-17.0,1.83,-2.93,1785111039864.522
-0.018,-0.989,0.22,-17.03,1.19,-1.16,1785111039877.7568
-0.011,-1.007,0.232,-14.71,-0.82,-0.61,1785111039883.893
-0.014,-1.018,0.245,-12.45,-2.84,-2.2,1785111039893.758
-0.012,-1.004,0.261,-9.77,-4.52,-2.01,1785111039903.8137
-0.005,-0.98,0.265,-7.54,-6.44,-1.1,1785111039914.336
0.003,-0.963,0.247,-8.21,-8.24,-0.73,1785111039928.045
0.006,-0.958,0.232,-11.47,-9.16,-0.61,1785111039933.6992
0.005,-0.946,0.216,-15.59,-9.4,0.46,1785111039943.5872
0.011,-0.944,0.215,-19.01,-9.25,2.08,1785111039954.0251
0.018,-0.967,0.221,-20.29,-9.46,2.96,1785111039964.551
0.012,-0.995,0.211,-17.15,-9.49,2.69,1785111039977.7898
0.013,-1.006,0.195,-10.56,-8.51,2.29,1785111039983.7708
0.01,-0.999,0.19,-3.81,-7.6,2.11,1785111039993.5679
0.025,-0.996,0.195,0.79,-7.51,3.54,1785111040004.014
0.036,-1.021,0.194,7.63,-7.35,3.42,1785111040014.47
0.036,-1.021,0.194,15.87,-7.54,1.77,1785111040027.6821
0.028,-1.028,0.176,23.26,-7.72,0.67,1785111040033.376
0.015,-1.01,0.144,29.3,-5.71,0.92,1785111040043.314
-0.006,-0.954,0.125,31.98,-4.88,3.48,1785111040053.801
0.01,-0.956,0.118,28.81,-4.73,1.01,1785111040064.3079
0.009,-1.0,0.087,28.81,-4.73,1.01,1785111040077.539
0.005,-1.009,0.106,22.58,-3.45,-0.85,1785111040083.2441
0.01,-1.031,0.134,20.17,-2.99,-0.27,1785111040093.447
0.005,-1.056,0.12,22.58,-2.47,-1.59,1785111040103.982
-0.012,-1.063,0.139,24.66,-1.83,-2.56,1785111040117.255
-0.025,-1.066,0.18,24.38,-2.01,-2.56,1785111040122.919
-0.018,-1.048,0.218,18.89,-2.56,-2.26,1785111040133.209
-0.005,-1.025,0.226,9.89,-2.47,-2.38,1785111040143.4373
0.0,-1.0,0.229,-1.74,-2.2,-3.17,1785111040153.79
-0.001,-0.994,0.232,-14.22,-2.08,-4.82,1785111040167.041
-0.011,-1.007,0.233,-21.3,-1.34,-6.47,1785111040172.686
-0.008,-1.009,0.245,-23.77,-1.62,-5.62,1785111040183.0442
-0.005,-1.002,0.254,-25.82,-2.66,-5.31,1785111040193.5688
-0.002,-1.001,0.234,-27.31,-3.81,-6.32,1785111040204.057
-0.011,-0.991,0.227,-23.44,-3.33,-6.16,1785111040217.8052
-0.018,-0.981,0.247,-20.51,-4.91,-5.58,1785111040223.61
-0.018,-0.968,0.24,-23.13,-5.89,-6.9,1785111040233.6929
-0.003,-0.955,0.249,-25.76,-5.31,-6.07,1785111040244.226
0.008,-0.97,0.255,-25.39,-5.71,-4.91,1785111040254.467
0.003,-0.98,0.242,-23.56,-6.53,-5.77,1785111040267.543
-0.001,-0.982,0.228,-21.15,-6.96,-6.13,1785111040273.124
0.004,-0.986,0.21,-17.98,-7.57,-5.4,1785111040283.354
0.012,-0.987,0.194,-13.64,-7.75,-4.09,1785111040294.1858
0.011,-0.976,0.185,-7.9,-7.75,-2.78,1785111040304.126
0.011,-0.967,0.182,-2.81,-8.09,-1.5,1785111040317.834
0.016,-0.958,0.179,1.04,-8.27,-0.31,1785111040323.56
0.019,-0.949,0.169,3.08,-8.06,0.64,1785111040333.4458
0.009,-0.934,0.168,2.75,-7.45,1.74,1785111040343.779
0.004,-0.927,0.174,1.74,-6.96,3.05,1785111040354.1619
0.003,-0.953,0.169,0.89,-6.65,3.51,1785111040364.7302
-0.004,-0.978,0.168,-1.59,-6.26,2.99,1785111040377.708
-0.005,-0.993,0.168,-3.94,-5.65,3.39,1785111040383.6392
-0.007,-1.017,0.163,-4.52,-4.64,4.33,1785111040393.405
-0.009,-1.024,0.159,-4.12,-3.6,5.13,1785111040403.848
-0.011,-1.019,0.156,-2.93,-2.56,6.38,1785111040414.336
-0.009,-1.003,0.163,-1.1,-1.86,7.2,1785111040424.558
-0.004,-1.005,0.168,2.59,-1.34,7.17,1785111040437.866
0.001,-1.025,0.171,7.26,-1.22,6.32,1785111040443.5251
0.008,-1.065,0.153,13.15,-1.46,4.06,1785111040453.571
0.0,-1.073,0.139,19.04,-0.95,2.01,1785111040464.179
-0.003,-1.036,0.147,22.16,-0.43,2.9,1785111040474.494
0.004,-1.02,0.133,24.69,0.49,4.03,1785111040488.093
0.009,-1.011,0.121,23.35,1.59,3.2,1785111040493.655
0.007,-1.02,0.118,19.32,2.38,1.53,1785111040503.7297
0.002,-1.019,0.126,14.37,3.54,0.67,1785111040514.372
-0.003,-1.01,0.153,9.0,4.39,0.46,1785111040524.499
-0.009,-1.018,0.19,4.21,4.61,-0.31,1785111040537.791
-0.006,-1.024,0.228,-0.4,3.78,-1.37,1785111040543.5461
-0.003,-1.026,0.256,-3.75,2.62,-3.05,1785111040553.4238
0.01,-1.032,0.261,-6.1,0.7,-4.33,1785111040563.957
0.018,-1.038,0.256,-7.57,-1.22,-5.58,1785111040574.1582
0.022,-1.044,0.244,-7.45,-3.08,-6.9,1785111040587.4822
0.03,-1.03,0.217,-5.37,-3.91,-7.2,1785111040593.2832
0.042,-1.015,0.177,-2.72,-4.61,-7.17,1785111040602.909
0.044,-0.98,0.145,1.1,-4.03,-7.6,1785111040613.275
0.043,-0.955,0.132,5.16,-4.24,-7.57,1785111040623.8552
0.037,-0.945,0.142,5.83,-4.12,-7.63,1785111040634.2559
0.045,-0.964,0.169,0.67,-4.88,-7.6,1785111040647.5232
0.049,-0.98,0.183,-7.75,-5.1,-8.45,1785111040653.2512
0.053,-0.986,0.194,-15.78,-4.91,-8.27,1785111040663.271
0.043,-0.985,0.194,-20.08,-5.1,-8.06,1785111040673.7332
0.034,-0.974,0.186,-18.65,-4.79,-7.08,1785111040684.198
0.023,-0.976,0.183,-12.91,-5.22,-6.38,1785111040697.46
0.012,-0.961,0.169,-7.87,-5.77,-5.89,1785111040703.244
0.008,-0.968,0.172,-4.88,-6.1,-5.49,1785111040713.179
0.001,-0.986,0.177,-5.1,-6.56,-5.98,1785111040723.5781
0.002,-1.0,0.174,-3.54,-6.16,-5.58,1785111040733.9731
0.004,-1.005,0.161,1.13,-5.43,-4.67,1785111040744.261
-0.005,-1.001,0.15,3.17,-5.25,-4.64,1785111040757.622
-0.007,-0.999,0.148,1.68,-4.61,-4.09,1785111040763.373
-0.005,-1.006,0.158,0.37,-3.51,-2.96,1785111040773.3052
-0.006,-1.003,0.166,-0.73,-2.87,-2.62,1785111040783.797
-0.002,-0.991,0.162,-1.65,-2.44,-2.26,1785111040794.063
0.005,-0.987,0.151,-1.83,-2.2,-1.53,1785111040804.429
0.004,-0.988,0.157,-1.53,-1.92,-1.37,1785111040817.697
0.004,-0.986,0.168,-1.77,-2.11,-1.13,1785111040823.384
0.01,-0.988,0.176,-2.38,-2.23,-0.92,1785111040833.449
0.017,-0.991,0.178,-2.78,-2.35,-0.79,1785111040843.7122
0.022,-0.997,0.173,-2.17,-2.23,-0.03,1785111040854.118
0.021,-0.996,0.169,-1.13,-1.86,0.52,1785111040864.4978
0.019,-0.995,0.168,-0.82,-1.86,0.49,1785111040877.7512
0.012,-0.991,0.171,-2.38,-2.56,0.34,1785111040883.455
0.012,-0.99,0.177,-5.34,-4.33,-0.52,1785111040893.4028
0.025,-0.996,0.164,-9.31,-6.99,-1.89,1785111040903.478
0.043,-0.982,0.185,-13.52,-8.09,-3.17,1785111040914.078
0.047,-0.953,0.207,-17.06,-8.64,-3.05,1785111040927.541
0.047,-0.966,0.185,-23.99,-9.34,-2.5,1785111040933.602
0.047,-1.029,0.165,-36.81,-7.97,-3.02,1785111040943.476
0.046,-1.087,0.152,-50.42,-4.97,-4.7,1785111040953.6719
0.035,-1.118,0.12,-57.71,-3.3,-7.26,1785111040964.5132
0.027,-1.106,0.072,-58.29,-2.47,-10.13,1785111040977.689
0.03,-1.069,0.065,-56.18,-2.35,-11.9,1785111040983.687
0.048,-1.068,0.094,-53.8,-2.96,-13.37,1785111040993.891
0.066,-1.087,0.135,-52.55,-3.3,-15.81,1785111041004.39
0.073,-1.095,0.18,-49.47,-4.09,-17.4,1785111041017.698
0.073,-1.099,0.189,-42.91,-5.65,-18.62,1785111041023.614
0.074,-1.097,0.16,-34.58,-7.08,-19.87,1785111041033.877
0.077,-1.068,0.128,-24.75,-8.03,-19.87,1785111041044.449
0.083,-1.018,0.094,-13.37,-8.76,-17.91,1785111041057.6428
0.091,-0.971,0.071,-4.94,-9.83,-15.53,1785111041063.784
0.097,-0.952,0.041,-1.74,-10.07,-14.74,1785111041073.772
0.097,-0.96,0.038,0.67,-9.22,-14.86,1785111041084.248
0.078,-0.947,0.023,7.02,-8.03,-14.4,1785111041097.496
0.075,-0.929,0.018,13.79,-8.15,-12.27,1785111041103.201
0.073,-0.928,0.009,16.24,-8.21,-11.41,1785111041113.555
0.073,-0.941,0.011,14.95,-7.32,-10.41,1785111041130.2842
0.078,-0.946,0.022,9.52,-6.96,-8.3,1785111041134.287
0.089,-0.942,0.015,0.06,-6.56,-6.07,1785111041148.0698
0.09,-0.952,0.016,-7.35,-4.85,-4.67,1785111041153.265
0.084,-0.972,0.037,-8.36,-4.12,-3.2,1785111041163.5251
0.072,-0.985,0.049,-3.75,-4.06,-2.04,1785111041173.871
0.066,-0.992,0.04,1.56,-3.75,-0.52,1785111041184.345
0.062,-0.987,0.057,5.68,-3.63,0.82,1785111041197.2322
0.069,-1.001,0.067,5.25,-4.39,0.95,1785111041203.431
0.075,-1.028,0.059,1.83,-3.94,0.46,1785111041213.192
0.087,-1.033,0.068,-0.18,-2.96,1.65,1785111041223.5242
0.083,-1.041,0.046,1.19,-2.26,1.68,1785111041233.9468
0.073,-1.03,0.047,4.64,-1.07,1.77,1785111041244.355
0.072,-1.011,0.054,7.51,-1.16,1.89,1785111041257.632
0.079,-1.006,0.063,7.78,-0.85,1.43,1785111041262.845
0.083,-0.992,0.077,6.56,-0.58,1.04,1785111041273.203
0.085,-0.988,0.086,6.65,-0.34,0.92,1785111041283.634
0.088,-0.988,0.09,7.02,-0.24,0.43,1785111041294.035
0.088,-0.988,0.09,7.05,-0.21,-0.4,1785111041304.133
0.087,-0.993,0.096,6.65,-0.06,-0.4,1785111041317.889
0.087,-1.001,0.101,6.38,0.49,-0.06,1785111041323.426
0.09,-1.004,0.103,7.66,1.1,-0.18,1785111041333.355
0.086,-1.006,0.101,8.64,1.34,-0.24,1785111041343.7542
0.088,-1.01,0.097,8.64,1.34,-0.24,1785111041354.0952
0.088,-0.999,0.1,8.76,1.83,-0.18,1785111041364.213
0.089,-0.993,0.102,8.27,2.38,0.12,1785111041377.6792
0.09,-1.007,0.115,6.23,2.87,-0.18,1785111041383.669
0.089,-1.016,0.125,3.6,3.14,-0.49,1785111041393.4011
0.086,-1.019,0.123,3.33,3.45,-0.27,1785111041403.8643
0.083,-1.005,0.115,5.49,3.78,0.55,1785111041414.263
0.084,-1.007,0.104,8.61,4.24,1.4,1785111041424.215
0.073,-1.005,0.092,10.28,4.64,0.7,1785111041437.909
0.071,-0.991,0.081,11.26,5.16,1.43,1785111041443.72
0.072,-1.002,0.066,12.27,6.01,1.98,1785111041453.9678
0.062,-1.012,0.063,11.02,6.96,0.7,1785111041464.285
0.06,-1.019,0.068,9.37,7.87,0.12,1785111041474.529
0.061,-1.029,0.077,9.34,8.88,-0.15,1785111041488.066
0.049,-1.007,0.083,12.18,10.44,-0.21,1785111041493.7908
0.045,-0.976,0.099,14.44,10.44,2.01,1785111041503.9011
0.049,-0.971,0.113,9.67,9.19,2.99,1785111041514.39
0.052,-0.995,0.121,0.43,8.55,1.86,1785111041527.5828
0.058,-1.017,0.134,-5.98,7.84,1.56,1785111041533.3818
0.057,-1.028,0.141,-5.43,6.93,1.98,1785111041543.134
0.055,-1.013,0.142,-1.5,5.58,2.53,1785111041556.566
0.062,-0.985,0.14,1.65,4.24,3.27,1785111041565.2
0.07,-0.966,0.137,3.3,3.11,4.3,1785111041574.024
0.074,-0.975,0.133,2.23,1.74,4.58,1785111041595.474
0.068,-0.975,0.125,-0.79,1.01,4.58,1785111041596.684
0.073,-0.983,0.128,-1.98,0.7,5.83,1785111041602.792
0.075,-1.005,0.13,-1.13,-0.12,6.13,1785111041614.934
0.077,-1.009,0.125,0.12,-0.76,6.13,1785111041623.6028
0.082,-1.002,0.112,2.29,-0.98,6.62,1785111041633.996
0.082,-0.989,0.104,4.0,-0.58,7.35,1785111041647.9712
0.083,-0.974,0.095,3.94,-0.09,7.93,1785111041652.558
0.078,-0.965,0.102,3.14,1.01,8.09,1785111041662.854
0.072,-0.971,0.12,0.18,0.95,7.69,1785111041673.237
0.075,-0.987,0.147,-3.14,0.79,7.23,1785111041683.621
0.079,-1.0,0.153,-2.32,0.27,6.99,1785111041693.9832
0.078,-1.005,0.138,1.43,-0.09,6.47,1785111041707.21
0.076,-1.014,0.131,4.76,-0.21,6.23,1785111041712.68
0.069,-1.036,0.119,6.78,-0.79,5.58,1785111041722.956
0.06,-1.023,0.118,5.62,-0.43,5.28,1785111041733.3398
0.066,-1.026,0.118,3.97,-0.06,5.83,1785111041743.674
0.063,-1.036,0.11,2.2,-0.34,5.07,1785111041754.066
0.06,-1.027,0.103,1.43,-0.37,4.88,1785111041767.3652
0.057,-1.037,0.098,4.27,-0.46,5.07,1785111041772.754
0.043,-1.042,0.098,5.74,-0.92,4.15,1785111041783.072
0.038,-1.035,0.104,4.55,-1.65,3.42,1785111041793.454
0.046,-1.033,0.109,3.72,-2.41,3.51,1785111041803.8442
0.047,-1.03,0.107,3.63,-3.33,2.78,1785111041814.219
0.043,-1.02,0.104,2.66,-4.24,2.14,1785111041827.4329
0.047,-1.011,0.106,1.13,-4.79,2.2,1785111041832.854
0.053,-1.006,0.108,1.01,-5.46,2.2,1785111041843.165
0.06,-1.007,0.109,1.74,-6.01,2.01,1785111041853.534
0.062,-1.0,0.109,2.08,-6.38,1.92,1785111041863.935
0.064,-0.991,0.106,2.01,-6.56,2.08,1785111041877.229
0.062,-0.984,0.111,0.76,-6.41,2.23,1785111041882.6099
0.067,-0.983,0.117,-0.92,-6.23,2.66,1785111041892.8972
0.069,-1.003,0.123,-1.46,-5.98,2.87,1785111041903.209
0.07,-1.015,0.131,-0.37,-5.62,2.59,1785111041913.6191
0.071,-1.021,0.127,4.0,-5.19,3.33,1785111041924.139
0.075,-1.021,0.114,9.0,-4.52,3.69,1785111041937.393
0.077,-0.998,0.102,11.26,-3.3,3.48,1785111041943.0762
0.082,-0.983,0.094,11.11,-2.26,2.87,1785111041953.234
0.08,-0.996,0.102,9.58,-1.13,1.5,1785111041963.5032
0.081,-1.012,0.118,8.55,0.09,1.43,1785111041973.9468
0.076,-1.013,0.134,9.4,0.52,1.28,1785111041984.662
0.07,-1.004,0.13,11.57,1.01,0.79,1785111041997.6553
0.068,-0.989,0.135,13.0,1.74,1.01,1785111042003.663
0.07,-0.998,0.135,12.45,1.77,0.89,1785111042013.5469
0.066,-1.017,0.143,11.14,1.89,-0.31,1785111042024.189
0.061,-1.042,0.146,12.45,2.08,-0.76,1785111042037.481
0.053,-1.051,0.146,16.48,2.04,-1.16,1785111042043.378
0.044,-1.036,0.153,19.87,1.65,-1.65,1785111042053.3928
0.046,-1.025,0.157,21.18,0.76,-1.71,1785111042063.8342
0.044,-1.025,0.161,20.36,0.4,-2.38,1785111042074.041
0.045,-1.015,0.179,15.23,-0.12,-3.17,1785111042087.777
0.046,-1.003,0.181,7.48,-1.16,-3.3,1785111042092.9202
0.049,-0.987,0.183,0.15,-2.04,-2.17,1785111042103.3062
0.05,-0.966,0.174,-6.1,-2.93,-1.56,1785111042113.698
0.05,-0.966,0.185,-9.19,-4.0,-1.56,1785111042124.058
0.047,-0.98,0.164,-9.16,-5.28,-1.71,1785111042134.479
0.042,-0.973,0.16,-4.46,-4.7,0.12,1785111042147.865
0.031,-0.956,0.153,-1.34,-5.58,1.65,1785111042153.2239
0.026,-0.943,0.167,-1.83,-6.13,2.44,1785111042163.3179
0.033,-0.966,0.189,-3.91,-7.66,3.81,1785111042173.513
0.035,-0.979,0.199,-6.13,-8.36,5.04,1785111042184.212
0.032,-0.959,0.204,-8.06,-8.94,7.57,1785111042194.386
0.027,-0.937,0.198,-9.03,-8.85,9.98,1785111042208.0068
0.028,-0.941,0.187,-9.52,-9.61,11.51,1785111042213.4631
0.033,-0.957,0.156,-10.13,-9.86,12.94,1785111042223.722
0.038,-0.943,0.107,-8.82,-8.45,15.47,1785111042234.224
0.034,-0.891,0.067,-4.91,-6.07,18.68,1785111042247.705
0.031,-0.884,0.032,-0.82,-4.39,21.58,1785111042253.3992
0.015,-0.941,0.02,1.31,-2.75,22.28,1785111042263.5278
-0.008,-0.985,0.069,0.09,-0.55,22.25,1785111042273.9468
-0.026,-1.008,0.12,0.21,1.13,22.25,1785111042284.1223
-0.032,-0.999,0.168,2.75,1.62,22.46,1785111042297.4028
-0.025,-1.008,0.199,5.65,0.24,22.06,1785111042303.497
-0.02,-1.038,0.214,5.4,-1.37,19.9,1785111042313.72
-0.017,-1.064,0.214,3.33,-2.08,17.49,1785111042324.0508
-0.01,-1.1,0.204,1.86,-2.01,16.45,1785111042334.478
-0.008,-1.131,0.193,0.24,-2.04,15.14,1785111042348.989
0.003,-1.132,0.182,0.34,-2.23,13.82,1785111042370.9053
0.008,-1.108,0.153,3.45,-2.5,11.93,1785111042371.5898
0.016,-1.094,0.112,7.32,-2.2,9.25,1785111042373.686
0.025,-1.071,0.095,8.42,-1.25,6.87,1785111042384.0608
0.027,-1.053,0.088,7.48,-0.18,5.1,1785111042397.378
0.024,-1.043,0.101,4.21,0.92,3.48,1785111042403.0059
0.024,-1.046,0.124,0.58,0.92,2.62,1785111042413.408
0.02,-1.055,0.141,-1.13,0.7,1.28,1785111042423.712
0.019,-1.043,0.164,-1.31,0.03,-0.49,1785111042434.087
0.022,-1.018,0.166,-0.15,-0.79,-0.85,1785111042444.4429
0.025,-1.011,0.151,0.43,-1.46,-1.46,1785111042457.721
0.02,-1.024,0.136,-1.1,-1.74,-3.6,1785111042463.6318
0.007,-1.04,0.132,-1.92,-1.53,-5.65,1785111042473.422
0.001,-1.032,0.118,-1.83,-0.64,-5.77,1785111042483.768
0.009,-1.013,0.103,-0.89,0.67,-4.94,1785111042494.168
0.004,-1.013,0.105,-0.49,1.16,-5.86,1785111042504.542
-0.007,-0.998,0.129,-0.52,1.77,-6.65,1785111042517.8618
-0.007,-0.984,0.14,1.1,2.35,-5.65,1785111042523.5588
-0.003,-0.988,0.145,3.45,2.78,-5.58,1785111042533.496
-0.005,-0.991,0.146,2.78,2.53,-7.08,1785111042543.859
