ax,ay,az,gx,gy,gz,timestamp_ms
0.206,-0.955,-0.047,12.24,2.9,1.01,1785110824362.6292
0.215,-0.959,0.008,9.83,1.86,0.34,1785110824362.962
0.227,-0.964,0.067,7.81,0.18,-0.85,1785110824363.281
0.247,-0.963,0.093,6.65,-1.31,-1.46,1785110824363.605
0.25,-0.967,0.06,6.96,-2.41,-1.86,1785110824363.931
0.241,-0.979,0.024,5.4,-2.93,-2.29,1785110824364.2603
0.243,-1.001,0.011,2.87,-3.08,-2.26,1785110824364.685
0.239,-1.04,0.003,2.9,-3.48,-2.93,1785110824365.021
0.226,-1.033,0.006,4.06,-3.36,-2.72,1785110824365.365
0.246,-1.003,0.011,4.97,-2.99,-0.79,1785110824365.6929
0.245,-0.991,0.023,4.97,-2.72,-0.64,1785110824366.0127
0.245,-0.991,0.047,5.13,-3.51,-0.92,1785110824366.325
0.253,-0.975,0.045,7.11,-4.49,-0.82,1785110824366.6401
0.255,-0.965,0.027,9.22,-4.73,-0.89,1785110824366.957
0.256,-0.97,0.033,8.82,-5.25,-1.74,1785110824367.2449
0.256,-0.993,0.054,7.23,-5.49,-2.41,1785110824367.5562
0.261,-1.024,0.047,7.2,-5.65,-3.23,1785110824367.865
0.265,-1.044,-0.006,7.75,-4.97,-4.09,1785110824368.156
0.245,-0.993,-0.073,6.01,-2.11,-2.62,1785110824368.4639
0.247,-0.938,-0.086,1.77,1.89,1.5,1785110824368.751
0.274,-0.982,-0.031,-3.33,2.62,0.27,1785110824369.036
0.243,-0.997,0.022,-6.07,2.87,-1.04,1785110824369.3208
0.222,-0.994,0.051,-2.87,3.36,1.92,1785110824369.607
0.226,-0.989,0.074,3.08,1.5,1.01,1785110824369.896
0.235,-0.972,0.07,7.93,-0.52,-0.64,1785110824370.1802
0.24,-0.951,0.044,9.09,-0.85,-0.85,1785110824370.464
0.236,-0.94,0.018,5.86,-0.61,-0.43,1785110824370.76
0.239,-0.957,-0.022,0.76,-0.18,0.34,1785110824371.042
0.214,-0.97,-0.023,-4.49,1.34,2.53,1785110824371.3223
0.23,-0.996,-0.008,-4.97,1.86,2.32,1785110824371.6072
0.212,-1.003,-0.034,-1.77,1.89,2.35,1785110824371.89
0.196,-0.999,-0.037,-2.2,2.66,3.54,1785110824372.1653
0.181,-0.974,-0.002,-4.91,3.05,4.76,1785110824372.4558
0.19,-0.977,0.013,-4.39,3.39,4.03,1785110824372.735
0.21,-0.977,-0.011,-2.53,3.91,1.77,1785110824373.0317
0.244,-0.977,-0.016,-4.0,3.81,1.19,1785110824373.3042
0.256,-0.982,0.025,-8.36,2.62,0.0,1785110824373.571
0.24,-1.0,0.061,-9.31,1.16,0.61,1785110824373.8408
0.241,-1.013,0.055,-6.93,-0.46,1.22,1785110824374.102
0.241,-1.01,0.032,-3.54,-1.37,1.95,1785110824374.371
0.249,-1.01,0.012,-0.12,-2.2,2.53,1785110824374.645
0.237,-1.02,-0.002,1.62,-2.41,2.96,1785110824374.925
0.213,-0.992,0.006,1.83,-1.59,3.72,1785110824375.1921
0.238,-0.972,0.015,1.98,-1.68,3.69,1785110824375.4949
0.253,-0.988,0.001,2.75,-1.53,2.23,1785110824375.805
0.223,-0.981,-0.017,2.56,-0.34,1.83,1785110824376.1147
0.215,-0.967,-0.021,0.49,0.31,1.71,1785110824376.3918
0.232,-0.966,-0.014,-2.29,0.98,1.16,1785110824376.6667
0.247,-0.981,-0.009,-4.15,1.43,0.79,1785110824376.93
0.26,-0.999,-0.0,-4.36,1.59,0.79,1785110824377.203
0.238,-1.014,-0.002,-2.04,1.77,0.7,1785110824377.474
0.222,-0.991,0.008,0.95,1.68,1.71,1785110824377.738
0.241,-0.978,0.008,2.11,0.82,2.08,1785110824377.998
0.226,-0.979,0.008,1.71,1.07,2.14,1785110824378.263
0.208,-0.975,0.014,1.01,1.25,1.59,1785110824378.541
0.19,-0.965,0.011,1.62,1.4,1.1,1785110824378.792
0.223,-0.948,-0.004,4.0,1.13,0.52,1785110824379.0432
0.22,-0.957,-0.028,8.36,1.16,-1.34,1785110824379.2961
0.194,-0.968,-0.02,10.32,0.61,-3.75,1785110824379.5461
0.2,-0.976,0.016,5.43,-0.76,-4.49,1785110824379.8062
0.206,-0.994,0.084,-3.66,-1.1,-3.63,1785110824380.058
0.229,-1.012,0.104,-6.01,-0.76,-1.95,1785110824380.3079
0.243,-1.009,0.064,0.76,-0.18,-0.82,1785110824380.565
0.247,-1.016,0.023,8.27,-1.16,-1.83,1785110824380.8179
0.25,-1.01,0.009,10.22,-1.1,-2.04,1785110824381.0718
0.241,-1.016,0.009,12.18,0.06,-0.98,1785110824381.32
0.241,-1.016,0.009,13.67,0.49,-0.58,1785110824381.571
0.237,-1.005,0.014,13.52,0.79,-0.34,1785110824381.8271
0.25,-0.994,0.017,11.32,1.68,0.09,1785110824382.077
0.252,-0.981,0.014,9.22,2.59,0.18,1785110824382.333
0.245,-0.989,0.017,7.45,2.81,0.43,1785110824382.5833
0.238,-0.988,0.026,7.45,2.81,0.43,1785110824382.832
0.25,-0.97,0.032,6.01,2.99,1.95,1785110824383.082
0.246,-0.964,0.037,4.46,2.72,2.11,1785110824383.338
0.225,-0.971,0.041,3.63,2.44,2.11,1785110824383.5918
0.228,-0.985,0.04,4.55,1.92,2.23,1785110824383.838
0.229,-0.984,0.032,5.28,1.28,2.08,1785110824384.1018
0.231,-0.977,0.036,4.39,1.04,2.44,1785110824384.3572
0.233,-0.977,0.042,2.87,0.79,2.78,1785110824384.6028
0.227,-0.971,0.049,1.68,0.49,3.6,1785110824384.855
0.228,-0.974,0.04,1.22,0.09,3.69,1785110824385.1143
0.227,-0.987,0.032,0.43,-0.18,3.02,1785110824385.3782
0.229,-1.002,0.039,-1.25,-0.18,2.53,1785110824385.626
0.235,-1.015,0.041,-2.84,-0.7,2.44,1785110824385.8691
0.221,-1.009,0.028,-3.51,-0.09,2.75,1785110824386.113
0.22,-1.005,0.03,-3.42,0.15,2.41,1785110824386.361
0.235,-1.007,0.033,-2.84,0.06,1.92,1785110824386.605
0.235,-0.995,0.027,-2.04,0.43,2.93,1785110824386.844
0.228,-0.987,0.031,-2.78,0.55,2.84,1785110824387.073
0.238,-0.995,0.042,-4.97,0.09,1.95,1785110824387.317
0.238,-1.002,0.054,-4.97,-0.4,1.46,1785110824387.5608
0.231,-1.003,0.058,-3.27,-1.5,1.4,1785110824387.8
0.229,-0.992,0.049,-2.96,-2.41,1.46,1785110824388.061
0.232,-0.98,0.048,-3.75,-2.9,1.83,1785110824388.305
0.232,-0.987,0.037,-3.42,-3.33,1.98,1785110824388.5498
0.224,-0.988,0.023,-3.23,-3.36,1.53,1785110824388.7832
0.222,-0.986,0.017,-3.3,-3.27,1.22,1785110824389.025
0.226,-0.993,0.012,-3.3,-2.96,0.95,1785110824389.266
0.225,-0.995,0.017,-3.88,-2.84,0.92,1785110824389.5
0.223,-0.99,0.014,-3.81,-2.26,1.4,1785110824389.7368
0.228,-0.982,0.011,-2.44,-1.71,1.89,1785110824389.976
0.228,-0.98,0.012,-0.58,-1.5,1.98,1785110824390.2158
0.219,-0.979,0.019,0.85,-1.28,1.86,1785110824390.46
0.22,-0.979,0.021,1.8,-1.31,1.56,1785110824390.702
0.216,-0.979,0.021,1.77,-1.37,1.19,1785110824390.944
0.213,-0.982,0.026,1.31,-1.19,0.92,1785110824391.177
0.221,-0.991,0.031,0.7,-1.53,0.49,1785110824391.4082
0.217,-0.996,0.032,-0.09,-1.43,0.61,1785110824391.639
0.204,-1.002,0.018,0.34,-0.61,0.92,1785110824391.868
0.201,-0.996,0.026,1.46,-0.89,1.01,1785110824392.102
0.209,-0.996,0.039,2.14,-1.25,1.13,1785110824392.3381
0.221,-1.009,0.039,3.88,-1.71,0.43,1785110824392.575
0.226,-1.013,0.016,5.25,-2.14,0.15,1785110824392.8071
0.22,-0.991,-0.003,4.27,-1.56,1.19,1785110824393.035
0.208,-0.982,0.009,1.5,-0.98,2.32,1785110824393.2642
0.212,-0.994,0.028,0.34,-1.01,2.38,1785110824393.4983
0.218,-0.994,0.035,1.62,-1.59,2.32,1785110824393.7212
0.224,-0.994,0.03,3.2,-2.23,1.98,1785110824393.949
0.229,-0.986,0.028,2.59,-2.62,1.8,1785110824394.166
0.217,-0.993,0.027,1.83,-2.14,2.23,1785110824394.4011
0.209,-1.005,0.026,2.38,-2.26,1.86,1785110824394.6309
0.212,-0.999,0.02,3.17,-2.08,2.04,1785110824394.87
0.214,-0.986,0.011,3.51,-1.92,2.41,1785110824395.103
0.23,-0.989,0.013,2.56,-1.8,2.59,1785110824395.342
0.236,-0.987,0.028,0.09,-2.01,2.66,1785110824395.5781
0.215,-0.99,0.042,-0.49,-1.34,3.33,1785110824395.8298
0.221,-0.998,0.029,1.53,-1.68,2.99,1785110824396.0771
0.211,-0.983,0.023,2.62,-1.86,2.9,1785110824396.2979
0.203,-0.978,0.027,2.32,-1.77,3.81,1785110824396.513
0.207,-0.977,0.027,2.5,-1.74,4.0,1785110824396.734
0.206,-0.976,0.018,2.53,-1.74,4.06,1785110824396.956
0.207,-0.978,0.03,0.52,-1.74,4.27,1785110824397.175
0.209,-0.988,0.047,-1.46,-2.17,3.88,1785110824397.3848
0.205,-0.988,0.044,-1.56,-2.41,3.69,1785110824397.619
0.213,-0.989,0.023,-2.26,-2.41,4.03,1785110824397.836
0.223,-0.996,0.01,-4.76,-1.83,4.64,1785110824398.071
0.218,-1.002,0.0,-7.84,-1.4,5.74,1785110824398.287
0.195,-0.984,0.003,-10.74,0.21,6.71,1785110824398.5212
0.195,-0.992,0.012,-12.36,1.25,5.58,1785110824398.735
0.218,-1.031,0.02,-11.54,1.13,3.27,1785110824398.953
0.206,-1.03,0.017,-8.85,1.1,2.38,1785110824399.1702
0.201,-1.004,0.031,-7.54,0.58,2.29,1785110824399.387
0.218,-1.011,0.047,-7.2,-0.27,2.04,1785110824399.5972
0.204,-1.001,0.058,-5.43,-0.49,1.74,1785110824399.817
0.214,-0.987,0.05,-2.38,-1.56,2.01,1785110824400.0352
0.204,-0.977,0.033,-1.34,-1.92,1.65,1785110824400.247
0.201,-0.972,0.019,-2.14,-1.59,1.19,1785110824400.46
0.204,-0.986,0.017,-2.72,-1.59,0.67,1785110824400.681
0.201,-0.993,0.016,-2.56,-1.34,-0.15,1785110824400.8909
0.206,-0.989,0.019,-2.04,-1.34,-0.52,1785110824401.105
0.206,-0.99,0.018,-2.5,-1.13,-0.92,1785110824401.3262
0.203,-0.986,0.016,-2.72,-0.24,-1.01,1785110824401.538
0.199,-0.973,0.01,-2.32,0.61,-0.58,1785110824401.76
0.189,-0.964,0.015,-0.95,1.16,-0.4,1785110824401.9739
0.189,-0.964,0.019,0.12,0.89,-0.58,1785110824402.19
0.189,-0.951,0.024,-0.46,1.13,0.18,1785110824402.3992
0.185,-0.943,0.026,-0.73,1.53,1.34,1785110824402.6182
0.169,-0.934,0.023,-0.12,1.77,1.95,1785110824402.83
0.161,-0.918,0.026,0.85,1.56,2.96,1785110824403.0562
0.149,-0.895,0.034,2.04,1.16,4.58,1785110824403.268
0.132,-0.873,0.039,3.66,0.58,6.44,1785110824403.479
0.114,-0.846,0.029,6.62,0.03,8.64,1785110824403.688
0.094,-0.826,0.018,9.7,-0.61,11.29,1785110824403.902
0.074,-0.819,0.009,12.09,-1.16,14.5,1785110824404.119
0.046,-0.824,-0.01,14.71,-1.28,18.34,1785110824404.3362
0.014,-0.822,-0.028,16.72,-0.76,23.62,1785110824404.542
0.001,-0.805,-0.036,19.84,0.67,30.49,1785110824404.759
-0.006,-0.802,-0.043,26.09,2.23,37.84,1785110824404.9712
-0.027,-0.8,-0.058,33.14,3.94,44.95,1785110824405.1787
-0.036,-0.78,-0.068,41.08,6.78,53.71,1785110824405.3992
-0.042,-0.787,-0.076,51.79,10.35,62.99,1785110824405.617
-0.059,-0.841,-0.078,64.21,14.59,70.25,1785110824405.8308
-0.091,-0.915,-0.052,79.93,18.83,75.32,1785110824406.039
-0.133,-1.097,0.057,132.02,25.67,85.7,1785110824406.486
-0.133,-1.257,0.155,168.28,28.44,86.95,1785110824406.697
-0.005,-0.98,0.232,-2.75,-7.81,2.11,1785110824407.0771
-0.01,-0.97,0.21,-0.18,-8.73,3.02,1785110824407.278
0.001,-0.962,0.192,0.89,-9.4,3.94,1785110824407.4812
0.006,-0.965,0.191,1.83,-9.77,4.64,1785110824409.3828
0.011,-0.974,0.186,3.42,-10.28,4.91,1785110824419.803
0.015,-0.968,0.171,5.28,-10.35,5.1,1785110824430.323
0.019,-0.959,0.145,5.8,-9.7,5.16,1785110824443.506
0.019,-0.966,0.135,3.33,-8.67,4.82,1785110824448.979
0.021,-0.974,0.146,0.12,-7.32,5.01,1785110824459.1812
0.026,-0.971,0.162,-1.46,-6.35,4.94,1785110824469.5781
0.041,-0.977,0.176,-0.85,-6.16,4.33,1785110824479.9832
0.054,-0.984,0.17,1.16,-6.16,3.23,1785110824490.438
0.059,-0.992,0.154,2.99,-5.37,2.23,1785110824503.602
0.064,-0.989,0.138,3.39,-4.18,2.84,1785110824509.0618
0.064,-1.02,0.143,5.01,-2.81,2.53,1785110824519.2927
0.053,-1.052,0.157,7.75,-2.62,0.43,1785110824529.6882
0.064,-1.06,0.168,10.01,-2.62,0.12,1785110824540.146
0.072,-1.058,0.168,11.05,-2.47,-0.49,1785110824550.674
0.055,-1.049,0.168,10.35,-1.65,-1.34,1785110824563.9382
0.032,-1.017,0.17,8.85,-0.09,-0.95,1785110824569.55
0.042,-0.991,0.167,6.01,0.52,-0.31,1785110824579.701
0.068,-0.998,0.163,1.37,0.76,-0.55,1785110824590.078
0.061,-1.021,0.175,-1.04,1.5,-2.04,1785110824600.553
0.037,-1.022,0.195,-0.52,1.37,-2.53,1785110824613.935
0.034,-1.009,0.212,0.98,0.73,-2.11,1785110824619.6501
0.037,-0.999,0.229,1.68,-0.43,-2.17,1785110824629.531
0.042,-0.986,0.245,2.04,-1.34,-2.01,1785110824639.9229
0.047,-0.987,0.239,2.75,-2.32,-2.29,1785110824650.316
0.038,-0.986,0.218,1.5,-2.62,-2.81,1785110824660.6929
0.032,-0.975,0.207,-1.62,-2.47,-2.44,1785110824673.989
0.036,-0.978,0.2,-4.88,-2.84,-1.95,1785110824679.703
0.036,-0.97,0.201,-8.18,-2.78,-1.31,1785110824689.748
0.039,-0.972,0.205,-10.01,-2.9,-0.55,1785110824700.164
0.04,-0.974,0.219,-11.11,-3.48,0.06,1785110824710.5588
0.044,-0.978,0.235,-11.05,-4.03,0.67,1785110824723.832
0.058,-0.98,0.232,-8.58,-4.88,0.79,1785110824729.6152
0.064,-0.98,0.204,-5.37,-5.25,1.5,1785110824739.594
0.054,-0.982,0.19,-4.09,-5.04,2.11,1785110824749.9468
0.065,-0.985,0.173,-3.42,-4.97,2.56,1785110824760.315
0.067,-0.979,0.142,-0.85,-5.01,2.23,1785110824771.58
0.069,-0.973,0.124,0.34,-4.7,2.26,1785110824784.024
0.077,-0.965,0.138,-0.7,-3.45,2.69,1785110824789.694
0.079,-0.962,0.179,-0.52,-3.6,3.08,1785110824799.687
0.068,-0.972,0.222,-2.44,-4.55,2.62,1785110824810.0413
0.064,-1.002,0.25,-3.72,-4.09,1.01,1785110824820.4082
0.079,-1.03,0.24,0.55,-4.15,-0.21,1785110824830.96
0.078,-1.027,0.189,6.93,-3.72,-1.01,1785110824844.085
0.08,-1.013,0.158,8.67,-2.96,-0.61,1785110824849.782
0.098,-1.023,0.161,3.75,-2.75,0.0,1785110824859.701
0.102,-1.047,0.173,-0.03,-2.62,-0.98,1785110824870.108
0.094,-1.033,0.19,-0.98,-2.72,-0.58,1785110824880.516
0.078,-1.019,0.217,-1.01,-2.99,1.04,1785110824890.885
0.074,-1.015,0.23,0.12,-4.3,0.24,1785110824903.958
0.088,-1.014,0.219,2.26,-5.65,-1.28,1785110824909.8618
0.089,-1.016,0.203,2.41,-6.2,-3.05,1785110824919.6028
0.104,-1.019,0.185,-2.47,-5.65,-3.81,1785110824930.1792
0.135,-1.04,0.177,-8.21,-3.69,-3.2,1785110824940.5862
0.153,-1.08,0.182,-11.05,-1.77,-2.29,1785110824953.836
0.135,-1.096,0.175,-10.71,0.31,-1.77,1785110824959.761
0.113,-1.076,0.183,-10.07,2.47,-1.01,1785110824969.804
0.103,-1.064,0.198,-10.68,3.23,-1.62,1785110824980.238
0.084,-1.036,0.22,-11.32,3.97,-2.44,1785110824990.753
0.056,-0.987,0.229,-10.99,4.49,-2.99,1785110825003.9958
0.024,-0.972,0.209,-10.32,5.16,-4.64,1785110825009.825
0.02,-1.003,0.179,-10.77,5.62,-8.27,1785110825019.907
0.016,-1.015,0.158,-9.83,6.53,-10.25,1785110825030.396
-0.004,-0.992,0.146,-7.2,7.02,-9.67,1785110825040.725
0.021,-0.976,0.142,-6.13,6.96,-9.77,1785110825053.9993
-0.007,-0.964,0.117,-4.27,8.12,-10.13,1785110825059.7708
-0.013,-0.952,0.097,-4.85,9.4,-10.44,1785110825069.8508
0.013,-0.957,0.1,-7.9,10.1,-11.11,1785110825080.4292
0.035,-0.975,0.111,-7.48,11.2,-11.02,1785110825093.663
0.067,-0.972,0.125,-4.7,11.23,-10.38,1785110825099.88
0.069,-0.964,0.136,-1.98,10.77,-9.67,1785110825109.7378
0.059,-0.946,0.128,0.73,11.23,-9.13,1785110825120.291
0.063,-0.938,0.108,2.84,11.75,-8.58,1785110825130.869
0.058,-0.941,0.108,3.02,12.12,-8.03,1785110825143.934
0.053,-0.946,0.124,2.29,12.42,-7.57,1785110825149.958
0.06,-0.959,0.142,3.33,12.39,-6.96,1785110825159.841
0.079,-0.97,0.156,5.37,11.69,-6.16,1785110825170.336
0.073,-0.98,0.168,7.51,10.71,-5.98,1785110825180.99
0.076,-0.971,0.173,8.97,10.35,-5.71,1785110825194.065
0.099,-0.96,0.177,9.25,9.98,-4.91,1785110825200.002
0.12,-0.959,0.191,8.73,9.34,-4.91,1785110825209.816
0.108,-0.95,0.206,8.15,9.22,-4.91,1785110825220.182
0.105,-0.953,0.225,8.21,9.52,-4.09,1785110825230.655
0.086,-0.951,0.231,7.23,9.49,-3.45,1785110825243.831
0.099,-0.996,0.207,6.5,10.71,-3.23,1785110825249.741
0.107,-1.013,0.188,6.16,11.17,-3.78,1785110825259.697
0.096,-1.029,0.171,11.87,12.91,-3.08,1785110825270.245
0.09,-1.039,0.183,20.69,12.57,-4.18,1785110825280.8708
0.09,-1.006,0.204,27.41,11.41,-4.64,1785110825294.0413
0.092,-0.997,0.208,29.76,10.65,-4.24,1785110825300.237
0.092,-0.998,0.232,26.64,10.68,-5.28,1785110825310.229
0.102,-0.989,0.232,22.49,9.46,-5.71,1785110825320.7131
0.107,-0.97,0.212,16.27,8.88,-6.01,1785110825334.005
0.096,-0.973,0.198,7.87,9.16,-7.23,1785110825339.768
0.11,-0.979,0.199,0.12,9.16,-5.92,1785110825350.042
0.117,-1.011,0.209,-5.28,8.82,-5.31,1785110825360.1091
0.11,-1.04,0.234,-7.87,8.39,-4.88,1785110825370.52
0.12,-1.041,0.246,-4.67,7.11,-3.66,1785110825380.83
0.138,-1.019,0.24,1.31,4.39,-2.96,1785110825394.0952
0.134,-0.989,0.234,5.8,2.62,-1.43,1785110825399.9539
0.162,-0.974,0.238,6.38,0.55,0.06,1785110825409.7622
0.167,-0.946,0.202,5.07,-1.04,1.71,1785110825420.1519
0.153,-0.925,0.176,0.95,-1.25,4.21,1785110825430.603
0.088,-0.899,0.157,-4.3,0.98,5.19,1785110825440.897
0.104,-0.851,0.151,-13.06,3.42,7.69,1785110825454.178
0.102,-0.784,0.147,-27.07,4.06,8.42,1785110825460.156
0.099,-0.742,0.13,-49.56,3.51,7.93,1785110825470.125
0.106,-0.813,0.129,-84.81,2.2,4.97,1785110825480.719
0.106,-0.813,0.129,-120.76,2.78,2.2,1785110825493.8638
0.052,-0.951,0.179,-140.66,2.84,2.78,1785110825499.999
0.036,-1.06,0.213,-139.53,0.73,2.23,1785110825510.019
0.093,-1.148,0.205,-122.53,-2.44,-1.37,1785110825520.587
0.106,-1.236,0.208,-97.63,-5.25,-2.84,1785110825533.866
0.065,-1.242,0.179,-97.63,-5.25,-2.84,1785110825539.714
0.104,-1.203,0.135,-73.79,-7.39,-3.36,1785110825549.768
0.141,-1.171,0.098,-52.77,-8.51,-5.46,1785110825560.2188
0.12,-1.138,0.067,-32.56,-9.13,-4.43,1785110825570.6921
0.102,-1.081,0.029,-14.01,-10.01,-4.76,1785110825584.069
0.078,-1.05,0.004,-1.59,-10.56,-5.52,1785110825590.034
0.086,-1.004,-0.006,7.51,-10.22,-3.51,1785110825600.01
0.089,-0.954,-0.014,13.52,-8.7,-2.75,1785110825610.4573
0.096,-0.958,0.003,15.32,-8.0,-2.81,1785110825620.914
0.094,-0.981,0.024,17.37,-7.26,-3.66,1785110825634.1929
0.089,-0.997,0.046,20.48,-6.84,-4.52,1785110825640.1228
0.085,-1.006,0.067,24.11,-6.71,-4.76,1785110825650.067
0.078,-1.009,0.066,27.65,-6.71,-4.94,1785110825660.58
0.057,-1.0,0.056,29.3,-5.13,-5.34,1785110825673.7878
0.055,-0.998,0.064,25.79,-3.94,-6.07,1785110825679.703
0.083,-1.011,0.073,19.78,-2.41,-6.96,1785110825689.761
0.11,-1.03,0.068,18.8,-0.37,-7.48,1785110825700.2292
0.117,-1.034,0.052,22.61,1.1,-7.6,1785110825710.6882
0.109,-1.035,0.053,26.98,2.47,-7.39,1785110825723.9238
0.104,-1.038,0.059,31.71,3.78,-6.65,1785110825729.855
0.103,-1.032,0.072,35.49,4.76,-5.98,1785110825739.859
0.103,-1.018,0.077,37.42,5.52,-5.52,1785110825750.324
0.099,-1.013,0.076,37.69,6.62,-4.7,1785110825760.7988
0.085,-0.986,0.068,36.44,8.24,-3.05,1785110825774.008
0.092,-0.944,0.058,32.14,9.22,-0.58,1785110825779.9749
0.116,-0.921,0.069,23.8,9.67,1.5,1785110825790.046
0.125,-0.925,0.092,14.62,10.22,2.32,1785110825800.587
0.122,-0.921,0.1,6.9,10.25,2.32,1785110825813.8618
0.114,-0.9,0.111,-1.92,10.1,3.54,1785110825819.723
0.095,-0.92,0.1,-11.54,10.35,4.39,1785110825829.8398
0.082,-0.951,0.069,-23.13,10.28,3.57,1785110825840.4858
0.089,-0.959,0.072,-39.34,9.67,1.95,1785110825850.845
0.094,-0.972,0.107,-57.8,8.94,1.83,1785110825864.094
0.119,-1.009,0.143,-74.59,8.36,3.3,1785110825869.954
0.15,-1.064,0.155,-85.33,7.75,3.2,1785110825880.011
0.125,-1.096,0.139,-86.95,7.75,2.59,1785110825890.528
0.114,-1.127,0.128,-80.75,6.96,3.57,1785110825903.5508
0.076,-1.135,0.115,-68.21,5.22,2.81,1785110825909.29
0.051,-1.113,0.146,-51.64,2.53,2.53,1785110825919.54
0.089,-1.117,0.144,-34.7,-1.92,0.95,1785110825930.2039
0.112,-1.094,0.142,-19.35,-4.33,1.46,1785110825940.704
0.106,-1.05,0.102,-4.24,-5.49,3.17,1785110825953.86
0.089,-0.98,0.053,6.62,-5.89,4.52,1785110825959.5461
0.091,-0.941,0.025,11.41,-6.35,5.71,1785110825969.7769
0.078,-0.943,0.013,10.77,-6.1,6.26,1785110825980.1338
0.063,-0.945,0.016,7.81,-4.79,7.02,1785110825990.5059
0.108,-0.957,0.017,4.39,-4.36,6.38,1785110826000.915
0.146,-0.957,0.027,0.49,-3.66,7.35,1785110826014.2778
0.095,-0.954,0.042,-1.65,-2.26,7.51,1785110826019.484
0.078,-0.992,0.025,-2.41,-2.26,6.13,1785110826029.794
0.086,-1.02,0.012,-3.66,-1.92,4.46,1785110826040.137
0.068,-1.016,0.041,-4.7,-1.13,4.61,1785110826050.538
0.056,-1.027,0.075,-4.21,-1.59,3.94,1785110826060.8928
0.063,-1.043,0.101,-1.16,-2.72,1.8,1785110826073.939
0.08,-1.05,0.085,4.21,-3.42,0.61,1785110826079.899
0.064,-1.028,0.036,8.85,-2.35,0.82,1785110826089.861
0.055,-1.006,0.012,10.74,-1.37,1.68,1785110826100.3772
0.049,-1.003,0.017,11.05,-0.79,1.92,1785110826110.855
0.06,-1.004,0.026,11.63,-0.37,1.83,1785110826124.042
0.064,-1.006,0.05,12.24,-0.18,1.5,1785110826129.964
0.052,-1.008,0.075,14.22,-0.18,1.4,1785110826139.977
0.055,-1.021,0.087,18.65,-1.25,1.04,1785110826150.443
0.055,-1.032,0.074,24.57,-2.56,0.7,1785110826160.97
0.051,-1.029,0.052,29.45,-3.05,0.37,1785110826174.198
0.047,-1.016,0.032,31.04,-2.9,0.76,1785110826179.761
0.054,-0.981,0.022,27.47,-2.56,1.53,1785110826189.995
0.065,-0.976,0.013,21.88,-1.68,2.01,1785110826200.587
0.063,-0.995,0.016,15.53,-0.79,1.04,1785110826213.9841
0.062,-0.997,0.041,9.61,-0.4,0.15,1785110826219.6128
0.069,-1.001,0.074,7.14,-0.76,-0.24,1785110826229.575
0.073,-1.02,0.094,8.55,-1.92,-1.5,1785110826239.9841
0.066,-1.043,0.102,11.23,-3.05,-3.36,1785110826250.5012
0.071,-1.046,0.1,13.06,-3.72,-5.28,1785110826260.907
0.081,-1.058,0.09,15.11,-3.6,-6.68,1785110826274.203
0.092,-1.067,0.076,18.8,-3.2,-7.87,1785110826280.074
0.113,-1.069,0.059,23.04,-3.05,-9.0,1785110826290.139
0.105,-1.028,0.042,24.57,-1.68,-9.31,1785110826300.759
0.096,-0.978,0.035,22.61,0.67,-7.78,1785110826313.9993
0.114,-0.963,0.032,17.24,2.17,-7.75,1785110826319.5469
0.127,-0.956,0.049,9.22,3.6,-6.84,1785110826329.74
0.12,-0.972,0.076,2.01,4.91,-6.16,1785110826340.051
0.118,-0.989,0.099,-2.41,5.46,-5.89,1785110826350.442
0.117,-0.989,0.118,-3.17,5.16,-5.62,1785110826360.82
0.116,-0.99,0.124,-1.31,4.46,-5.68,1785110826374.0598
0.124,-0.991,0.11,1.34,3.42,-5.25,1785110826379.7961
0.117,-0.986,0.115,2.2,2.53,-4.97,1785110826389.7632
0.097,-0.97,0.123,2.29,1.83,-4.67,1785110826400.117
0.112,-0.972,0.114,1.53,0.09,-4.03,1785110826410.517
0.132,-0.985,0.095,-3.42,-1.01,-4.61,1785110826420.887
0.121,-1.004,0.089,-10.01,-0.7,-3.33,1785110826434.2668
0.095,-1.017,0.104,-13.86,-0.37,-2.96,1785110826440.0671
0.104,-1.023,0.1,-13.12,-1.34,-3.81,1785110826450.107
0.101,-1.008,0.098,-9.61,-2.41,-4.49,1785110826460.4348
0.12,-1.001,0.109,-6.99,-4.24,-4.85,1785110826470.8281
0.104,-0.997,0.11,-8.21,-4.43,-4.79,1785110826484.105
0.111,-0.993,0.1,-9.52,-4.67,-4.21,1785110826489.7402
0.12,-0.983,0.086,-9.52,-5.19,-4.46,1785110826499.784
0.113,-0.975,0.08,-11.51,-5.07,-3.69,1785110826510.299
0.099,-0.98,0.083,-15.17,-4.33,-3.45,1785110826520.7031
0.106,-0.998,0.086,-17.18,-3.6,-3.66,1785110826534.132
0.132,-1.015,0.078,-15.02,-3.66,-3.39,1785110826539.9011
0.113,-0.995,0.06,-9.09,-2.72,-2.2,1785110826549.7898
0.11,-0.981,0.051,-3.36,-2.5,-1.59,1785110826560.122
0.112,-0.991,0.061,-0.03,-2.66,-1.1,1785110826570.526
0.108,-0.984,0.068,3.57,-2.17,-0.27,1785110826581.066
0.103,-0.96,0.059,7.97,-1.95,-0.24,1785110826594.131
0.103,-0.941,0.037,10.5,-1.74,0.21,1785110826600.0981
0.101,-0.955,0.008,10.83,-0.52,0.21,1785110826610.016
0.102,-0.966,-0.002,10.32,1.22,-0.06,1785110826620.534
0.096,-0.957,-0.006,11.41,2.84,0.76,1785110826633.7432
0.094,-0.934,-0.003,12.73,4.67,2.14,1785110826639.6533
0.102,-0.946,0.02,13.82,5.68,3.14,1785110826649.7112
0.087,-0.97,0.048,17.7,6.65,3.72,1785110826660.126
0.075,-0.995,0.06,26.95,7.2,4.03,1785110826670.5989
0.078,-1.021,0.068,38.0,6.5,3.2,1785110826683.831
0.096,-1.049,0.078,49.04,6.5,2.2,1785110826689.73
0.118,-1.073,0.1,59.79,7.23,0.82,1785110826699.775
0.118,-1.071,0.128,68.39,6.96,0.15,1785110826710.31
0.129,-1.075,0.143,73.55,7.39,1.65,1785110826720.744
0.138,-1.07,0.153,75.2,8.85,0.95,1785110826733.946
0.144,-1.07,0.174,73.55,9.7,1.22,1785110826739.857
0.143,-1.058,0.2,68.82,10.13,1.37,1785110826749.9832
0.122,-1.025,0.234,62.96,9.92,0.4,1785110826760.4338
0.122,-1.025,0.234,53.8,8.51,0.89,1785110826770.9119
0.117,-0.987,0.275,41.69,6.2,-0.03,1785110826785.2878
0.133,-0.95,0.301,30.34,3.81,-1.5,1785110826790.14
0.15,-0.937,0.311,19.87,0.98,-3.2,1785110826800.1963
0.146,-0.938,0.325,12.24,-0.95,-4.06,1785110826810.742
0.126,-0.956,0.303,12.24,-0.95,-4.06,1785110826823.73
0.112,-0.988,0.278,6.38,-1.89,-4.97,1785110826829.4348
0.11,-1.004,0.268,-0.31,-3.2,-6.23,1785110826839.6458
0.131,-1.02,0.262,-5.43,-3.78,-6.26,1785110826850.034
0.141,-1.034,0.26,-5.86,-3.6,-6.96,1785110826860.4001
0.146,-1.019,0.264,-3.69,-4.21,-6.9,1785110826870.784
0.137,-1.011,0.249,-0.46,-4.36,-6.81,1785110826884.068
0.126,-1.005,0.249,2.87,-3.91,-6.16,1785110826889.878
0.107,-0.972,0.251,7.39,-4.0,-5.22,1785110826899.793
0.119,-0.954,0.216,11.38,-4.06,-3.6,1785110826910.285
0.114,-0.95,0.167,13.55,-2.81,-3.57,1785110826920.591
0.095,-0.959,0.172,12.36,-2.2,-2.81,1785110826934.093
0.082,-0.958,0.189,8.0,-2.99,-1.8,1785110826939.782
0.09,-0.922,0.203,1.53,-2.84,0.12,1785110826949.857
0.087,-0.921,0.191,-5.8,-2.5,1.1,1785110826960.093
0.085,-0.92,0.188,-17.91,-2.62,2.32,1785110826970.557
0.098,-0.934,0.199,-31.53,-3.66,3.88,1785110826981.27
0.087,-0.95,0.206,-42.09,-3.63,4.21,1785110826994.26
0.096,-0.973,0.202,-49.9,-3.6,3.94,1785110826999.938
0.112,-1.001,0.18,-53.25,-4.15,3.57,1785110827010.189
0.101,-1.033,0.166,-52.28,-4.64,2.9,1785110827020.685
0.087,-1.049,0.152,-48.8,-5.1,1.83,1785110827033.938
0.074,-1.036,0.148,-42.79,-5.62,2.56,1785110827039.821
0.075,-1.027,0.157,-38.85,-6.71,3.3,1785110827049.8408
0.1,-1.041,0.184,-39.0,-8.24,2.99,1785110827060.279
0.128,-1.056,0.209,-38.88,-9.37,2.59,1785110827070.804
0.122,-1.056,0.196,-32.81,-8.7,2.08,1785110827084.1602
0.123,-1.049,0.154,-22.68,-8.85,1.28,1785110827090.005
0.096,-1.001,0.104,-12.27,-7.63,2.47,1785110827100.0042
0.096,-0.976,0.086,-6.1,-6.35,5.22,1785110827110.399
0.121,-0.987,0.08,-3.97,-5.55,4.12,1785110827120.7502
0.146,-0.989,0.087,-3.45,-4.0,2.41,1785110827134.136
0.153,-0.981,0.099,-1.34,-1.98,1.98,1785110827139.761
0.158,-0.969,0.119,2.23,-0.92,1.65,1785110827149.7368
0.156,-0.957,0.13,5.89,-0.76,1.19,1785110827160.054
0.146,-0.936,0.139,7.48,-0.61,2.01,1785110827170.462
0.137,-0.932,0.144,5.98,-0.73,3.39,1785110827180.9622
0.126,-0.955,0.146,1.56,-0.92,2.47,1785110827194.0151
0.111,-0.972,0.145,-3.72,-0.4,1.25,1785110827199.903
0.102,-0.981,0.135,-5.25,1.04,1.34,1785110827209.743
0.105,-0.985,0.118,-4.21,1.98,1.71,1785110827220.093
0.12,-0.981,0.098,-2.93,3.69,1.74,1785110827230.5378
0.126,-0.932,0.073,-6.07,8.67,2.29,1785110827240.8298
0.098,-0.843,0.046,-17.55,11.44,4.55,1785110827254.151
0.087,-0.752,0.027,-40.22,9.67,8.36,1785110827260.1018
0.1,-0.736,0.019,-66.65,10.01,10.99,1785110827270.3682
0.104,-0.785,0.02,-91.07,11.29,11.93,1785110827281.233
0.1,-0.853,0.047,-108.8,11.29,12.76,1785110827294.2358
0.084,-0.943,0.05,-114.02,10.44,13.31,1785110827300.4202
0.065,-0.997,0.04,-109.32,9.83,14.31,1785110827310.845
0.064,-1.015,0.021,-98.21,9.03,16.33,1785110827324.1128
