ax,ay,az,gx,gy,gz,timestamp_ms
-0.894,-0.276,-0.232,23.99,-3.08,-13.79,1785091972334.371
-0.877,-0.3,-0.233,22.19,-2.5,-13.73,1785091972351.231
-0.884,-0.302,-0.223,21.82,-2.99,-12.33,1785091972351.837
-0.883,-0.309,-0.225,21.82,-2.99,-12.33,1785091972352.344
-0.887,-0.316,-0.238,21.58,-3.69,-11.44,1785091972352.8599
-0.884,-0.313,-0.252,20.97,-4.39,-10.28,1785091972353.391
-0.877,-0.303,-0.26,19.56,-4.55,-9.46,1785091972353.905
-0.88,-0.292,-0.271,17.37,-4.73,-8.21,1785091972354.382
-0.867,-0.293,-0.273,15.5,-5.22,-7.02,1785091972354.806
-0.871,-0.279,-0.263,12.82,-5.13,-7.54,1785091972355.197
-0.876,-0.28,-0.259,9.58,-5.31,-7.14,1785091972355.582
-0.88,-0.29,-0.255,6.16,-5.37,-6.56,1785091972355.9712
-0.879,-0.298,-0.242,3.42,-5.28,-5.95,1785091972356.3599
-0.892,-0.304,-0.234,2.29,-5.37,-5.58,1785091972356.7441
-0.899,-0.31,-0.23,2.78,-6.07,-3.85,1785091972357.121
-0.897,-0.3,-0.226,3.6,-6.32,-2.47,1785091972357.507
-0.91,-0.284,-0.226,4.24,-5.86,-1.8,1785091972357.8958
-0.922,-0.293,-0.231,4.36,-6.26,1.01,1785091972358.282
-0.917,-0.293,-0.234,4.18,-6.29,2.84,1785091972358.6829
-0.91,-0.291,-0.238,3.6,-6.35,5.13,1785091972359.0789
-0.916,-0.286,-0.243,3.2,-5.07,5.58,1785091972359.487
-0.906,-0.308,-0.242,1.53,-4.97,9.0,1785091972359.885
-0.888,-0.318,-0.232,1.1,-4.27,10.93,1785091972360.301
-0.918,-0.318,-0.217,1.07,-3.91,13.0,1785091972360.6719
-0.901,-0.351,-0.211,2.87,-5.13,17.61,1785091972360.992
-0.897,-0.35,-0.203,4.73,-5.55,18.49,1785091972361.331
-0.914,-0.34,-0.204,7.26,-5.28,19.1,1785091972361.661
-0.928,-0.352,-0.209,9.16,-5.71,21.49,1785091972361.992
-0.924,-0.368,-0.21,10.56,-6.87,24.11,1785091972362.3108
-0.928,-0.367,-0.207,12.7,-7.32,25.06,1785091972362.6492
-0.917,-0.381,-0.211,16.14,-7.17,26.61,1785091972362.976
-0.909,-0.38,-0.211,18.28,-6.74,27.53,1785091972363.323
-0.907,-0.372,-0.201,18.59,-5.95,28.26,1785091972363.662
-0.907,-0.378,-0.205,17.33,-5.55,28.81,1785091972364.012
-0.91,-0.388,-0.202,14.83,-4.82,29.51,1785091972364.382
-0.917,-0.395,-0.193,12.63,-3.72,29.54,1785091972364.727
-0.92,-0.398,-0.189,10.62,-2.9,28.96,1785091972365.0972
-0.917,-0.403,-0.187,8.36,-2.59,28.08,1785091972365.444
-0.916,-0.402,-0.182,5.74,-2.32,27.22,1785091972365.773
-0.916,-0.399,-0.186,2.99,-2.04,26.46,1785091972366.0989
-0.922,-0.385,-0.193,-1.19,-2.59,24.93,1785091972366.436
-0.922,-0.365,-0.187,-7.51,-3.51,23.29,1785091972366.7588
-0.894,-0.382,-0.184,-11.23,-2.84,22.46,1785091972367.0808
-0.893,-0.393,-0.183,-13.89,-1.25,19.26,1785091972367.44
-0.908,-0.4,-0.171,-15.87,-0.73,15.9,1785091972367.79
-0.911,-0.415,-0.162,-14.83,-1.07,13.55,1785091972368.1338
-0.915,-0.428,-0.159,-11.93,-1.74,10.25,1785091972368.533
-0.916,-0.429,-0.154,-9.58,-2.41,6.84,1785091972368.9001
-0.92,-0.422,-0.157,-8.27,-3.02,3.3,1785091972369.196
-0.924,-0.414,-0.159,-6.41,-3.36,1.28,1785091972369.4739
-0.92,-0.408,-0.159,-4.46,-3.42,-0.27,1785091972369.756
-0.918,-0.403,-0.155,-2.62,-3.33,-2.84,1785091972370.041
-0.92,-0.398,-0.15,-0.73,-3.33,-5.8,1785091972370.317
-0.928,-0.393,-0.145,0.55,-3.66,-8.76,1785091972370.6108
-0.937,-0.382,-0.14,0.73,-4.36,-11.17,1785091972370.9
-0.937,-0.369,-0.139,0.4,-4.88,-12.73,1785091972371.181
-0.933,-0.358,-0.146,-0.49,-5.01,-13.7,1785091972371.462
-0.93,-0.35,-0.152,-2.23,-5.01,-14.53,1785091972371.7407
-0.928,-0.348,-0.151,-4.61,-5.31,-15.14,1785091972372.022
-0.926,-0.351,-0.153,-6.99,-5.92,-15.41,1785091972372.297
-0.916,-0.35,-0.153,-8.94,-6.38,-15.38,1785091972372.573
-0.914,-0.34,-0.153,-10.83,-6.87,-15.29,1785091972372.854
-0.907,-0.333,-0.153,-12.79,-7.57,-14.92,1785091972373.17
-0.899,-0.33,-0.15,-15.05,-8.15,-14.74,1785091972373.45
-0.896,-0.325,-0.143,-17.33,-8.94,-14.53,1785091972373.755
-0.892,-0.321,-0.141,-19.75,-9.77,-13.92,1785091972374.041
-0.889,-0.316,-0.143,-22.46,-10.53,-13.49,1785091972374.324
-0.892,-0.313,-0.149,-25.3,-11.14,-12.57,1785091972374.6187
-0.894,-0.313,-0.157,-28.66,-11.38,-11.35,1785091972374.9067
-0.897,-0.312,-0.161,-32.29,-11.54,-10.16,1785091972375.199
-0.896,-0.313,-0.166,-35.22,-11.47,-8.7,1785091972375.4758
-0.899,-0.317,-0.172,-37.54,-11.51,-7.48,1785091972375.7598
-0.902,-0.313,-0.179,-39.43,-11.23,-6.29,1785091972376.044
-0.905,-0.309,-0.18,-41.26,-10.74,-4.85,1785091972376.3188
-0.905,-0.303,-0.172,-43.64,-10.53,-3.23,1785091972376.5718
-0.903,-0.305,-0.164,-46.05,-10.32,-1.68,1785091972376.828
-0.909,-0.312,-0.161,-48.01,-9.98,-0.43,1785091972377.079
-0.913,-0.321,-0.163,-49.01,-9.61,0.49,1785091972377.331
-0.913,-0.327,-0.17,-48.86,-9.06,0.82,1785091972377.586
-0.915,-0.334,-0.18,-47.64,-8.15,1.19,1785091972377.8381
-0.911,-0.338,-0.186,-45.81,-7.23,1.22,1785091972378.0842
-0.915,-0.338,-0.19,-43.15,-6.71,0.79,1785091972378.337
-0.923,-0.337,-0.19,-39.89,-6.96,0.76,1785091972378.5989
-0.928,-0.333,-0.183,-36.81,-7.6,0.46,1785091972378.856
-0.933,-0.319,-0.176,-34.24,-8.27,-0.21,1785091972379.123
-0.924,-0.314,-0.18,-31.46,-8.76,-0.46,1785091972379.384
-0.916,-0.31,-0.187,-28.72,-8.42,-1.5,1785091972379.646
-0.916,-0.302,-0.191,-26.92,-7.93,-2.9,1785091972379.888
-0.913,-0.295,-0.193,-26.03,-7.54,-4.33,1785091972380.153
-0.916,-0.297,-0.195,-25.67,-6.93,-5.86,1785091972380.406
-0.916,-0.312,-0.196,-25.24,-6.13,-6.96,1785091972380.669
-0.915,-0.307,-0.196,-24.48,-5.62,-8.0,1785091972380.954
-0.915,-0.305,-0.199,-22.64,-4.58,-9.19,1785091972381.2107
-0.921,-0.305,-0.199,-21.42,-3.91,-10.44,1785091972381.47
-0.921,-0.305,-0.198,-19.96,-4.27,-10.5,1785091972381.715
-0.917,-0.306,-0.197,-17.85,-4.64,-10.5,1785091972381.9739
-0.913,-0.299,-0.2,-15.56,-4.58,-10.9,1785091972382.2278
-0.911,-0.288,-0.203,-14.19,-4.27,-11.69,1785091972382.457
-0.919,-0.276,-0.208,-14.34,-4.3,-12.18,1785091972382.704
-0.912,-0.282,-0.214,-15.2,-4.21,-11.47,1785091972382.9492
-0.908,-0.282,-0.21,-15.56,-3.81,-11.14,1785091972383.1948
-0.914,-0.275,-0.208,-15.35,-3.6,-11.11,1785091972383.426
-0.913,-0.277,-0.205,-15.32,-3.57,-10.13,1785091972383.6648
-0.911,-0.274,-0.199,-15.63,-3.2,-9.67,1785091972383.9019
-0.913,-0.269,-0.193,-15.84,-2.84,-8.91,1785091972384.1501
-0.913,-0.27,-0.19,-15.47,-2.72,-7.39,1785091972384.392
-0.912,-0.271,-0.188,-14.47,-2.41,-6.23,1785091972384.648
-0.914,-0.268,-0.193,-13.34,-1.92,-5.62,1785091972384.8809
-0.917,-0.272,-0.197,-11.96,-1.37,-4.61,1785091972385.1353
-0.922,-0.276,-0.195,-10.62,-0.55,-4.03,1785091972385.4038
-0.922,-0.281,-0.185,-8.91,0.58,-3.81,1785091972385.636
-0.922,-0.286,-0.174,-6.29,1.46,-3.08,1785091972385.8672
-0.919,-0.295,-0.167,-2.81,1.68,-1.74,1785091972386.104
-0.916,-0.298,-0.162,1.37,1.59,-0.49,1785091972386.3472
-0.918,-0.296,-0.163,5.8,1.53,0.31,1785091972386.58
-0.925,-0.288,-0.168,9.61,1.65,1.1,1785091972386.808
-0.926,-0.283,-0.176,11.54,1.31,2.2,1785091972387.0662
-0.923,-0.279,-0.181,12.15,0.85,2.87,1785091972387.3113
-0.924,-0.271,-0.183,11.72,0.73,2.93,1785091972387.5488
-0.934,-0.268,-0.183,10.77,0.49,3.45,1785091972387.7817
-0.933,-0.274,-0.184,9.31,-0.34,4.88,1785091972388.016
-0.927,-0.273,-0.18,7.45,-0.85,5.74,1785091972388.273
-0.924,-0.272,-0.179,5.71,-1.22,6.56,1785091972388.543
-0.921,-0.278,-0.18,3.57,-1.74,7.39,1785091972388.774
-0.926,-0.281,-0.176,1.04,-2.47,7.81,1785091972388.9978
-0.931,-0.286,-0.179,-1.19,-3.33,8.33,1785091972389.2468
-0.936,-0.286,-0.182,-3.69,-4.09,8.79,1785091972389.483
-0.936,-0.286,-0.182,-6.41,-4.67,9.09,1785091972389.717
-0.942,-0.285,-0.186,-9.0,-5.1,9.67,1785091972389.9463
-0.939,-0.288,-0.191,-11.32,-5.01,9.92,1785091972390.1628
-0.935,-0.287,-0.194,-13.21,-4.91,9.86,1785091972390.395
-0.931,-0.289,-0.19,-14.62,-4.97,9.89,1785091972390.608
-0.929,-0.295,-0.186,-14.62,-4.97,9.89,1785091972390.847
-0.927,-0.299,-0.181,-15.66,-5.25,10.13,1785091972391.0989
-0.915,-0.306,-0.177,-16.27,-5.52,10.25,1785091972391.3127
-0.914,-0.313,-0.18,-15.87,-5.28,9.83,1785091972391.5442
-0.916,-0.315,-0.18,-15.14,-5.25,9.49,1785091972391.766
-0.914,-0.309,-0.181,-14.5,-5.46,9.52,1785091972391.9812
-0.912,-0.305,-0.187,-13.86,-5.62,9.46,1785091972392.2078
-0.911,-0.301,-0.188,-13.7,-5.65,9.46,1785091972392.436
-0.911,-0.3,-0.183,-13.73,-5.52,9.46,1785091972392.66
-0.907,-0.302,-0.182,-13.09,-4.97,9.31,1785091972392.8772
-0.907,-0.311,-0.189,-12.39,-4.39,8.76,1785091972393.106
-0.91,-0.316,-0.189,-12.36,-4.0,8.58,1785091972393.333
-0.911,-0.313,-0.179,-11.72,-3.94,8.3,1785091972393.559
-0.909,-0.313,-0.178,-9.92,-3.85,7.42,1785091972393.7878
-0.907,-0.31,-0.181,-8.7,-3.48,6.38,1785091972394.013
-0.913,-0.305,-0.186,-8.24,-3.05,5.92,1785091972394.259
-0.913,-0.309,-0.192,-8.48,-2.81,6.07,1785091972394.495
-0.908,-0.311,-0.195,-9.06,-2.32,5.43,1785091972394.719
-0.91,-0.315,-0.198,-9.06,-1.4,4.49,1785091972394.9282
-0.913,-0.319,-0.194,-8.24,-0.7,3.63,1785091972395.1628
-0.905,-0.322,-0.186,-6.1,-0.03,2.78,1785091972395.3818
-0.899,-0.32,-0.182,-3.02,1.07,2.04,1785091972395.6008
-0.903,-0.314,-0.19,1.07,2.44,2.23,1785091972395.81
-0.918,-0.298,-0.197,5.04,2.87,3.57,1785091972396.0269
-0.914,-0.287,-0.203,7.08,2.38,4.67,1785091972396.235
-0.906,-0.292,-0.222,7.32,2.56,3.27,1785091972396.432
-0.917,-0.304,-0.23,6.44,3.48,0.82,1785091972396.639
-0.934,-0.308,-0.22,5.71,4.58,-0.7,1785091972396.8481
-0.932,-0.337,-0.169,5.65,3.69,-2.5,1785091972397.047
-0.902,-0.324,-0.154,2.53,0.92,-4.33,1785091972397.2612
-0.892,-0.306,-0.153,0.27,1.28,-3.42,1785091972397.472
-0.896,-0.322,-0.148,1.19,2.08,-1.25,1785091972397.6829
-0.901,-0.329,-0.15,2.93,1.53,-0.27,1785091972397.896
-0.91,-0.317,-0.154,6.2,1.31,-1.13,1785091972398.108
-0.917,-0.301,-0.157,8.91,0.49,-1.95,1785091972398.3303
-0.912,-0.281,-0.155,9.06,-0.61,-2.08,1785091972398.54
-0.91,-0.268,-0.16,7.9,-0.61,-2.01,1785091972398.746
-0.918,-0.271,-0.163,5.95,-0.09,-2.01,1785091972398.961
-0.927,-0.272,-0.167,2.62,-0.03,-1.68,1785091972399.159
-0.927,-0.271,-0.171,-1.28,0.12,-0.64,1785091972399.364
-0.926,-0.276,-0.175,-4.3,0.64,0.0,1785091972399.575
-0.932,-0.285,-0.175,-5.77,1.16,-0.09,1785091972399.81
-0.941,-0.309,-0.164,-4.76,0.34,-1.98,1785091972400.239
-0.938,-0.313,-0.164,-3.72,-0.64,-3.17,1785091972400.4368
-1.41,-0.671,-0.151,38.36,-10.22,-13.82,1785091972400.79
-1.554,-0.653,-0.129,64.61,-14.53,-21.27,1785091972401.002
-1.644,-0.593,-0.127,81.51,-13.25,-31.46,1785091972401.205
-1.726,-0.506,-0.205,88.32,-10.35,-45.66,1785091972401.406
-1.779,-0.447,-0.297,90.0,-7.84,-60.12,1785091972410.471
-1.776,-0.458,-0.367,95.28,-5.25,-76.08,1785091972420.9092
-1.725,-0.471,-0.409,100.53,-5.52,-95.25,1785091972434.149
-1.665,-0.443,-0.374,99.77,-7.66,-107.12,1785091972439.8909
-1.581,-0.411,-0.319,96.59,-10.9,-105.53,1785091972450.457
-1.475,-0.368,-0.298,88.38,-16.3,-94.52,1785091972461.0
-1.363,-0.303,-0.33,70.38,-21.24,-76.94,1785091972474.3481
-1.252,-0.266,-0.348,43.89,-24.29,-55.79,1785091972479.9429
-1.142,-0.276,-0.389,16.08,-27.38,-34.33,1785091972490.53
-1.023,-0.297,-0.453,-9.52,-30.61,-13.92,1785091972500.9448
-0.916,-0.322,-0.492,-30.79,-34.24,4.49,1785091972511.415
-0.916,-0.322,-0.492,-43.31,-38.33,21.73,1785091972524.717
-0.794,-0.396,-0.454,-44.07,-45.05,37.97,1785091972530.54
-0.667,-0.486,-0.367,-33.81,-55.02,54.51,1785091972540.982
-0.549,-0.552,-0.315,-15.26,-66.01,70.07,1785091972554.1738
-0.473,-0.625,-0.321,0.0,-77.27,82.71,1785091972560.227
-0.458,-0.682,-0.394,0.0,-77.27,82.71,1785091972570.2559
-0.485,-0.725,-0.502,6.74,-85.33,95.13,1785091972580.842
-0.555,-0.808,-0.591,8.82,-88.93,107.18,1785091972591.413
-0.595,-0.873,-0.635,7.87,-90.64,117.53,1785091972604.6138
-0.571,-0.89,-0.686,8.33,-90.0,125.31,1785091972610.5962
-0.476,-0.863,-0.694,12.73,-86.55,132.76,1785091972620.914
-0.333,-0.801,-0.645,20.29,-82.31,139.13,1785091972631.54
-0.223,-0.714,-0.615,26.8,-77.85,139.23,1785091972644.7869
-0.157,-0.634,-0.599,27.92,-71.84,136.08,1785091972650.7158
-0.15,-0.603,-0.572,20.14,-67.66,132.02,1785091972661.247
-0.212,-0.61,-0.58,5.71,-65.68,126.56,1785091972674.582
-0.308,-0.613,-0.619,-10.83,-64.18,122.17,1785091972680.3909
-0.362,-0.593,-0.698,-25.24,-62.35,120.73,1785091972690.95
-0.353,-0.551,-0.779,-36.9,-57.68,120.12,1785091972701.489
-0.334,-0.503,-0.779,-46.69,-51.33,119.91,1785091972714.742
-0.334,-0.5,-0.692,-49.81,-45.41,121.59,1785091972720.6677
-0.352,-0.529,-0.579,-46.6,-39.55,121.71,1785091972731.246
-0.387,-0.527,-0.457,-43.0,-35.58,118.96,1785091972744.512
-0.423,-0.523,-0.38,-38.58,-34.21,116.86,1785091972750.408
-0.461,-0.535,-0.364,-31.8,-34.15,114.26,1785091972760.9531
-0.511,-0.53,-0.391,-22.92,-34.88,110.57,1785091972771.554
-0.579,-0.508,-0.439,-12.82,-35.31,107.15,1785091972784.8342
-0.644,-0.454,-0.518,-3.39,-36.23,105.08,1785091972790.861
-0.686,-0.383,-0.618,2.9,-35.25,105.29,1785091972801.506
-0.734,-0.333,-0.676,4.21,-31.04,107.27,1785091972811.752
-0.783,-0.313,-0.664,-2.78,-25.61,109.29,1785091972825.007
-0.831,-0.325,-0.582,-15.23,-21.18,110.08,1785091972830.861
-0.869,-0.374,-0.471,-25.94,-18.65,110.02,1785091972841.367
-0.915,-0.428,-0.344,-30.95,-18.16,107.91,1785091972854.534
-0.943,-0.459,-0.261,-27.8,-18.62,104.53,1785091972860.481
-0.941,-0.5,-0.237,-16.45,-18.25,100.38,1785091972871.031
-0.936,-0.545,-0.276,0.79,-19.41,93.42,1785091972881.492
-0.933,-0.54,-0.343,19.38,-22.55,84.96,1785091972894.7048
-0.944,-0.491,-0.423,36.47,-24.99,76.36,1785091972900.586
-0.935,-0.426,-0.482,48.01,-24.66,69.61,1785091972910.912
-0.908,-0.356,-0.48,52.1,-22.4,63.66,1785091972921.4468
-0.887,-0.305,-0.447,51.58,-20.2,57.5,1785091972934.6821
-0.88,-0.269,-0.399,47.09,-19.01,50.66,1785091972940.601
-0.876,-0.237,-0.35,39.09,-19.07,44.07,1785091972950.8818
-0.861,-0.231,-0.331,29.66,-19.04,37.48,1785091972961.465
-0.861,-0.239,-0.334,17.46,-17.73,29.54,1785091972974.654
-0.863,-0.258,-0.327,3.17,-16.27,20.08,1785091972980.5652
-0.865,-0.275,-0.318,-9.4,-15.47,10.28,1785091972990.707
-0.866,-0.273,-0.305,-18.62,-15.23,2.38,1785091973001.145
-0.864,-0.267,-0.303,-24.78,-15.5,-2.84,1785091973011.646
-0.867,-0.256,-0.321,-29.02,-15.9,-5.62,1785091973024.873
-0.871,-0.238,-0.321,-32.81,-16.24,-6.38,1785091973030.698
-0.865,-0.241,-0.298,-35.4,-17.33,-7.05,1785091973040.8599
-0.858,-0.256,-0.277,-36.84,-19.14,-8.85,1785091973051.2869
-0.858,-0.269,-0.262,-37.66,-20.63,-11.17,1785091973064.545
-0.863,-0.266,-0.244,-38.82,-21.64,-12.88,1785091973070.4219
-0.872,-0.246,-0.227,-40.74,-22.34,-13.79,1785091973080.9211
-0.887,-0.243,-0.225,-43.21,-23.07,-14.62,1785091973091.365
-0.9,-0.238,-0.219,-47.73,-23.96,-16.48,1785091973104.552
-0.903,-0.232,-0.221,-52.64,-25.27,-17.82,1785091973110.4807
-0.916,-0.249,-0.233,-57.77,-27.77,-18.8,1785091973120.726
-0.935,-0.265,-0.257,-65.92,-31.53,-19.44,1785091973131.368
-0.91,-0.276,-0.283,-74.19,-32.38,-18.95,1785091973144.575
-0.9,-0.269,-0.288,-79.81,-30.98,-21.06,1785091973150.561
-0.912,-0.25,-0.26,-83.83,-31.01,-24.35,1785091973160.7627
-0.915,-0.224,-0.212,-86.18,-32.47,-24.84,1785091973171.298
-0.907,-0.188,-0.187,-88.14,-33.2,-22.4,1785091973184.5132
-0.894,-0.185,-0.191,-90.95,-32.11,-19.44,1785091973190.75
-0.901,-0.202,-0.194,-96.1,-30.55,-19.2,1785091973200.827
-0.911,-0.235,-0.187,-100.89,-29.3,-20.29,1785091973211.283
-0.918,-0.273,-0.17,-102.82,-28.05,-21.67,1785091973224.542
-0.923,-0.293,-0.163,-100.07,-27.5,-23.26,1785091973230.609
-0.925,-0.273,-0.165,-93.17,-27.25,-24.75,1785091973241.123
-0.921,-0.249,-0.188,-84.38,-27.1,-24.75,1785091973251.591
-0.925,-0.214,-0.211,-79.81,-26.95,-24.72,1785091973264.8267
-0.925,-0.195,-0.206,-79.1,-26.09,-23.8,1785091973270.7441
-0.927,-0.206,-0.196,-78.65,-24.6,-22.74,1785091973281.025
-0.941,-0.213,-0.197,-78.77,-23.53,-22.52,1785091973291.5818
-0.955,-0.217,-0.205,-79.56,-22.16,-22.71,1785091973304.7722
-0.968,-0.216,-0.22,-79.47,-19.93,-23.41,1785091973310.772
-0.98,-0.215,-0.229,-77.64,-17.09,-24.45,1785091973321.0261
-0.979,-0.233,-0.228,-74.34,-15.56,-26.22,1785091973331.6218
-0.975,-0.237,-0.222,-70.53,-14.62,-29.27,1785091973344.8079
-0.974,-0.233,-0.219,-65.22,-14.07,-31.89,1785091973350.7788
-0.976,-0.211,-0.23,-60.73,-14.13,-34.7,1785091973361.0142
-0.995,-0.212,-0.242,-59.76,-14.31,-37.23,1785091973371.5688
-0.987,-0.241,-0.242,-61.19,-13.98,-38.12,1785091973384.938
-1.002,-0.216,-0.244,-60.95,-13.92,-41.11,1785091973390.942
-1.009,-0.225,-0.243,-61.59,-13.64,-43.03,1785091973401.013
-1.013,-0.187,-0.241,-66.1,-14.19,-46.08,1785091973411.596
-1.023,-0.059,-0.281,-69.86,-14.16,-47.94,1785091973424.8792
-1.017,0.01,-0.39,-75.84,-12.18,-47.73,1785091973430.717
-1.004,0.02,-0.523,-97.26,-9.46,-48.55,1785091973440.999
-1.025,0.08,-0.516,-131.38,-2.26,-44.68,1785091973451.4822
-0.974,-0.058,-0.35,-162.11,1.53,-38.64,1785091973464.7031
-0.954,-0.378,-0.188,-170.38,-1.43,-43.82,1785091973470.676
-0.98,-0.595,-0.052,-149.97,-7.69,-47.09,1785091973480.926
-1.044,-0.57,-0.058,-103.27,-14.98,-44.59,1785091973491.597
-1.12,-0.394,-0.166,-64.61,-19.56,-44.47,1785091973504.8252
-1.116,-0.283,-0.276,-54.66,-20.63,-42.91,1785091973510.7808
-1.019,-0.243,-0.303,-66.9,-15.26,-44.77,1785091973521.0737
-0.946,-0.211,-0.263,-85.18,-3.48,-50.97,1785091973531.4849
-0.976,-0.264,-0.235,-105.96,3.97,-57.5,1785091973544.72
-0.996,-0.373,-0.182,-124.03,4.09,-56.4,1785091973550.626
-1.011,-0.462,-0.108,-124.12,5.92,-52.71,1785091973560.986
-0.894,-0.561,-0.092,-97.81,13.98,-47.46,1785091973571.468
-0.943,-0.52,-0.236,-78.95,16.24,-64.55,1785091973584.72
-1.045,-0.329,-0.281,-92.01,12.21,-81.27,1785091973590.7068
-1.054,-0.367,-0.265,-103.79,14.04,-77.49,1785091973601.006
-1.018,-0.533,-0.268,-105.08,19.17,-73.67,1785091973611.6792
-1.046,-0.561,-0.228,-101.9,21.79,-80.57,1785091973624.9849
-1.067,-0.551,-0.209,-90.98,21.09,-84.84,1785091973630.8657
-1.05,-0.555,-0.233,-79.23,19.32,-86.28,1785091973641.252
-1.032,-0.492,-0.273,-73.31,18.92,-88.84,1785091973654.301
-1.018,-0.413,-0.326,-73.73,21.36,-90.85,1785091973660.415
-1.03,-0.435,-0.368,-80.11,24.84,-93.6,1785091973670.6829
-1.047,-0.491,-0.372,-91.98,27.56,-98.82,1785091973681.199
-1.048,-0.53,-0.359,-101.87,30.21,-104.1,1785091973694.5002
-1.051,-0.571,-0.361,-104.1,34.0,-107.33,1785091973700.396
-1.051,-0.626,-0.39,-99.46,37.69,-108.98,1785091973711.29
-1.046,-0.661,-0.399,-90.67,41.38,-110.42,1785091973724.3818
-1.048,-0.673,-0.385,-77.94,44.34,-111.61,1785091973730.279
-1.048,-0.674,-0.381,-63.51,45.78,-112.09,1785091973740.9192
-1.038,-0.645,-0.371,-50.78,47.18,-112.16,1785091973751.512
-1.034,-0.594,-0.355,-42.09,49.9,-112.58,1785091973764.681
-1.022,-0.545,-0.341,-40.5,53.04,-113.56,1785091973770.622
-0.974,-0.567,-0.353,-41.9,56.79,-111.03,1785091973781.14
-0.931,-0.609,-0.394,-44.65,59.88,-111.42,1785091973794.366
-0.966,-0.563,-0.384,-50.6,59.82,-116.37,1785091973800.31
-0.966,-0.563,-0.384,-57.86,56.37,-116.64,1785091973810.8362
-1.027,-0.433,-0.345,-60.52,53.87,-106.88,1785091973821.496
-0.999,-0.368,-0.343,-61.19,54.72,-100.5,1785091973834.743
-0.945,-0.383,-0.388,-64.58,56.12,-102.57,1785091973840.7969
-0.929,-0.416,-0.429,-64.58,56.12,-102.57,1785091973851.21
-0.93,-0.474,-0.465,-69.03,54.96,-107.49,1785091973864.449
-0.926,-0.552,-0.494,-72.3,53.8,-111.61,1785091973870.355
-0.915,-0.621,-0.5,-71.44,54.2,-114.96,1785091973880.873
-0.915,-0.661,-0.508,-66.19,54.99,-117.44,1785091973891.5762
-0.924,-0.674,-0.51,-58.53,54.32,-116.95,1785091973904.753
-0.913,-0.683,-0.509,-48.16,52.64,-112.55,1785091973910.767
-0.893,-0.678,-0.537,-36.26,50.81,-107.39,1785091973921.2349
-0.891,-0.647,-0.562,-26.86,48.52,-103.12,1785091973934.4739
-0.87,-0.63,-0.572,-21.52,46.11,-100.53,1785091973940.4148
-0.829,-0.643,-0.57,-19.99,44.56,-100.22,1785091973950.939
-0.795,-0.661,-0.597,-22.4,43.98,-100.71,1785091973961.565
-0.779,-0.697,-0.668,-27.62,44.71,-99.52,1785091973974.835
-0.783,-0.723,-0.702,-38.33,46.97,-98.03,1785091973980.714
-0.78,-0.735,-0.684,-51.61,49.29,-97.14,1785091973991.036
-0.773,-0.765,-0.661,-60.0,51.94,-96.56,1785091974001.544
-0.767,-0.808,-0.647,-61.13,55.48,-97.38,1785091974014.813
-0.756,-0.847,-0.626,-54.35,59.51,-99.46,1785091974020.719
-0.746,-0.888,-0.614,-39.4,62.38,-102.11,1785091974031.137
-0.727,-0.898,-0.624,-21.88,64.39,-103.82,1785091974044.3672
-0.705,-0.883,-0.64,-5.92,65.58,-105.01,1785091974050.2888
-0.683,-0.869,-0.668,6.47,66.65,-107.21,1785091974060.655
-0.65,-0.851,-0.688,12.88,68.48,-110.6,1785091974071.316
-0.614,-0.867,-0.692,16.91,69.46,-115.79,1785091974084.503
-0.626,-0.867,-0.681,19.2,68.94,-120.73,1785091974090.4907
-0.628,-0.845,-0.639,23.74,68.24,-120.12,1785091974100.971
-0.585,-0.831,-0.614,32.14,65.95,-117.25,1785091974111.619
-0.53,-0.818,-0.634,36.93,63.6,-115.85,1785091974124.872
-0.497,-0.822,-0.666,33.54,62.2,-116.58,1785091974130.829
-0.481,-0.849,-0.672,21.97,61.31,-117.92,1785091974141.3118
-0.465,-0.874,-0.639,4.85,60.73,-119.91,1785091974154.598
-0.44,-0.889,-0.603,-10.99,60.98,-120.82,1785091974160.543
-0.414,-0.888,-0.57,-20.97,60.49,-119.05,1785091974170.96
-0.387,-0.869,-0.557,-25.33,57.77,-115.39,1785091974181.612
-0.355,-0.85,-0.583,-26.0,54.66,-111.64,1785091974194.96
-0.341,-0.843,-0.601,-26.89,53.22,-109.65,1785091974200.588
-0.335,-0.831,-0.598,-31.19,52.49,-107.7,1785091974211.1099
-0.326,-0.825,-0.586,-37.23,50.9,-105.23,1785091974224.717
-0.313,-0.822,-0.577,-42.6,49.44,-103.52,1785091974230.372
-0.288,-0.807,-0.575,-46.6,48.16,-101.66,1785091974241.101
-0.26,-0.789,-0.588,-48.86,47.21,-98.82,1785091974251.565
-0.22,-0.788,-0.632,-49.68,46.63,-95.0,1785091974264.801
-0.201,-0.786,-0.667,-51.94,46.91,-90.61,1785091974270.6821
-0.189,-0.784,-0.727,-55.85,48.13,-86.7,1785091974281.0083
-0.194,-0.77,-0.732,-61.86,51.48,-84.66,1785091974291.7122
-0.197,-0.711,-0.69,-69.37,55.12,-82.8,1785091974304.7942
-0.173,-0.642,-0.577,-72.45,58.23,-79.35,1785091974310.7788
-0.122,-0.642,-0.637,-64.27,59.21,-73.34,1785091974321.0361
-0.102,-0.625,-0.686,-54.26,62.53,-68.64,1785091974331.5762
-0.06,-0.567,-0.708,-49.35,66.5,-63.91,1785091974344.893
-0.034,-0.53,-0.732,-49.75,70.86,-58.35,1785091974350.783
-0.034,-0.535,-0.725,-55.3,75.26,-54.26,1785091974361.027
-0.052,-0.572,-0.718,-60.37,78.28,-52.03,1785091974371.5862
-0.063,-0.592,-0.722,-62.87,81.55,-48.37,1785091974384.803
-0.061,-0.588,-0.738,-63.66,85.63,-42.88,1785091974390.892
-0.04,-0.573,-0.787,-62.99,90.95,-37.45,1785091974401.002
-0.016,-0.563,-0.806,-61.71,97.08,-33.63,1785091974411.5781
-0.008,-0.55,-0.778,-60.21,102.02,-33.11,1785091974424.993
-0.006,-0.537,-0.76,-56.0,105.01,-34.97,1785091974430.775
0.006,-0.507,-0.787,-51.48,107.06,-35.49,1785091974441.345
0.031,-0.453,-0.789,-48.71,109.53,-33.75,1785091974454.499
0.048,-0.425,-0.745,-45.69,111.61,-31.19,1785091974460.491
0.055,-0.434,-0.724,-41.26,112.58,-29.24,1785091974470.984
0.053,-0.459,-0.714,-37.84,113.74,-29.24,1785091974481.681
0.037,-0.462,-0.706,-35.68,114.87,-30.24,1785091974494.874
0.052,-0.428,-0.715,-33.6,116.61,-29.42,1785091974500.834
0.081,-0.365,-0.743,-32.62,118.59,-26.22,1785091974511.3472
0.111,-0.323,-0.728,-33.6,121.07,-21.91,1785091974524.652
0.133,-0.324,-0.671,-33.45,122.1,-18.22,1785091974530.544
0.154,-0.334,-0.671,-30.37,120.82,-15.66,1785091974541.092
0.172,-0.322,-0.679,-32.14,120.03,-13.86,1785091974551.6711
0.186,-0.318,-0.673,-40.07,119.66,-12.36,1785091974564.918
0.198,-0.335,-0.659,-47.58,119.72,-11.35,1785091974570.8643
0.205,-0.337,-0.618,-51.88,120.09,-9.58,1785091974581.2722
0.205,-0.33,-0.608,-52.58,119.48,-6.59,1785091974594.546
0.224,-0.336,-0.633,-54.48,118.02,-3.17,1785091974600.4832
0.25,-0.333,-0.663,-60.79,117.28,-0.7,1785091974610.746
0.268,-0.328,-0.659,-69.46,117.77,1.53,1785091974621.3848
0.306,-0.302,-0.658,-75.93,117.37,5.4,1785091974634.563
0.346,-0.258,-0.634,-78.65,117.92,8.48,1785091974640.549
0.37,-0.236,-0.617,-80.2,117.4,10.53,1785091974650.856
0.389,-0.244,-0.612,-82.61,115.67,11.35,1785091974661.5342
0.383,-0.278,-0.645,-84.78,114.35,9.86,1785091974674.864
0.372,-0.319,-0.688,-86.98,115.27,9.16,1785091974680.6082
0.379,-0.334,-0.705,-91.74,117.83,10.68,1785091974691.104
0.388,-0.303,-0.676,-97.93,121.49,12.6,1785091974701.6409
0.401,-0.257,-0.584,-102.11,124.97,13.73,1785091974714.89
0.418,-0.246,-0.52,-97.78,125.52,13.28,1785091974720.864
0.438,-0.266,-0.521,-85.3,123.48,11.84,1785091974731.483
0.472,-0.289,-0.55,-69.83,120.61,11.75,1785091974744.719
0.528,-0.277,-0.616,-55.76,119.17,12.12,1785091974750.6099
0.522,-0.231,-0.611,-49.29,123.17,11.2,1785091974761.1948
0.486,-0.271,-0.598,-49.44,123.69,15.29,1785091974774.476
0.499,-0.31,-0.564,-54.11,122.78,18.89,1785091974780.323
0.495,-0.286,-0.517,-60.3,124.49,18.83,1785091974790.9683
0.493,-0.292,-0.479,-64.3,125.71,20.11,1785091974801.4897
0.522,-0.296,-0.413,-64.79,125.8,23.26,1785091974814.7468
0.564,-0.28,-0.361,-57.5,125.61,26.73,1785091974820.6877
0.603,-0.247,-0.326,-46.45,125.34,29.82,1785091974831.2322
0.631,-0.232,-0.317,-39.03,123.54,31.59,1785091974844.487
0.628,-0.257,-0.35,-38.58,121.31,32.32,1785091974850.397
0.599,-0.287,-0.389,-50.11,119.88,31.25,1785091974860.8909
0.581,-0.322,-0.406,-70.5,119.02,29.54,1785091974871.563
0.576,-0.351,-0.385,-90.37,118.81,29.27,1785091974884.8
0.591,-0.372,-0.309,-100.99,118.47,31.56,1785091974890.856
0.608,-0.394,-0.25,-96.96,116.76,34.49,1785091974901.341
0.616,-0.392,-0.245,-80.84,114.93,37.23,1785091974914.562
0.634,-0.345,-0.241,-62.84,113.83,39.43,1785091974920.485
0.66,-0.317,-0.258,-48.98,112.74,40.13,1785091974931.05
0.672,-0.328,-0.264,-46.11,111.94,39.22,1785091974941.702
0.668,-0.352,-0.238,-54.99,110.45,37.72,1785091974954.903
0.646,-0.371,-0.202,-69.12,108.46,36.81,1785091974960.835
0.634,-0.38,-0.17,-80.51,106.88,36.74,1785091974971.456
0.658,-0.393,-0.161,-85.7,105.14,37.93,1785091974984.6091
0.711,-0.392,-0.167,-86.86,103.58,39.64,1785091974990.592
0.748,-0.377,-0.154,-88.35,102.3,40.8,1785091975001.096
0.736,-0.359,-0.127,-90.12,100.59,41.35,1785091975014.3372
0.705,-0.362,-0.118,-89.54,98.64,43.03,1785091975020.225
0.678,-0.381,-0.102,-89.6,96.93,45.23,1785091975030.603
0.659,-0.382,-0.061,-92.81,95.4,46.39,1785091975041.181
0.651,-0.374,-0.037,-97.32,93.66,47.0,1785091975054.419
0.675,-0.383,-0.052,-100.8,91.74,47.52,1785091975060.373
0.722,-0.392,-0.052,-104.19,90.33,47.94,1785091975070.8052
0.752,-0.382,-0.033,-105.81,88.96,47.98,1785091975081.428
0.752,-0.382,-0.033,-102.24,87.53,48.86,1785091975094.723
0.762,-0.388,-0.023,-96.74,86.03,50.63,1785091975100.595
0.751,-0.392,-0.011,-91.56,83.71,52.77,1785091975110.9602
0.717,-0.385,0.007,-84.32,84.05,52.71,1785091975121.5269
0.683,-0.38,0.019,-82.31,81.55,54.81,1785091975134.7341
0.682,-0.38,0.008,-82.31,81.55,54.81,1785091975140.682
0.687,-0.378,-0.022,-84.14,80.45,58.05,1785091975150.957
0.734,-0.382,-0.043,-85.67,81.85,59.6,1785091975161.5059
0.784,-0.405,-0.053,-87.16,83.25,61.01,1785091975174.746
0.786,-0.438,-0.059,-88.53,84.38,62.78,1785091975182.127
0.713,-0.475,-0.054,-88.14,87.1,63.14,1785091975190.9531
0.624,-0.481,-0.017,-87.95,90.37,62.04,1785091975201.3262
0.53,-0.466,0.04,-92.2,89.66,63.88,1785091975214.8289
0.516,-0.421,0.076,-93.54,89.91,64.97,1785091975220.775
0.618,-0.395,0.056,-88.75,90.58,67.02,1785091975230.961
0.769,-0.395,0.053,-80.05,91.49,70.19,1785091975241.5637
0.841,-0.408,0.09,-69.37,90.12,72.82,1785091975254.74
0.814,-0.421,0.094,-57.65,87.25,75.5,1785091975260.71
0.743,-0.435,0.097,-48.71,84.6,78.28,1785091975270.989
0.642,-0.43,0.128,-46.97,81.18,79.53,1785091975281.5417
0.556,-0.434,0.164,-50.14,77.33,81.48,1785091975294.799
0.523,-0.457,0.174,-55.39,75.01,84.84,1785091975300.6877
0.582,-0.507,0.162,-57.77,75.17,88.53,1785091975311.015
0.635,-0.551,0.145,-56.25,76.57,88.78,1785091975321.524
0.646,-0.553,0.157,-47.85,84.63,81.42,1785091975334.757
0.688,-0.574,0.188,-42.85,82.52,86.49,1785091975340.752
0.67,-0.636,0.172,-47.7,71.29,102.54,1785091975351.0798
0.614,-0.605,0.183,-52.31,66.04,107.09,1785091975361.7
0.577,-0.578,0.21,-54.11,64.91,109.96,1785091975375.0012
0.553,-0.593,0.217,-58.2,63.57,110.02,1785091975380.918
0.516,-0.607,0.215,-66.59,61.22,106.66,1785091975391.441
0.492,-0.65,0.247,-74.1,58.75,109.01,1785091975404.6409
0.512,-0.711,0.241,-73.7,54.48,113.96,1785091975410.732
0.561,-0.736,0.19,-64.46,50.54,115.45,1785091975421.134
0.589,-0.711,0.158,-55.45,47.67,114.84,1785091975434.36
0.574,-0.677,0.145,-52.77,43.82,114.05,1785091975440.402
0.521,-0.693,0.144,-57.25,39.64,115.67,1785091975450.842
0.451,-0.75,0.176,-65.86,35.37,120.03,1785091975461.463
0.387,-0.807,0.203,-70.8,30.3,122.29,1785091975474.564
0.355,-0.831,0.183,-69.8,26.46,121.13,1785091975480.376
0.368,-0.832,0.11,-66.56,24.72,118.32,1785091975491.261
0.424,-0.849,0.072,-64.94,24.99,118.53,1785091975504.4602
0.454,-0.87,0.083,-64.27,24.23,121.95,1785091975510.386
0.446,-0.892,0.085,-60.95,22.46,125.64,1785091975520.944
0.414,-0.908,0.104,-57.62,20.63,128.15,1785091975531.55
0.359,-0.911,0.147,-56.73,17.7,129.4,1785091975544.847
0.283,-0.921,0.173,-58.11,12.67,129.86,1785091975550.621
0.222,-0.929,0.151,-62.56,6.65,130.8,1785091975561.1611
0.221,-0.921,0.079,-68.18,2.53,130.83,1785091975571.717
0.261,-0.925,-0.012,-71.96,1.1,127.51,1785091975584.928
0.275,-0.937,-0.057,-75.84,-0.24,123.75,1785091975590.9387
0.258,-0.949,-0.044,-76.69,-3.54,123.81,1785091975601.116
0.238,-0.959,-0.025,-72.18,-9.0,125.28,1785091975611.707
0.198,-0.944,0.02,-68.24,-13.31,124.61,1785091975624.9849
0.132,-0.922,0.096,-67.14,-16.97,124.15,1785091975630.846
0.037,-0.911,0.176,-66.99,-22.52,124.49,1785091975641.4841
-0.059,-0.902,0.164,-65.37,-31.43,124.55,1785091975654.664
-0.076,-0.912,0.047,-62.59,-39.46,124.76,1785091975660.6282
-0.048,-0.889,-0.084,-64.24,-43.58,120.58,1785091975671.1611
-0.037,-0.85,-0.19,-72.15,-44.68,115.97,1785091975684.39
-0.044,-0.834,-0.271,-84.54,-43.58,114.08,1785091975690.418
-0.075,-0.847,-0.268,-96.84,-39.95,114.51,1785091975700.8108
-0.126,-0.856,-0.188,-102.66,-38.88,116.86,1785091975711.562
-0.136,-0.904,-0.137,-96.74,-42.6,121.19,1785091975724.853
-0.119,-0.95,-0.124,-86.76,-47.21,125.03,1785091975730.736
-0.12,-0.97,-0.136,-76.54,-51.33,127.05,1785091975741.276
-0.149,-0.989,-0.18,-66.13,-55.64,127.9,1785091975754.496
-0.181,-0.995,-0.231,-57.77,-60.15,128.48,1785091975760.469
-0.204,-1.005,-0.28,-51.15,-64.15,128.39,1785091975770.988
-0.233,-1.014,-0.307,-47.09,-67.75,127.2,1785091975781.583
-0.276,-1.015,-0.31,-47.94,-71.54,125.31,1785091975795.9248
-0.329,-1.009,-0.322,-53.44,-74.98,123.78,1785091975800.8708
-0.378,-0.986,-0.352,-62.32,-76.6,122.32,1785091975811.357
-0.407,-0.959,-0.374,-71.17,-76.57,121.52,1785091975824.573
-0.392,-0.944,-0.401,-77.76,-77.27,121.65,1785091975830.4783
-0.363,-0.953,-0.45,-81.09,-78.95,120.09,1785091975841.1309
-0.357,-0.967,-0.491,-82.09,-79.99,117.07,1785091975851.641
-0.382,-0.995,-0.481,-80.94,-80.84,114.6,1785091975864.883
-0.447,-1.015,-0.406,-78.34,-83.71,112.92,1785091975870.873
-0.525,-1.034,-0.337,-72.27,-89.11,112.4,1785091975881.3923
-0.6,-1.04,-0.289,-63.42,-94.85,112.0,1785091975894.6782
-0.65,-1.022,-0.306,-54.9,-100.28,111.0,1785091975900.5361
-0.646,-0.97,-0.43,-47.85,-103.0,109.68,1785091975911.2583
-0.613,-0.908,-0.534,-43.64,-100.38,107.24,1785091975924.478
-0.586,-0.859,-0.597,-43.98,-97.38,103.4,1785091975930.413
-0.581,-0.832,-0.619,-48.52,-96.29,99.77,1785091975940.971
-0.591,-0.84,-0.579,-55.3,-96.53,97.87,1785091975951.4958
-0.629,-0.877,-0.488,-62.59,-99.0,97.2,1785091975964.681
-0.703,-0.922,-0.399,-67.54,-103.92,97.2,1785091975970.635
-0.774,-0.953,-0.399,-69.22,-110.11,98.3,1785091975981.1042
-0.801,-0.945,-0.506,-69.7,-112.8,99.46,1785091975994.355
-0.792,-0.891,-0.577,-71.72,-110.35,100.16,1785091976000.2717
-0.777,-0.838,-0.581,-75.2,-107.76,98.94,1785091976010.896
-0.781,-0.802,-0.548,-79.53,-108.25,94.76,1785091976021.5193
-0.795,-0.786,-0.481,-82.86,-110.78,89.69,1785091976034.7468
-0.81,-0.784,-0.39,-83.71,-114.35,85.12,1785091976040.681
-0.848,-0.773,-0.37,-82.55,-119.48,80.84,1785091976051.241
-0.876,-0.755,-0.477,-78.98,-123.26,79.56,1785091976064.491
-0.869,-0.76,-0.555,-74.98,-123.14,82.19,1785091976070.452
-0.874,-0.782,-0.587,-74.47,-124.39,81.79,1785091976080.927
-0.902,-0.805,-0.587,-75.9,-126.9,79.17,1785091976091.589
-0.919,-0.81,-0.53,-78.13,-128.27,76.39,1785091976104.844
-0.942,-0.809,-0.436,-80.36,-130.13,73.15,1785091976110.888
-0.967,-0.817,-0.358,-82.89,-135.23,70.22,1785091976121.324
-0.97,-0.801,-0.37,-84.66,-140.87,67.11,1785091976134.5798
-0.96,-0.74,-0.499,-84.08,-141.42,63.05,1785091976140.4648
-0.962,-0.672,-0.593,-82.06,-136.54,59.14,1785091976151.006
-0.968,-0.629,-0.611,-80.94,-132.18,53.68,1785091976161.654
-0.981,-0.624,-0.55,-80.36,-130.53,46.69,1785091976174.948
-0.987,-0.655,-0.442,-79.65,-131.44,40.41,1785091976180.8599
-0.989,-0.703,-0.32,-77.79,-134.65,35.4,1785091976191.3809
-0.994,-0.74,-0.229,-74.56,-140.32,32.11,1785091976204.6653
-0.997,-0.751,-0.261,-70.19,-146.73,31.22,1785091976210.1929
-0.997,-0.706,-0.434,-68.18,-149.69,31.25,1785091976221.1133
-1.0,-0.603,-0.666,-70.93,-146.15,30.06,1785091976231.7288
-1.006,-0.512,-0.777,-78.34,-136.63,26.22,1785091976244.948
-0.985,-0.48,-0.711,-90.64,-126.13,18.83,1785091976250.883
-0.964,-0.496,-0.543,-103.31,-119.33,9.4,1785091976261.443
-0.974,-0.537,-0.364,-109.74,-116.37,3.3,1785091976274.6848
-0.978,-0.594,-0.22,-108.01,-116.06,2.2,1785091976280.579
-0.98,-0.628,-0.154,-101.78,-118.35,2.93,1785091976291.1301
-1.009,-0.637,-0.181,-95.43,-122.1,4.06,1785091976301.6409
-1.068,-0.627,-0.292,-91.19,-127.93,6.87,1785091976314.89
-1.046,-0.591,-0.454,-90.43,-134.92,9.06,1785091976320.8342
-1.045,-0.489,-0.575,-95.68,-132.42,1.71,1785091976331.0918
-1.056,-0.38,-0.613,-108.04,-121.04,-13.46,1785091976344.382
-1.073,-0.314,-0.586,-129.92,-112.55,-26.89,1785091976350.28
-1.054,-0.323,-0.517,-156.96,-115.7,-26.34,1785091976361.1038
-1.054,-0.323,-0.517,-182.26,-127.96,-17.06,1785091976374.388
-0.967,-0.371,-0.5,-200.42,-120.79,-26.55,1785091976380.294
-0.978,-0.31,-0.459,-219.15,-115.94,-34.0,1785091976391.0972
-0.996,-0.263,-0.557,-252.39,-118.96,-35.95,1785091976404.302
-0.994,-0.327,-0.603,-284.31,-114.44,-48.16,1785091976410.324
-0.945,-0.295,-0.66,-284.31,-114.44,-48.16,1785091976421.182
-0.927,-0.092,-0.827,-322.06,-118.59,-66.19,1785091976431.814
-1.017,0.024,-0.805,-375.07,-124.52,-70.5,1785091976445.022
-0.965,-0.247,-0.637,-390.91,-102.73,-62.11,1785091976450.951
-0.9,-0.486,-0.519,-365.67,-76.02,-64.97,1785091976461.642
-0.933,-0.44,-0.398,-336.74,-60.79,-73.4,1785091976474.935
-0.941,-0.367,-0.292,-307.96,-51.27,-69.83,1785091976480.8582
-0.944,-0.42,-0.241,-283.12,-44.04,-56.4,1785091976491.336
-0.958,-0.49,-0.16,-261.76,-38.82,-44.62,1785091976504.5671
-0.946,-0.432,-0.113,-230.08,-34.36,-37.66,1785091976510.529
-0.929,-0.321,-0.121,-193.61,-28.32,-33.66,1785091976521.049
-0.927,-0.283,-0.129,-164.04,-21.09,-31.34,1785091976531.7178
-0.894,-0.29,-0.124,-138.52,-15.11,-28.78,1785091976544.9478
-0.885,-0.261,-0.133,-114.6,-11.47,-26.52,1785091976550.877
-0.895,-0.272,-0.138,-89.57,-8.45,-20.23,1785091976561.2202
-0.843,-0.29,-0.14,-61.1,-3.36,-10.99,1785091976571.6228
-0.86,-0.235,-0.184,-31.19,-2.29,-9.83,1785091976584.9019
-0.857,-0.214,-0.202,-7.32,0.03,-6.47,1785091976590.57
-0.845,-0.219,-0.197,8.67,5.07,-1.53,1785091976600.451
-0.838,-0.243,-0.168,20.11,10.28,2.56,1785091976610.8967
-0.834,-0.263,-0.13,30.61,13.28,6.68,1785091976621.355
-0.824,-0.266,-0.105,42.42,14.62,10.44,1785091976634.5752
-0.825,-0.266,-0.092,54.69,16.6,13.55,1785091976640.6191
-0.841,-0.263,-0.087,66.07,19.78,16.27,1785091976650.783
-0.861,-0.269,-0.088,75.11,22.49,20.51,1785091976661.346
-0.869,-0.286,-0.093,82.83,24.41,24.99,1785091976674.6152
-0.884,-0.29,-0.099,88.99,25.85,27.68,1785091976680.4841
-0.906,-0.29,-0.109,93.42,26.43,29.94,1785091976690.864
-0.915,-0.292,-0.115,97.42,26.58,32.62,1785091976701.3318
-0.916,-0.305,-0.122,101.87,26.61,34.7,1785091976714.592
-0.928,-0.309,-0.127,106.08,27.01,35.1,1785091976720.632
-0.941,-0.306,-0.132,109.9,26.95,35.31,1785091976731.1611
-0.948,-0.307,-0.143,113.13,25.36,36.38,1785091976741.79
-0.943,-0.304,-0.153,115.05,23.5,36.41,1785091976754.9639
-0.951,-0.294,-0.168,116.4,21.88,35.28,1785091976760.8718
-0.953,-0.29,-0.191,117.28,19.53,35.16,1785091976771.478
-0.945,-0.281,-0.218,117.34,16.72,34.55,1785091976784.637
-0.963,-0.259,-0.238,115.18,14.5,31.53,1785091976790.6958
-0.965,-0.253,-0.248,111.03,12.51,29.91,1785091976801.079
-0.957,-0.24,-0.26,105.56,11.23,26.8,1785091976814.345
-0.957,-0.22,-0.264,97.72,11.17,23.07,1785091976820.2468
-0.959,-0.226,-0.264,86.61,11.26,22.13,1785091976830.513
-0.938,-0.248,-0.255,73.03,12.02,21.7,1785091976841.016
-0.935,-0.249,-0.233,58.63,13.46,20.45,1785091976854.239
-0.93,-0.245,-0.222,44.34,13.86,20.17,1785091976860.016
-0.935,-0.247,-0.208,30.06,14.04,20.29,1785091976870.444
-0.928,-0.264,-0.194,17.0,14.04,21.45,1785091976881.076
-0.927,-0.276,-0.179,5.16,13.61,22.64,1785091976891.5032
-0.924,-0.276,-0.173,-4.76,12.79,24.32,1785091976904.736
-0.921,-0.292,-0.175,-11.47,11.93,27.41,1785091976910.546
-0.927,-0.315,-0.178,-14.56,11.29,29.97,1785091976921.07
-0.948,-0.343,-0.177,-14.22,9.7,33.45,1785091976931.5068
-0.879,-0.35,-0.181,-9.25,9.55,35.74,1785091976944.731
-0.976,-0.278,-0.168,-5.19,13.21,31.22,1785091976950.457
-0.933,-0.331,-0.163,-0.46,13.21,39.06,1785091976960.541
-0.913,-0.361,-0.145,4.76,12.3,42.54,1785091976971.0562
-0.918,-0.356,-0.142,13.49,11.08,42.82,1785091976981.637
-0.924,-0.336,-0.166,20.45,9.06,41.93,1785091976994.861
-0.927,-0.316,-0.162,22.68,8.24,41.96,1785091977000.653
-0.906,-0.335,-0.16,25.39,9.74,43.64,1785091977010.777
-0.915,-0.332,-0.153,27.22,11.47,43.24,1785091977021.425
-0.918,-0.336,-0.149,29.91,12.7,43.95,1785091977034.587
-0.913,-0.339,-0.153,32.29,13.15,43.98,1785091977040.709
-0.918,-0.327,-0.144,33.05,13.64,42.79,1785091977050.812
-0.922,-0.332,-0.138,33.57,14.04,42.21,1785091977061.418
-0.921,-0.344,-0.137,33.39,14.34,41.32,1785091977074.635
-0.922,-0.354,-0.131,33.39,14.25,39.92,1785091977080.4841
-0.928,-0.362,-0.128,35.34,14.37,38.36,1785091977090.816
-0.934,-0.369,-0.134,38.36,13.73,36.9,1785091977101.4011
-0.939,-0.36,-0.142,40.47,12.63,35.04,1785091977114.5698
-0.946,-0.352,-0.151,41.17,11.78,32.84,1785091977120.478
-0.954,-0.347,-0.158,40.07,11.23,30.58,1785091977130.788
-0.957,-0.344,-0.157,37.72,11.02,28.26,1785091977141.3918
-0.954,-0.342,-0.149,35.43,10.74,25.76,1785091977154.594
-0.949,-0.341,-0.146,33.66,10.19,23.44,1785091977160.5032
-0.946,-0.341,-0.146,31.86,9.49,20.84,1785091977170.708
-0.944,-0.343,-0.143,30.09,8.67,17.73,1785091977181.176
-0.94,-0.349,-0.144,28.44,8.0,14.5,1785091977191.704
-0.937,-0.353,-0.142,27.1,7.35,11.35,1785091977204.9338
-0.933,-0.355,-0.143,26.18,6.87,8.24,1785091977210.345
-0.93,-0.353,-0.143,26.03,6.32,5.52,1785091977220.73
-0.925,-0.345,-0.145,26.15,5.74,3.14,1785091977231.025
-0.919,-0.34,-0.146,26.28,5.1,1.07,1785091977241.459
-0.915,-0.334,-0.152,25.79,4.61,-1.13,1785091977254.6401
-0.913,-0.333,-0.156,24.32,4.18,-3.17,1785091977260.321
-0.91,-0.33,-0.158,22.52,3.75,-4.85,1785091977270.417
-0.909,-0.323,-0.161,20.66,3.2,-6.38,1785091977280.712
-0.905,-0.319,-0.162,18.4,2.9,-7.66,1785091977291.147
-0.906,-0.315,-0.162,15.93,2.56,-9.0,1785091977301.4631
-0.906,-0.313,-0.163,13.55,2.14,-10.35,1785091977314.733
-0.905,-0.31,-0.165,11.26,2.01,-11.6,1785091977320.632
-0.91,-0.31,-0.164,9.22,2.14,-12.79,1785091977330.579
-0.915,-0.312,-0.159,7.75,1.92,-13.55,1785091977340.977
