ax,ay,az,gx,gy,gz,timestamp_ms
-0.891,-0.396,-0.145,1.25,1.4,21.0,1785091871191.942
-0.888,-0.376,-0.151,1.62,0.98,19.47,1785091871192.4521
-0.881,-0.339,-0.162,-0.46,1.65,15.78,1785091871192.92
-0.98,-0.318,-0.155,-7.29,1.16,15.17,1785091871193.3281
-0.851,-0.418,-0.171,-10.38,-1.65,24.08,1785091871193.7402
-0.883,-0.361,-0.155,-12.12,0.15,16.08,1785091871194.1262
-0.913,-0.351,-0.163,-10.16,0.52,16.63,1785091871194.4731
-0.902,-0.406,-0.176,-8.51,-0.89,19.96,1785091871194.818
-0.886,-0.405,-0.179,-7.35,-2.38,19.01,1785091871195.1501
-0.893,-0.39,-0.183,-2.78,-1.71,16.02,1785091871195.478
-0.907,-0.401,-0.195,1.62,-1.89,15.87,1785091871195.817
-0.898,-0.401,-0.195,3.78,-3.08,15.29,1785091871196.157
-0.883,-0.408,-0.187,8.12,-2.66,15.66,1785091871196.48
-0.895,-0.399,-0.202,14.07,-2.26,14.19,1785091871196.8262
-0.907,-0.383,-0.21,17.21,-1.59,12.73,1785091871197.182
-0.914,-0.365,-0.212,18.04,-1.01,13.55,1785091871197.512
-0.882,-0.365,-0.22,18.34,0.4,15.5,1785091871197.8518
-0.89,-0.347,-0.22,16.72,2.26,12.36,1785091871198.2021
-0.889,-0.351,-0.217,14.74,4.15,10.99,1785091871198.55
-0.892,-0.361,-0.219,12.48,5.46,10.13,1785091871198.883
-0.903,-0.357,-0.215,8.7,6.65,8.79,1785091871199.2222
-0.898,-0.376,-0.209,6.68,7.84,9.95,1785091871199.562
-0.9,-0.394,-0.196,7.54,8.61,11.17,1785091871199.8953
-0.903,-0.397,-0.199,12.7,8.3,11.9,1785091871200.2349
-0.91,-0.377,-0.209,15.96,7.32,10.28,1785091871200.574
-0.904,-0.363,-0.209,16.24,7.17,9.61,1785091871200.908
-0.896,-0.354,-0.214,16.11,7.05,9.7,1785091871201.234
-0.893,-0.354,-0.212,14.89,6.84,9.95,1785091871201.5637
-0.891,-0.358,-0.209,13.03,6.23,9.25,1785091871201.897
-0.896,-0.358,-0.205,11.11,5.95,8.33,1785091871202.184
-0.896,-0.362,-0.203,9.74,5.46,7.93,1785091871202.476
-0.894,-0.363,-0.205,8.61,5.07,7.14,1785091871202.766
-0.898,-0.359,-0.203,7.11,4.94,6.44,1785091871203.052
-0.902,-0.36,-0.202,5.86,4.76,6.16,1785091871203.342
-0.906,-0.365,-0.207,5.46,4.39,6.07,1785091871203.631
-0.901,-0.377,-0.218,5.86,4.33,5.58,1785091871203.9238
-0.899,-0.393,-0.234,6.9,4.79,4.06,1785091871204.203
-0.908,-0.414,-0.277,8.76,5.01,1.89,1785091871204.525
-0.906,-0.434,-0.334,10.28,6.16,-1.28,1785091871204.818
-0.901,-0.438,-0.375,10.53,9.03,-5.71,1785091871205.106
-0.916,-0.441,-0.382,9.25,11.96,-11.51,1785091871205.394
-0.934,-0.463,-0.369,6.47,14.31,-17.94,1785091871205.682
-0.941,-0.492,-0.341,5.07,17.49,-25.39,1785091871205.971
-0.944,-0.527,-0.323,8.33,20.54,-33.6,1785091871206.253
-0.944,-0.571,-0.35,15.81,23.47,-42.42,1785091871206.5432
-0.959,-0.625,-0.402,25.3,27.59,-52.67,1785091871206.836
-0.979,-0.674,-0.44,35.31,32.72,-62.81,1785091871207.123
-0.988,-0.696,-0.445,46.27,37.6,-71.38,1785091871207.421
-0.993,-0.695,-0.417,58.75,41.99,-77.91,1785091871207.7188
-0.993,-0.686,-0.4,70.89,45.14,-83.68,1785091871208.019
-0.989,-0.67,-0.404,79.99,47.73,-89.69,1785091871208.3079
-0.983,-0.657,-0.425,84.84,50.26,-95.43,1785091871208.606
-0.977,-0.654,-0.456,85.67,53.41,-100.83,1785091871208.91
-0.977,-0.658,-0.477,82.61,57.19,-105.59,1785091871209.2092
-0.973,-0.662,-0.466,76.27,60.88,-109.47,1785091871209.5051
-0.952,-0.671,-0.427,68.85,64.18,-111.33,1785091871209.806
-0.916,-0.691,-0.391,63.14,67.32,-111.76,1785091871210.0742
-0.891,-0.714,-0.376,58.32,70.1,-112.46,1785091871210.3271
-0.874,-0.735,-0.381,53.5,71.96,-113.35,1785091871210.5862
-0.864,-0.749,-0.381,47.94,73.73,-114.75,1785091871210.839
-0.853,-0.747,-0.372,41.02,75.53,-116.49,1785091871211.096
-0.842,-0.75,-0.358,33.66,76.94,-117.98,1785091871211.3499
-0.829,-0.776,-0.34,26.49,78.22,-119.82,1785091871211.614
-0.82,-0.822,-0.325,21.18,79.74,-122.87,1785091871211.916
-0.82,-0.822,-0.325,18.83,81.21,-126.83,1785091871212.2349
-0.816,-0.888,-0.311,18.31,82.61,-131.5,1785091871212.518
-0.809,-0.932,-0.287,20.72,84.32,-134.95,1785091871212.778
-0.796,-0.943,-0.278,22.95,85.18,-137.33,1785091871213.0361
-0.78,-0.945,-0.265,22.13,83.9,-139.93,1785091871213.2961
-0.764,-0.925,-0.249,22.13,83.9,-139.93,1785091871213.5579
-0.735,-0.891,-0.237,19.2,83.01,-141.54,1785091871213.82
-0.697,-0.858,-0.227,16.94,82.31,-142.7,1785091871214.087
-0.653,-0.819,-0.242,14.16,80.97,-143.65,1785091871214.3418
-0.604,-0.788,-0.275,10.47,80.14,-143.59,1785091871214.603
-0.563,-0.786,-0.291,4.94,79.84,-142.98,1785091871214.8682
-0.536,-0.785,-0.275,-3.42,78.62,-142.16,1785091871215.133
-0.511,-0.781,-0.258,-11.72,77.06,-139.87,1785091871215.3909
-0.482,-0.779,-0.221,-18.07,75.93,-136.54,1785091871215.6658
-0.454,-0.766,-0.192,-22.03,73.92,-133.52,1785091871215.934
-0.422,-0.76,-0.18,-23.04,71.93,-130.22,1785091871216.202
-0.395,-0.735,-0.178,-24.32,69.92,-127.6,1785091871216.4539
-0.363,-0.714,-0.205,-25.09,67.87,-124.67,1785091871216.764
-0.333,-0.717,-0.209,-27.13,65.89,-121.92,1785091871217.0242
-0.318,-0.711,-0.206,-29.94,62.75,-119.85,1785091871217.275
-0.293,-0.758,-0.215,-28.38,59.97,-116.61,1785091871217.5342
-0.283,-0.814,-0.206,-25.45,57.34,-115.45,1785091871217.793
-0.282,-0.826,-0.201,-20.66,53.59,-115.24,1785091871218.035
-0.271,-0.805,-0.229,-13.28,49.53,-113.47,1785091871218.2842
-0.249,-0.778,-0.252,-4.76,47.64,-108.98,1785091871218.522
-0.212,-0.779,-0.261,2.29,45.63,-104.19,1785091871218.76
-0.175,-0.786,-0.27,5.28,42.54,-101.5,1785091871219.003
-0.138,-0.78,-0.265,4.88,39.86,-100.31,1785091871219.237
-0.106,-0.785,-0.276,2.75,37.02,-99.86,1785091871219.479
-0.089,-0.807,-0.292,-1.04,34.85,-98.36,1785091871219.717
-0.09,-0.806,-0.289,-6.9,32.41,-96.93,1785091871219.969
-0.088,-0.762,-0.313,-12.18,28.66,-93.54,1785091871220.204
-0.07,-0.755,-0.348,-16.54,26.09,-86.34,1785091871220.46
-0.037,-0.76,-0.362,-24.75,23.32,-80.57,1785091871220.714
-0.015,-0.724,-0.379,-33.97,20.75,-76.51,1785091871220.9448
0.001,-0.707,-0.391,-39.64,19.99,-70.1,1785091871221.203
0.031,-0.719,-0.383,-43.43,19.26,-64.49,1785091871221.4458
0.048,-0.729,-0.371,-45.44,17.76,-62.59,1785091871221.677
0.054,-0.757,-0.364,-44.4,16.36,-61.16,1785091871221.911
0.05,-0.775,-0.353,-41.51,14.83,-59.97,1785091871222.1528
0.039,-0.757,-0.347,-37.29,12.63,-57.92,1785091871222.389
0.042,-0.746,-0.374,-30.37,10.83,-53.93,1785091871222.619
0.047,-0.719,-0.407,-25.7,9.77,-49.56,1785091871222.851
0.054,-0.693,-0.437,-23.53,9.13,-44.77,1785091871223.0808
0.059,-0.681,-0.456,-25.27,8.48,-39.95,1785091871223.308
0.063,-0.656,-0.453,-30.34,8.61,-35.22,1785091871223.5442
0.075,-0.666,-0.442,-33.97,8.82,-29.88,1785091871223.764
0.075,-0.683,-0.409,-36.84,8.21,-25.82,1785091871223.9812
0.07,-0.678,-0.385,-36.1,7.35,-21.97,1785091871224.193
0.08,-0.697,-0.396,-29.08,6.62,-17.52,1785091871224.4119
0.076,-0.709,-0.398,-21.52,5.55,-15.23,1785091871224.653
0.066,-0.683,-0.385,-14.92,3.63,-12.67,1785091871224.869
0.07,-0.653,-0.376,-6.16,1.4,-7.45,1785091871225.1
0.079,-0.646,-0.378,3.81,-1.25,-1.31,1785091871225.333
0.076,-0.642,-0.376,12.3,-4.33,3.88,1785091871225.565
0.071,-0.636,-0.388,19.1,-7.39,8.55,1785091871225.79
0.059,-0.646,-0.418,24.17,-9.19,12.73,1785091871226.012
0.032,-0.646,-0.423,23.93,-10.41,16.57,1785091871226.238
0.019,-0.63,-0.424,20.29,-12.09,22.0,1785091871226.457
0.022,-0.619,-0.432,16.48,-13.43,28.66,1785091871226.672
0.03,-0.611,-0.437,11.84,-14.22,34.27,1785091871226.899
0.033,-0.585,-0.429,5.49,-14.77,38.91,1785091871227.123
0.026,-0.53,-0.4,-1.65,-16.02,44.37,1785091871227.36
0.024,-0.478,-0.375,-6.87,-18.31,52.92,1785091871227.587
0.03,-0.448,-0.362,-9.8,-21.27,63.69,1785091871227.813
0.028,-0.45,-0.365,-10.8,-25.06,73.43,1785091871228.0322
0.005,-0.496,-0.373,-10.93,-28.93,80.45,1785091871228.2778
-0.03,-0.551,-0.385,-10.5,-33.05,85.33,1785091871228.5051
-0.057,-0.592,-0.386,-7.23,-37.02,90.03,1785091871228.7231
-0.076,-0.617,-0.382,-0.31,-41.29,95.43,1785091871228.939
-0.09,-0.646,-0.383,8.24,-45.59,100.89,1785091871229.166
-0.118,-0.645,-0.365,13.61,-49.96,105.72,1785091871229.3901
-0.139,-0.617,-0.35,16.88,-54.48,112.25,1785091871229.593
-0.153,-0.583,-0.355,19.59,-58.44,119.82,1785091871229.803
-0.17,-0.543,-0.377,20.36,-62.07,127.02,1785091871230.018
-0.191,-0.558,-0.435,19.47,-64.88,133.55,1785091871230.237
-0.235,-0.683,-0.494,14.92,-65.95,136.05,1785091871230.44
-0.313,-0.814,-0.488,4.36,-66.68,132.88,1785091871230.6519
-0.378,-0.878,-0.45,-3.14,-68.06,129.7,1785091871230.866
-0.41,-0.937,-0.45,-0.03,-69.28,130.8,1785091871231.0732
-0.442,-0.983,-0.465,7.54,-69.58,132.69,1785091871231.304
-0.481,-0.984,-0.46,12.82,-69.89,134.04,1785091871231.52
-0.499,-0.975,-0.455,15.84,-70.38,135.38,1785091871231.7341
-0.506,-0.939,-0.449,15.05,-69.67,134.4,1785091871231.959
-0.501,-0.894,-0.451,13.28,-68.18,131.93,1785091871232.2139
-0.485,-0.898,-0.455,12.91,-66.41,128.45,1785091871232.476
-0.486,-0.934,-0.451,11.2,-66.01,122.87,1785091871232.6938
-0.505,-1.008,-0.456,8.7,-67.48,117.37,1785091871232.915
-0.551,-1.133,-0.479,4.06,-69.06,110.75,1785091871233.129
-0.621,-1.172,-0.432,-7.51,-70.35,102.51,1785091871233.344
-0.643,-1.095,-0.356,-17.27,-71.75,99.25,1785091871233.546
-0.606,-1.024,-0.338,-16.82,-72.21,100.59,1785091871233.7642
-0.571,-1.006,-0.365,-12.18,-73.15,98.61,1785091871233.984
-0.579,-1.049,-0.397,-9.74,-75.84,90.43,1785091871234.189
-0.612,-1.102,-0.41,-9.77,-79.13,79.04,1785091871234.407
-0.633,-1.129,-0.435,-9.09,-80.81,67.51,1785091871234.63
-0.639,-1.169,-0.468,-7.48,-79.93,56.43,1785091871234.836
-0.653,-1.185,-0.45,-9.92,-78.77,44.5,1785091871235.046
-0.662,-1.186,-0.408,-13.0,-78.83,33.75,1785091871235.262
-0.654,-1.188,-0.385,-14.04,-79.2,25.42,1785091871235.476
-0.641,-1.153,-0.357,-15.32,-79.71,18.04,1785091871235.6802
-0.611,-1.095,-0.333,-16.94,-80.9,11.11,1785091871235.9092
-0.578,-1.043,-0.335,-19.35,-82.61,4.24,1785091871236.1338
-0.546,-1.002,-0.346,-24.41,-84.2,-2.75,1785091871236.3389
-0.52,-0.973,-0.355,-31.53,-86.37,-9.37,1785091871236.5388
-0.515,-0.962,-0.358,-40.01,-89.45,-15.29,1785091871236.747
-0.52,-0.961,-0.357,-58.5,-96.56,-25.94,1785091871237.1562
-0.525,-0.966,-0.373,-66.44,-99.15,-31.28,1785091871237.3618
-0.669,-0.712,-0.473,-10.68,4.09,6.01,1785091871237.654
-0.723,-0.721,-0.468,-10.16,7.81,4.18,1785091871237.8591
-0.789,-0.702,-0.458,-12.39,10.96,1.59,1785091871238.049
-0.835,-0.702,-0.431,-12.67,14.01,0.46,1785091871238.7441
-0.88,-0.732,-0.338,-10.32,16.24,-1.34,1785091871249.2612
-0.945,-0.776,-0.218,-2.87,16.02,-4.58,1785091871262.5432
-1.028,-0.809,-0.133,9.8,14.44,-9.7,1785091871267.885
-1.113,-0.808,-0.099,25.82,13.28,-15.96,1785091871278.414
-1.175,-0.785,-0.118,44.37,12.51,-23.38,1785091871288.893
-1.214,-0.771,-0.156,65.92,13.86,-32.5,1785091871299.4922
-1.258,-0.703,-0.168,86.58,17.3,-43.06,1785091871312.7183
-1.26,-0.639,-0.208,108.68,20.54,-51.61,1785091871318.426
-1.237,-0.599,-0.275,128.27,23.5,-58.5,1785091871329.151
-1.214,-0.532,-0.3,137.0,26.58,-65.0,1785091871342.404
-1.194,-0.457,-0.302,137.39,28.75,-69.34,1785091871348.0989
-1.163,-0.427,-0.285,132.73,29.94,-69.98,1785091871358.867
-1.116,-0.426,-0.271,121.34,29.88,-70.07,1785091871369.501
-1.063,-0.408,-0.243,102.82,29.76,-69.03,1785091871382.7998
-1.01,-0.434,-0.21,85.63,30.0,-65.07,1785091871388.49
-0.974,-0.494,-0.204,74.28,29.73,-59.72,1785091871399.06
-0.955,-0.527,-0.199,66.29,28.44,-53.44,1785091871409.693
-0.922,-0.536,-0.185,61.95,26.22,-45.23,1785091871423.093
-0.875,-0.538,-0.182,60.73,23.65,-35.04,1785091871428.927
-0.828,-0.534,-0.184,61.13,21.76,-22.95,1785091871439.23
-0.784,-0.532,-0.178,63.11,20.78,-9.58,1785091871449.6692
-0.74,-0.54,-0.149,65.8,19.65,4.21,1785091871462.968
-0.701,-0.552,-0.103,69.15,17.33,17.76,1785091871468.832
-0.667,-0.57,-0.045,72.79,14.07,31.37,1785091871479.046
-0.651,-0.601,0.016,77.21,9.86,44.34,1785091871489.511
-0.66,-0.642,0.054,82.13,5.19,55.88,1785091871502.789
-0.711,-0.669,0.049,86.67,1.37,66.96,1785091871508.6929
-0.796,-0.664,0.029,87.65,-1.37,81.0,1785091871518.7268
-0.798,-0.628,-0.02,84.81,-3.05,97.29,1785091871529.158
-0.784,-0.572,-0.075,75.9,-3.51,110.35,1785091871539.733
-0.723,-0.575,-0.095,63.91,-1.07,126.74,1785091871552.933
-0.659,-0.616,-0.111,51.0,-0.12,140.02,1785091871558.93
-0.62,-0.627,-0.116,38.15,-0.43,147.5,1785091871569.1873
-0.588,-0.617,-0.124,26.49,-1.95,152.87,1785091871579.753
-0.56,-0.613,-0.152,16.05,-3.42,157.41,1785091871593.043
-0.537,-0.645,-0.182,4.67,-4.09,160.04,1785091871598.867
-0.538,-0.723,-0.184,-8.94,-5.13,159.98,1785091871609.064
-0.564,-0.826,-0.166,-23.19,-6.47,157.9,1785091871619.582
-0.597,-0.923,-0.133,-33.08,-6.62,155.19,1785091871633.0083
-0.612,-1.011,-0.08,-33.48,-6.5,151.59,1785091871638.724
-0.613,-1.071,-0.05,-24.54,-7.84,146.98,1785091871649.032
-0.609,-1.098,-0.06,-9.67,-9.46,141.3,1785091871659.465
-0.608,-1.083,-0.086,6.26,-9.77,134.95,1785091871672.852
-0.597,-1.037,-0.149,18.65,-9.34,129.22,1785091871678.6758
-0.594,-0.963,-0.206,24.29,-7.32,124.94,1785091871688.917
-0.579,-0.88,-0.244,24.84,-3.51,122.2,1785091871699.378
-0.571,-0.798,-0.279,20.87,1.19,118.75,1785091871712.811
-0.568,-0.718,-0.283,12.39,6.2,115.05,1785091871718.57
-0.589,-0.664,-0.258,0.58,9.06,112.34,1785091871728.749
-0.616,-0.69,-0.226,-11.87,9.09,110.63,1785091871739.291
-0.641,-0.729,-0.219,-24.11,7.87,107.21,1785091871749.928
-0.644,-0.734,-0.235,-33.05,8.0,103.52,1785091871763.125
-0.639,-0.718,-0.274,-38.21,9.4,100.04,1785091871769.022
-0.651,-0.677,-0.311,-43.34,11.6,96.71,1785091871779.3223
-0.676,-0.629,-0.33,-49.17,14.07,94.85,1785091871790.0159
-0.711,-0.587,-0.333,-55.64,15.23,95.16,1785091871803.123
-0.682,-0.54,-0.319,-62.87,16.51,95.71,1785091871809.104
-0.69,-0.462,-0.328,-70.96,18.25,93.69,1785091871819.2808
-0.747,-0.415,-0.353,-77.58,20.48,95.61,1785091871829.8892
-0.797,-0.417,-0.382,-85.97,20.66,100.19,1785091871843.1912
-0.827,-0.429,-0.401,-96.5,21.21,101.78,1785091871849.023
-0.85,-0.456,-0.417,-104.68,23.99,100.47,1785091871859.7068
-0.907,-0.462,-0.42,-111.7,26.86,97.14,1785091871872.974
-0.983,-0.459,-0.392,-116.37,28.78,94.88,1785091871878.878
-0.999,-0.487,-0.364,-116.55,29.39,94.33,1785091871889.3518
-0.985,-0.507,-0.329,-110.93,30.27,92.35,1785091871902.6099
-0.951,-0.509,-0.282,-97.05,30.55,89.82,1785091871908.534
-0.932,-0.49,-0.259,-76.3,27.74,86.79,1785091871918.875
-0.929,-0.447,-0.245,-52.31,23.56,83.56,1785091871929.4321
-0.925,-0.393,-0.259,-27.22,18.8,79.93,1785091871942.6802
-0.923,-0.355,-0.33,-3.66,15.81,74.83,1785091871948.561
-0.935,-0.329,-0.41,13.67,15.29,66.87,1785091871958.8262
-0.941,-0.317,-0.459,23.35,16.45,58.2,1785091871969.3242
-0.93,-0.323,-0.466,27.68,18.31,50.17,1785091871982.62
-0.913,-0.325,-0.438,29.18,20.14,42.6,1785091871988.489
-0.888,-0.325,-0.398,31.04,21.06,35.07,1785091871998.783
-0.865,-0.311,-0.371,34.39,20.75,27.04,1785091872009.322
-0.854,-0.272,-0.369,36.5,19.26,18.59,1785091872022.6372
-0.845,-0.242,-0.387,36.16,17.91,9.43,1785091872028.4941
-0.841,-0.226,-0.407,32.41,17.24,0.15,1785091872038.5798
-0.838,-0.221,-0.421,26.06,16.69,-8.3,1785091872049.063
-0.839,-0.227,-0.437,19.29,15.96,-16.17,1785091872059.641
-0.837,-0.232,-0.455,13.55,15.53,-23.13,1785091872072.8901
-0.832,-0.224,-0.471,10.04,16.05,-28.63,1785091872078.779
-0.827,-0.214,-0.46,9.28,16.85,-32.14,1785091872088.959
-0.829,-0.22,-0.431,9.52,16.21,-33.97,1785091872099.4592
-0.847,-0.227,-0.418,8.91,14.89,-35.68,1785091872112.884
-0.849,-0.224,-0.411,7.97,14.47,-36.07,1785091872118.53
-0.834,-0.215,-0.408,7.51,15.02,-34.82,1785091872128.621
-0.816,-0.204,-0.395,7.6,15.87,-32.2,1785091872139.0999
-0.803,-0.204,-0.401,8.15,16.69,-29.15,1785091872149.582
-0.795,-0.206,-0.419,8.85,17.18,-26.64,1785091872162.909
-0.782,-0.205,-0.436,9.4,17.4,-24.66,1785091872168.641
-0.768,-0.187,-0.446,10.01,17.67,-23.5,1785091872178.897
-0.768,-0.162,-0.446,10.86,17.94,-21.94,1785091872189.425
-0.778,-0.151,-0.446,11.23,17.52,-19.41,1785091872202.714
-0.777,-0.166,-0.444,10.56,16.63,-15.9,1785091872208.296
-0.773,-0.189,-0.437,9.8,15.56,-12.85,1785091872218.8052
-0.782,-0.198,-0.428,9.8,14.5,-10.22,1785091872229.3062
-0.809,-0.185,-0.421,10.35,13.31,-7.51,1785091872239.706
-0.841,-0.161,-0.412,9.37,11.57,-4.03,1785091872252.9448
-0.867,-0.158,-0.422,7.97,10.07,-0.43,1785091872258.678
-0.88,-0.162,-0.43,4.97,9.31,2.29,1785091872268.48
-0.88,-0.164,-0.433,0.15,8.51,3.85,1785091872278.668
-0.867,-0.175,-0.433,-5.37,8.27,5.25,1785091872289.166
-0.844,-0.176,-0.43,-9.95,8.76,6.81,1785091872299.4138
-0.823,-0.151,-0.437,-12.54,8.88,8.97,1785091872309.898
-0.811,-0.127,-0.456,-14.8,9.77,11.6,1785091872323.0789
-0.808,-0.112,-0.455,-19.01,11.38,13.31,1785091872329.043
-0.816,-0.112,-0.439,-24.96,12.63,13.55,1785091872339.176
-0.842,-0.129,-0.417,-31.34,13.28,13.06,1785091872349.7449
-0.876,-0.157,-0.397,-37.42,13.79,12.48,1785091872363.043
-0.911,-0.174,-0.373,-41.08,14.62,12.27,1785091872368.926
-0.934,-0.172,-0.352,-40.65,15.17,13.37,1785091872379.194
-0.954,-0.154,-0.346,-36.13,15.35,15.2,1785091872389.7642
-0.954,-0.154,-0.346,-29.39,15.02,17.37,1785091872402.982
-0.97,-0.143,-0.361,-26.55,14.77,18.62,1785091872408.943
-0.994,-0.117,-0.395,-28.11,15.05,20.39,1785091872419.18
-1.016,-0.081,-0.414,-31.25,14.98,23.13,1785091872429.785
-1.031,-0.085,-0.407,-31.25,14.98,23.13,1785091872443.1301
-1.022,-0.106,-0.381,-34.18,14.59,25.97,1785091872448.868
-0.988,-0.141,-0.363,-32.65,14.16,28.5,1785091872459.2632
-0.939,-0.186,-0.342,-28.38,13.89,29.66,1785091872469.7458
-0.885,-0.213,-0.323,-22.1,12.57,28.2,1785091872482.9922
-0.843,-0.216,-0.317,-14.71,11.02,24.51,1785091872488.988
-0.822,-0.202,-0.32,-8.09,9.46,20.11,1785091872498.996
-0.818,-0.182,-0.332,-3.91,7.93,15.53,1785091872509.4111
-0.829,-0.162,-0.356,-3.81,6.65,10.35,1785091872519.736
-0.846,-0.158,-0.369,-7.9,6.07,4.7,1785091872533.0088
-0.864,-0.161,-0.374,-14.68,5.68,-1.04,1785091872538.651
-0.882,-0.166,-0.371,-22.22,4.97,-5.31,1785091872548.612
-0.893,-0.164,-0.362,-28.84,3.72,-7.87,1785091872558.992
-0.887,-0.162,-0.345,-34.21,2.17,-9.31,1785091872569.33
-0.887,-0.162,-0.339,-40.31,-0.09,-11.14,1785091872579.927
-0.898,-0.166,-0.334,-48.07,-2.66,-12.3,1785091872593.1
-0.911,-0.184,-0.307,-56.46,-5.16,-12.3,1785091872598.948
-0.922,-0.212,-0.281,-64.64,-7.51,-12.3,1785091872609.028
-0.934,-0.227,-0.252,-72.21,-9.98,-11.75,1785091872619.466
-0.929,-0.223,-0.221,-80.51,-12.91,-10.04,1785091872632.948
-0.916,-0.225,-0.202,-90.88,-15.72,-8.79,1785091872638.4902
-0.898,-0.232,-0.194,-104.19,-18.25,-8.82,1785091872648.937
-0.866,-0.251,-0.174,-117.44,-20.08,-9.09,1785091872659.4539
-0.841,-0.264,-0.156,-128.15,-21.73,-10.71,1785091872672.868
-0.847,-0.292,-0.147,-135.81,-23.5,-13.21,1785091872678.677
-0.888,-0.32,-0.145,-144.96,-25.88,-16.36,1785091872689.116
-0.938,-0.349,-0.15,-157.17,-28.38,-20.23,1785091872699.7913
-0.977,-0.386,-0.17,-170.72,-30.4,-23.77,1785091872713.106
-0.97,-0.41,-0.212,-184.91,-32.72,-26.76,1785091872718.961
-0.928,-0.408,-0.273,-195.59,-34.42,-30.49,1785091872729.4731
-0.892,-0.377,-0.339,-200.96,-34.94,-34.97,1785091872742.857
-0.875,-0.372,-0.383,-202.43,-33.97,-40.96,1785091872748.688
-0.873,-0.397,-0.375,-202.55,-32.04,-50.29,1785091872759.226
-0.897,-0.412,-0.323,-201.27,-30.27,-61.22,1785091872769.878
-0.933,-0.418,-0.262,-197.85,-29.57,-69.86,1785091872783.1199
-0.962,-0.412,-0.261,-195.5,-30.09,-76.85,1785091872789.031
-0.99,-0.398,-0.296,-197.09,-28.96,-83.29,1785091872799.52
-1.009,-0.388,-0.336,-202.09,-26.12,-89.82,1785091872812.896
-1.016,-0.386,-0.365,-208.29,-21.82,-97.14,1785091872818.7102
-1.004,-0.383,-0.385,-212.62,-17.67,-105.11,1785091872829.408
-0.989,-0.387,-0.398,-213.69,-13.25,-112.98,1785091872842.659
-1.015,-0.399,-0.395,-213.93,-8.79,-121.46,1785091872848.51
-1.108,-0.392,-0.394,-216.62,-6.44,-129.98,1785091872859.143
-1.191,-0.412,-0.402,-221.35,-6.96,-136.63,1785091872869.7578
-1.231,-0.415,-0.466,-230.54,-7.42,-144.84,1785091872883.024
-1.286,-0.369,-0.631,-245.58,-4.0,-150.36,1785091872888.972
-1.246,-0.349,-0.757,-262.92,5.58,-148.17,1785091872899.468
-1.205,-0.344,-0.757,-279.67,21.39,-149.88,1785091872912.863
-1.257,-0.337,-0.678,-294.9,36.23,-157.44,1785091872918.647
-1.281,-0.432,-0.58,-298.75,46.57,-160.16,1785091872929.425
-1.272,-0.53,-0.501,-289.96,55.27,-161.87,1785091872942.6692
-1.302,-0.571,-0.432,-269.81,63.69,-164.89,1785091872948.611
-1.326,-0.637,-0.439,-237.65,71.08,-164.92,1785091872959.38
-1.351,-0.691,-0.476,-199.29,77.3,-168.8,1785091872972.799
-1.399,-0.668,-0.532,-158.02,81.76,-176.34,1785091872978.5652
-1.434,-0.612,-0.603,-116.03,86.67,-181.86,1785091872989.374
-1.459,-0.551,-0.63,-79.62,92.1,-185.95,1785091873002.6091
-1.501,-0.491,-0.505,-54.78,94.18,-190.71,1785091873008.5098
-1.542,-0.391,-0.369,-44.34,85.91,-194.28,1785091873019.057
-1.491,-0.268,-0.394,-43.52,79.04,-192.18,1785091873029.755
-1.454,-0.167,-0.499,-48.01,80.94,-187.63,1785091873043.168
-1.435,-0.139,-0.607,-60.73,87.53,-185.43,1785091873048.78
-1.421,-0.224,-0.633,-80.72,92.53,-188.42,1785091873059.4968
-1.391,-0.362,-0.652,-98.67,96.35,-194.74,1785091873072.9658
-1.379,-0.518,-0.669,-105.66,102.27,-201.39,1785091873078.588
-1.387,-0.632,-0.614,-101.6,108.83,-207.46,1785091873089.557
-1.425,-0.689,-0.577,-86.28,110.45,-209.02,1785091873102.71
-1.423,-0.701,-0.541,-62.29,112.16,-209.39,1785091873108.802
-1.412,-0.626,-0.549,-35.62,111.45,-211.89,1785091873119.427
-1.408,-0.522,-0.618,-13.64,107.27,-211.58,1785091873132.9138
-1.373,-0.436,-0.679,-4.67,102.08,-206.24,1785091873138.745
-1.321,-0.377,-0.705,-8.06,97.84,-198.89,1785091873149.173
-1.261,-0.336,-0.715,-18.49,94.61,-191.84,1785091873159.758
-1.202,-0.349,-0.736,-33.3,92.78,-185.92,1785091873173.069
-1.146,-0.413,-0.704,-47.18,94.21,-184.67,1785091873178.94
-1.104,-0.527,-0.677,-56.49,91.4,-180.24,1785091873189.523
-1.066,-0.594,-0.614,-59.72,92.78,-176.89,1785091873202.774
-1.022,-0.585,-0.617,-55.06,88.69,-170.54,1785091873208.5068
-1.013,-0.566,-0.719,-48.68,80.48,-157.41,1785091873219.2231
-0.963,-0.512,-0.811,-46.69,78.31,-145.05,1785091873229.933
-0.923,-0.504,-0.835,-48.43,79.53,-136.27,1785091873243.186
-0.861,-0.527,-0.772,-54.38,80.48,-130.04,1785091873249.012
-0.834,-0.567,-0.699,-60.58,76.97,-122.44,1785091873259.5442
-0.783,-0.555,-0.662,-61.83,75.47,-115.39,1785091873272.918
-0.749,-0.536,-0.714,-61.71,72.57,-105.17,1785091873278.7312
-0.728,-0.525,-0.772,-64.91,72.66,-95.07,1785091873289.134
-0.692,-0.526,-0.77,-71.81,73.85,-87.04,1785091873299.691
-0.651,-0.525,-0.735,-79.53,73.89,-79.41,1785091873313.014
-0.644,-0.553,-0.725,-81.58,72.45,-72.54,1785091873318.8833
-0.666,-0.555,-0.744,-80.2,71.38,-66.87,1785091873329.1619
-0.667,-0.487,-0.734,-79.35,73.27,-60.03,1785091873339.7163
-0.627,-0.438,-0.701,-74.89,76.97,-52.52,1785091873352.939
-0.583,-0.406,-0.685,-67.38,78.92,-45.81,1785091873358.9338
-0.535,-0.36,-0.693,-59.42,80.26,-38.7,1785091873369.1353
-0.491,-0.305,-0.663,-52.83,82.09,-31.59,1785091873379.705
-0.458,-0.29,-0.702,-47.12,82.22,-25.03,1785091873393.019
-0.452,-0.268,-0.709,-41.29,84.78,-18.31,1785091873398.8699
-0.434,-0.228,-0.735,-37.39,88.38,-8.42,1785091873409.0627
-0.431,-0.226,-0.772,-37.23,94.73,0.79,1785091873419.497
-0.455,-0.244,-0.752,-40.16,104.8,5.43,1785091873432.909
-0.425,-0.219,-0.635,-38.51,117.07,8.48,1785091873438.491
-0.419,-0.23,-0.572,-32.32,119.72,18.59,1785091873449.096
-0.412,-0.229,-0.572,-22.71,123.87,24.45,1785091873459.723
-0.393,-0.238,-0.67,-17.49,128.03,27.89,1785091873472.97
-0.351,-0.226,-0.767,-23.04,136.66,28.6,1785091873478.697
-0.341,-0.224,-0.762,-41.05,143.83,31.74,1785091873489.4058
-0.369,-0.243,-0.725,-60.0,148.29,34.76,1785091873502.619
-0.376,-0.3,-0.753,-71.11,152.1,37.81,1785091873508.696
-0.401,-0.347,-0.817,-79.59,157.99,39.55,1785091873519.1118
-0.388,-0.315,-0.877,-88.41,164.8,40.35,1785091873529.778
-0.35,-0.214,-0.92,-95.4,169.9,46.66,1785091873543.0557
-0.296,-0.13,-0.856,-93.66,177.43,56.0,1785091873548.917
-0.276,-0.113,-0.756,-83.99,182.47,60.85,1785091873559.459
-0.269,-0.152,-0.712,-69.25,182.41,61.59,1785091873572.8572
-0.282,-0.184,-0.682,-55.94,182.9,60.27,1785091873578.6892
-0.278,-0.188,-0.735,-49.35,184.58,58.35,1785091873589.228
-0.249,-0.131,-0.748,-52.64,188.21,58.99,1785091873599.878
-0.203,-0.087,-0.734,-57.1,191.32,63.14,1785091873613.067
-0.155,-0.094,-0.764,-57.04,192.91,66.68,1785091873619.0232
-0.118,-0.135,-0.749,-52.0,195.2,69.49,1785091873629.5623
-0.113,-0.191,-0.718,-45.35,195.56,69.83,1785091873642.8108
-0.103,-0.223,-0.732,-43.95,194.59,69.67,1785091873648.743
-0.08,-0.225,-0.704,-51.12,195.62,71.08,1785091873659.2432
-0.049,-0.194,-0.659,-61.86,196.05,74.28,1785091873669.8508
-0.049,-0.194,-0.659,-71.2,194.62,79.32,1785091873683.1328
-0.003,-0.179,-0.594,-77.24,191.75,82.06,1785091873689.072
0.042,-0.149,-0.498,-75.41,189.73,82.28,1785091873699.6018
0.069,-0.139,-0.424,-67.29,186.16,83.65,1785091873712.8582
0.06,-0.153,-0.39,-56.92,180.85,87.65,1785091873718.7368
0.063,-0.158,-0.345,-56.92,180.85,87.65,1785091873729.3
0.104,-0.173,-0.323,-47.49,175.94,90.46,1785091873739.949
0.13,-0.195,-0.312,-45.78,171.03,90.37,1785091873753.155
0.106,-0.226,-0.295,-52.74,164.37,89.05,1785091873759.208
-0.007,-0.328,-0.313,-65.13,155.74,85.6,1785091873769.623
-0.25,-0.511,-0.452,-82.52,148.56,76.24,1785091873782.9011
-0.3,-0.58,-0.56,-103.03,154.09,61.8,1785091873788.811
-0.025,-0.362,-0.359,-112.92,168.03,55.45,1785091873799.551
0.194,-0.192,-0.202,-89.14,169.16,64.3,1785091873812.855
0.29,-0.176,-0.097,-49.71,159.46,73.95,1785091873818.696
0.334,-0.195,0.028,-10.83,148.11,77.24,1785091873829.237
0.355,-0.189,0.03,22.31,138.49,77.67,1785091873839.937
0.349,-0.178,-0.007,35.4,130.25,80.57,1785091873853.173
0.315,-0.198,-0.027,23.9,119.6,82.55,1785091873859.086
0.287,-0.274,-0.079,-2.29,110.9,82.89,1785091873869.453
0.281,-0.347,-0.146,-34.21,108.37,82.77,1785091873882.741
0.298,-0.399,-0.196,-64.7,109.71,86.12,1785091873888.693
0.32,-0.436,-0.188,-93.11,110.78,94.15,1785091873899.194
0.323,-0.465,-0.122,-114.93,110.14,105.01,1785091873912.5518
0.361,-0.476,-0.067,-122.29,109.07,116.0,1785091873918.467
0.408,-0.46,-0.014,-114.96,107.94,124.88,1785091873929.429
0.426,-0.47,0.023,-99.73,105.29,130.19,1785091873942.6738
0.461,-0.454,0.083,-86.49,103.52,129.43,1785091873948.571
0.45,-0.471,0.058,-81.42,93.02,134.34,1785091873959.269
0.441,-0.478,0.072,-79.44,86.55,137.76,1785091873969.897
0.474,-0.465,0.088,-77.97,80.2,141.0,1785091873983.191
0.515,-0.494,0.082,-74.56,73.58,144.93,1785091873989.0828
0.533,-0.526,0.088,-67.14,67.87,148.9,1785091873999.6182
0.511,-0.545,0.105,-54.63,62.47,152.93,1785091874012.9111
0.443,-0.557,0.132,-41.54,56.34,156.83,1785091874018.761
0.355,-0.551,0.155,-34.3,48.98,160.59,1785091874029.352
0.292,-0.562,0.145,-34.12,41.6,164.07,1785091874042.573
0.29,-0.603,0.072,-40.47,36.01,167.27,1785091874048.513
0.341,-0.686,-0.028,-50.75,33.54,169.62,1785091874059.015
0.386,-0.761,-0.081,-61.53,31.8,170.26,1785091874069.682
0.404,-0.795,-0.091,-69.0,28.96,171.54,1785091874082.9382
0.436,-0.805,-0.079,-70.89,25.12,175.39,1785091874088.838
0.462,-0.797,-0.037,-66.5,20.54,180.67,1785091874099.3901
0.419,-0.775,0.01,-56.86,14.31,185.77,1785091874112.811
0.37,-0.776,0.032,-45.47,7.26,189.64,1785091874118.539
0.325,-0.759,0.071,-40.38,-0.46,191.44,1785091874128.8801
0.264,-0.748,0.076,-38.7,-7.78,191.72,1785091874139.477
0.257,-0.776,-0.011,-38.18,-12.85,192.08,1785091874152.8052
0.305,-0.826,-0.129,-38.3,-15.87,193.12,1785091874158.736
0.356,-0.882,-0.226,-40.53,-17.82,193.43,1785091874169.193
0.346,-0.94,-0.236,-46.57,-19.93,192.08,1785091874179.9412
0.258,-0.944,-0.164,-57.28,-24.26,191.87,1785091874193.114
0.166,-0.917,-0.055,-65.71,-29.88,194.77,1785091874198.605
0.083,-0.861,0.033,-66.13,-36.9,197.85,1785091874209.52
0.017,-0.798,0.064,-60.12,-45.99,198.83,1785091874222.827
0.011,-0.764,-0.028,-52.8,-56.43,199.16,1785091874228.8052
0.267,-0.792,-0.438,-45.17,-60.27,202.86,1785091874239.3013
1.062,-1.08,-0.779,-24.66,-33.27,213.93,1785091874249.951
1.415,-1.463,0.082,-0.52,3.97,216.13,1785091874263.183
0.286,-1.003,0.689,-1.25,-25.42,204.84,1785091874269.135
-0.751,-0.646,0.494,-2.41,-64.82,210.3,1785091874279.2817
-0.592,-0.815,0.082,-36.87,-87.25,232.43,1785091874289.984
-0.395,-1.041,-0.25,-103.46,-95.95,240.46,1785091874303.125
-0.466,-1.222,-0.609,-149.78,-89.05,234.26,1785091874309.1772
-0.498,-1.361,-0.898,-164.83,-82.06,223.79,1785091874319.901
-0.518,-1.325,-0.945,-161.05,-87.74,199.44,1785091874333.067
-0.56,-1.251,-0.937,-145.73,-97.69,171.3,1785091874339.04
-0.615,-1.222,-0.809,-131.5,-103.58,158.85,1785091874349.916
-0.619,-1.189,-0.602,-110.42,-112.49,167.39,1785091874363.198
-0.526,-1.134,-0.466,-68.27,-118.9,183.66,1785091874369.1367
-0.43,-1.122,-0.45,-14.34,-119.24,189.76,1785091874379.987
-0.439,-1.051,-0.491,24.23,-122.62,177.89,1785091874393.2732
-0.488,-0.93,-0.546,36.07,-128.85,159.43,1785091874399.1309
-0.565,-0.832,-0.572,20.02,-134.71,143.77,1785091874409.981
-0.678,-0.747,-0.611,-17.55,-140.35,136.27,1785091874423.215
-0.771,-0.727,-0.645,-57.1,-142.28,136.23,1785091874429.117
-0.864,-0.766,-0.643,-84.72,-140.66,134.65,1785091874440.063
-0.957,-0.798,-0.619,-96.74,-140.6,130.13,1785091874453.139
-0.967,-0.8,-0.621,-92.04,-142.0,126.8,1785091874459.2058
-0.942,-0.763,-0.592,-78.43,-143.16,122.32,1785091874469.874
-0.923,-0.721,-0.539,-65.0,-145.54,117.37,1785091874483.1118
-0.94,-0.706,-0.474,-57.1,-150.55,114.35,1785091874489.003
-0.98,-0.674,-0.474,-54.02,-157.02,113.25,1785091874499.804
-1.036,-0.633,-0.537,-53.62,-160.68,113.93,1785091874513.069
-1.079,-0.64,-0.564,-48.52,-160.56,115.39,1785091874519.01
-1.13,-0.636,-0.576,-42.18,-160.62,112.67,1785091874529.815
-1.189,-0.607,-0.671,-39.31,-162.63,107.27,1785091874543.222
-1.211,-0.577,-0.715,-45.99,-163.3,103.98,1785091874549.109
-1.197,-0.561,-0.672,-61.92,-163.0,103.06,1785091874559.7651
-1.185,-0.567,-0.641,-79.81,-162.48,102.85,1785091874573.038
-1.168,-0.576,-0.709,-96.74,-162.14,102.11,1785091874578.982
-1.134,-0.606,-0.855,-109.99,-159.95,99.31,1785091874589.746
-1.107,-0.629,-0.906,-117.44,-154.27,91.46,1785091874602.9272
-1.118,-0.622,-0.804,-115.76,-149.33,77.88,1785091874609.01
-1.15,-0.581,-0.706,-104.1,-147.68,63.94,1785091874619.662
-1.167,-0.541,-0.638,-89.48,-145.3,54.99,1785091874632.992
-1.174,-0.533,-0.6,-78.1,-140.78,50.17,1785091874638.5332
-1.179,-0.557,-0.584,-68.79,-134.83,46.6,1785091874649.3152
-1.161,-0.57,-0.643,-59.88,-129.06,43.06,1785091874662.6648
-1.135,-0.554,-0.742,-50.97,-123.08,38.21,1785091874668.5598
-1.131,-0.534,-0.807,-42.54,-118.38,31.1,1785091874679.094
-1.117,-0.48,-0.792,-32.17,-110.84,17.52,1785091874689.7522
-1.097,-0.447,-0.745,-20.08,-104.95,2.38,1785091874702.953
-1.084,-0.423,-0.678,-11.84,-101.08,-11.11,1785091874708.983
-1.07,-0.406,-0.608,-7.48,-98.36,-19.47,1785091874719.1538
-1.056,-0.401,-0.566,-6.26,-97.17,-22.34,1785091874729.6992
-1.049,-0.399,-0.552,-7.17,-96.84,-22.55,1785091874742.975
-1.049,-0.388,-0.601,-10.1,-97.32,-22.98,1785091874748.7769
-1.05,-0.346,-0.745,-17.55,-98.45,-22.0,1785091874758.996
-0.985,-0.34,-0.849,-27.62,-99.06,-21.58,1785091874769.52
-0.899,-0.331,-0.748,-33.27,-88.11,-29.27,1785091874782.794
-0.922,-0.391,-0.642,-28.78,-76.66,-36.13,1785091874788.722
-1.009,-0.461,-0.584,-22.31,-78.74,-37.35,1785091874799.0068
-1.035,-0.452,-0.539,-16.39,-82.67,-33.33,1785091874809.5579
-1.075,-0.421,-0.534,-13.7,-84.54,-27.65,1785091874822.795
-1.09,-0.393,-0.561,-23.01,-80.36,-22.92,1785091874828.893
-1.042,-0.313,-0.533,-42.85,-66.19,-26.86,1785091874839.083
-1.044,-0.26,-0.51,-69.06,-56.86,-33.36,1785091874849.5847
-1.032,-0.201,-0.508,-99.15,-52.58,-41.35,1785091874862.8599
-1.02,-0.134,-0.482,-134.04,-52.16,-50.02,1785091874868.709
-0.988,-0.105,-0.415,-165.38,-49.47,-53.47,1785091874879.185
-1.009,-0.148,-0.368,-185.19,-45.11,-54.51,1785091874890.129
-0.98,-0.237,-0.346,-195.62,-41.96,-52.25,1785091874903.054
-1.017,-0.263,-0.325,-196.69,-37.75,-50.63,1785091874909.001
-0.97,-0.341,-0.291,-186.07,-33.51,-44.07,1785091874919.494
-0.944,-0.416,-0.229,-172.83,-29.66,-43.92,1785091874932.842
-0.954,-0.443,-0.172,-159.34,-26.61,-43.7,1785091874938.648
-0.952,-0.421,-0.118,-142.8,-22.71,-43.89,1785091874949.186
-0.952,-0.421,-0.118,-124.76,-20.29,-44.47,1785091874959.876
-0.936,-0.359,-0.075,-105.81,-18.49,-43.55,1785091874973.1572
-0.934,-0.297,-0.055,-87.16,-17.15,-42.02,1785091874979.0452
-0.917,-0.253,-0.065,-72.42,-16.02,-42.39,1785091874989.413
-0.929,-0.254,-0.086,-61.86,-14.28,-43.46,1785091874999.918
-0.919,-0.285,-0.101,-61.86,-14.28,-43.46,1785091875013.1997
-0.909,-0.29,-0.096,-52.95,-10.99,-46.27,1785091875019.052
-0.938,-0.278,-0.103,-44.65,-6.53,-48.01,1785091875029.2742
-0.926,-0.299,-0.105,-38.94,-4.7,-44.89,1785091875039.736
-0.903,-0.32,-0.084,-32.72,-1.95,-41.96,1785091875053.027
-0.907,-0.33,-0.072,-23.74,0.98,-39.67,1785091875058.845
-0.895,-0.338,-0.07,-13.76,2.23,-35.37,1785091875068.97
-0.881,-0.325,-0.065,-4.12,2.96,-31.77,1785091875079.295
-0.89,-0.303,-0.073,3.27,3.11,-29.08,1785091875089.7068
-0.87,-0.299,-0.112,7.84,3.3,-25.09,1785091875103.002
-0.877,-0.288,-0.154,8.7,4.15,-22.49,1785091875108.549
-0.873,-0.302,-0.17,8.21,5.28,-19.2,1785091875118.649
-0.862,-0.319,-0.162,8.48,6.71,-17.33,1785091875129.038
-0.874,-0.339,-0.127,11.51,7.02,-16.51,1785091875139.471
-0.892,-0.382,-0.107,18.95,5.13,-13.37,1785091875152.7412
-0.917,-0.387,-0.107,27.31,3.08,-9.8,1785091875158.482
-0.933,-0.35,-0.123,33.66,2.38,-6.84,1785091875168.4912
-0.952,-0.317,-0.142,34.73,3.33,-3.94,1785091875178.8643
-0.943,-0.324,-0.164,30.12,4.79,0.76,1785091875189.243
-0.95,-0.329,-0.18,20.87,5.86,4.3,1785091875199.4473
-0.921,-0.343,-0.193,10.65,6.93,7.81,1785091875212.905
-0.913,-0.341,-0.183,0.43,7.51,8.64,1785091875218.431
-0.916,-0.342,-0.168,-7.87,8.15,8.73,1785091875228.3862
-0.938,-0.352,-0.15,-14.74,7.42,10.56,1785091875238.862
-0.903,-0.389,-0.145,-17.37,5.62,13.92,1785091875249.372
-0.883,-0.382,-0.143,-15.69,5.83,11.81,1785091875259.8872
-0.915,-0.366,-0.144,-14.1,5.04,10.04,1785091875273.0889
-0.875,-0.383,-0.153,-12.09,4.3,11.51,1785091875278.8843
-0.879,-0.36,-0.155,-12.94,3.3,10.16,1785091875288.9622
-0.865,-0.356,-0.157,-13.7,3.08,10.25,1785091875299.48
-0.87,-0.358,-0.151,-15.47,2.96,9.7,1785091875309.8582
-0.87,-0.355,-0.146,-18.28,2.44,9.22,1785091875323.113
-0.871,-0.353,-0.141,-20.29,2.29,8.88,1785091875328.699
-0.874,-0.355,-0.142,-21.49,1.83,9.06,1785091875338.73
-0.866,-0.36,-0.136,-21.76,1.8,8.94,1785091875349.1562
-0.863,-0.36,-0.137,-20.39,1.59,8.94,1785091875359.57
-0.865,-0.362,-0.146,-17.85,0.92,10.25,1785091875372.79
-0.865,-0.368,-0.156,-15.87,0.12,11.38,1785091875378.5989
-0.87,-0.367,-0.16,-15.29,0.09,11.63,1785091875388.716
-0.875,-0.366,-0.162,-15.63,0.24,12.51,1785091875399.189
-0.879,-0.358,-0.157,-17.09,0.27,13.76,1785091875409.7112
-0.88,-0.354,-0.154,-18.86,0.43,14.8,1785091875422.967
-0.882,-0.358,-0.153,-20.23,0.82,16.05,1785091875428.761
-0.88,-0.365,-0.154,-21.76,0.98,17.4,1785091875438.8782
-0.884,-0.365,-0.158,-22.95,1.07,18.59,1785091875449.363
-0.889,-0.369,-0.161,-23.22,1.34,19.68,1785091875459.808
-0.893,-0.373,-0.163,-22.98,1.92,19.93,1785091875473.0261
-0.897,-0.374,-0.16,-22.55,2.32,19.44,1785091875478.842
-0.899,-0.37,-0.158,-21.55,2.69,18.71,1785091875488.9731
-0.9,-0.369,-0.161,-20.66,2.96,18.16,1785091875499.447
-0.903,-0.369,-0.167,-20.14,3.05,17.64,1785091875509.902
-0.905,-0.37,-0.171,-19.9,3.14,17.03,1785091875523.1921
-0.901,-0.375,-0.17,-19.26,3.33,16.02,1785091875528.98
-0.894,-0.387,-0.174,-16.85,3.39,14.53,1785091875539.071
-0.899,-0.383,-0.171,-13.43,3.11,12.79,1785091875549.528
-0.903,-0.375,-0.168,-9.19,2.44,11.47,1785091875559.9502
-0.905,-0.367,-0.168,-4.79,1.77,10.04,1785091875573.2942
-0.905,-0.357,-0.167,-1.4,1.4,8.24,1785091875578.672
-0.906,-0.351,-0.17,1.01,1.13,6.9,1785091875588.623
-0.908,-0.345,-0.172,2.44,0.92,5.8,1785091875598.939
-0.907,-0.341,-0.172,2.26,0.49,4.94,1785091875609.3088
-0.903,-0.337,-0.177,1.31,-0.12,4.39,1785091875619.593
-0.906,-0.337,-0.185,0.06,-0.55,4.27,1785091875629.8508
-0.911,-0.343,-0.189,-0.73,-0.61,4.12,1785091875643.142
-0.915,-0.35,-0.19,-0.73,-0.95,4.0,1785091875648.547
-0.912,-0.349,-0.184,0.03,-1.1,3.85,1785091875658.536
-0.91,-0.346,-0.178,1.56,-1.04,3.39,1785091875668.8152
-0.912,-0.341,-0.177,2.38,-1.13,3.05,1785091875679.1208
-0.91,-0.332,-0.176,2.35,-1.46,3.27,1785091875689.3928
-0.908,-0.327,-0.179,1.77,-1.59,3.78,1785091875699.685
-0.906,-0.326,-0.184,0.46,-1.28,4.24,1785091875712.9998
-0.903,-0.328,-0.192,-1.83,-1.16,4.58,1785091875717.996
-0.905,-0.325,-0.195,-5.28,-0.95,4.52,1785091875728.3682
-0.905,-0.321,-0.197,-9.0,-0.49,4.61,1785091875738.6501
-0.903,-0.318,-0.195,-12.85,-0.09,4.43,1785091875749.034
-0.905,-0.314,-0.185,-16.27,0.06,4.0,1785091875759.462
-0.911,-0.312,-0.167,-17.7,-0.18,3.94,1785091875769.826
-0.915,-0.324,-0.156,-15.87,-0.89,3.97,1785091875783.0322
-0.914,-0.338,-0.159,-11.57,-1.46,3.57,1785091875788.742
-0.91,-0.342,-0.175,-5.86,-2.23,3.2,1785091875798.624
-0.908,-0.339,-0.194,0.09,-2.35,2.9,1785091875808.9548
-0.907,-0.339,-0.203,5.37,-2.23,2.56,1785091875819.226
-0.907,-0.339,-0.197,10.38,-2.23,1.77,1785091875829.59
-0.901,-0.349,-0.178,17.37,-1.77,1.28,1785091875842.9692
-0.888,-0.396,-0.154,30.34,-1.74,-0.06,1785091875848.553
-0.889,-0.46,-0.14,50.97,-2.87,-3.02,1785091875858.5789
-0.902,-0.468,-0.148,75.26,-4.3,-4.85,1785091875868.8672
-0.907,-0.434,-0.183,99.46,-4.64,-4.33,1785091875879.2908
-0.909,-0.378,-0.226,116.98,-3.17,-3.42,1785091875889.91
-0.911,-0.329,-0.243,123.75,-0.85,-3.54,1785091875902.986
-0.911,-0.309,-0.244,120.06,1.25,-4.15,1785091875908.8582
-0.91,-0.303,-0.237,108.92,3.66,-4.82,1785091875918.9692
-0.905,-0.307,-0.223,95.13,6.01,-5.13,1785091875929.3252
-0.903,-0.317,-0.215,80.84,6.96,-6.32,1785091875939.695
-0.92,-0.327,-0.199,67.78,7.66,-6.87,1785091875952.9028
-0.917,-0.366,-0.198,59.85,8.76,-4.43,1785091875958.591
-0.907,-0.392,-0.204,55.06,9.16,-3.39,1785091875968.6091
-0.913,-0.381,-0.203,51.06,9.22,-3.97,1785091875979.011
-0.924,-0.366,-0.205,46.48,8.7,-2.75,1785091875989.36
-0.914,-0.359,-0.206,40.35,8.0,-0.64,1785091875999.821
-0.898,-0.348,-0.202,32.78,7.97,0.09,1785091876013.043
-0.9,-0.333,-0.201,23.53,8.64,0.21,1785091876018.798
-0.9,-0.33,-0.203,12.88,9.4,1.34,1785091876028.791
-0.903,-0.343,-0.196,2.41,9.7,2.35,1785091876039.02
-0.913,-0.368,-0.185,-6.01,9.7,3.08,1785091876049.2642
-0.91,-0.388,-0.173,-11.02,9.28,4.0,1785091876059.735
-0.912,-0.386,-0.161,-12.91,8.97,4.55,1785091876072.969
-0.913,-0.377,-0.162,-13.49,8.7,5.4,1785091876078.6162
-0.905,-0.37,-0.158,-14.28,8.58,5.43,1785091876088.552
-0.898,-0.372,-0.156,-15.75,8.73,4.39,1785091876098.9521
-0.9,-0.371,-0.154,-16.69,8.97,4.03,1785091876109.138
-0.907,-0.37,-0.152,-16.24,9.19,4.18,1785091876119.762
-0.909,-0.371,-0.155,-15.08,9.22,4.27,1785091876133.017
-0.906,-0.37,-0.156,-14.01,9.13,4.03,1785091876138.616
-0.906,-0.366,-0.15,-13.4,9.09,3.72,1785091876148.74
-0.9,-0.365,-0.148,-13.21,9.03,3.91,1785091876159.055
-0.9,-0.367,-0.146,-12.88,8.7,3.54,1785091876169.396
