ax,ay,az,gx,gy,gz,timestamp_ms
-0.912,-0.27,-0.235,-4.18,-0.31,6.68,1785091941594.4177
-0.918,-0.272,-0.23,-5.28,-0.06,6.23,1785091941594.82
-0.925,-0.276,-0.229,-5.86,0.4,5.92,1785091941595.18
-0.928,-0.28,-0.228,-5.95,0.89,5.55,1785091941595.5652
-0.933,-0.279,-0.222,-5.37,1.28,4.82,1785091941595.946
-0.938,-0.28,-0.22,-4.06,1.65,4.39,1785091941596.301
-0.942,-0.281,-0.221,-2.56,1.89,3.94,1785091941596.666
-0.942,-0.28,-0.221,-1.22,2.11,3.3,1785091941597.013
-0.941,-0.28,-0.22,0.18,2.5,2.84,1785091941597.3508
-0.939,-0.283,-0.219,1.5,2.84,2.53,1785091941597.697
-0.935,-0.281,-0.216,2.96,3.05,2.17,1785091941598.05
-0.931,-0.277,-0.212,4.58,3.2,1.83,1785091941598.3933
-0.926,-0.272,-0.213,5.92,3.27,1.5,1785091941598.746
-0.924,-0.267,-0.213,6.62,3.33,1.13,1785091941599.061
-0.92,-0.263,-0.214,6.59,3.45,0.82,1785091941599.355
-0.918,-0.262,-0.214,6.07,3.69,0.58,1785091941599.662
-0.917,-0.263,-0.213,5.68,3.69,0.37,1785091941599.963
-0.916,-0.264,-0.211,5.49,3.48,0.24,1785091941600.263
-0.914,-0.261,-0.211,5.43,3.39,0.24,1785091941600.558
-0.911,-0.256,-0.211,5.16,3.23,0.34,1785091941600.848
-0.914,-0.255,-0.213,4.79,3.11,0.43,1785091941601.135
-0.913,-0.258,-0.212,4.33,3.14,0.52,1785091941601.419
-0.915,-0.264,-0.211,4.09,2.87,0.64,1785091941601.703
-0.919,-0.276,-0.219,4.73,2.69,0.7,1785091941602.008
-0.924,-0.299,-0.231,6.35,2.84,0.18,1785091941602.292
-0.926,-0.332,-0.242,8.85,3.33,-1.59,1785091941602.5842
-0.927,-0.358,-0.243,12.82,4.15,-4.46,1785091941602.883
-0.927,-0.358,-0.243,19.1,4.88,-7.84,1785091941603.189
-0.928,-0.375,-0.232,26.86,5.43,-11.23,1785091941603.4792
-0.933,-0.389,-0.227,34.15,5.83,-15.44,1785091941603.782
-0.936,-0.412,-0.226,39.67,6.13,-21.18,1785091941604.096
-0.944,-0.437,-0.233,39.67,6.13,-21.18,1785091941604.387
-0.964,-0.463,-0.247,43.15,6.44,-27.53,1785091941604.685
-0.981,-0.487,-0.249,45.35,7.26,-33.88,1785091941604.985
-0.992,-0.511,-0.242,46.88,8.27,-40.28,1785091941605.3008
-0.996,-0.525,-0.237,48.28,8.94,-46.39,1785091941605.588
-0.997,-0.534,-0.243,49.41,9.7,-52.43,1785091941605.887
-1.001,-0.548,-0.244,49.1,9.98,-59.24,1785091941606.1829
-1.002,-0.56,-0.231,47.46,9.61,-66.59,1785091941606.473
-0.987,-0.56,-0.22,47.12,9.03,-74.01,1785091941606.768
-0.974,-0.556,-0.233,49.13,9.28,-80.75,1785091941607.036
-0.989,-0.523,-0.24,47.33,7.87,-88.14,1785091941607.32
-0.982,-0.505,-0.208,43.82,5.95,-91.68,1785091941607.584
-0.922,-0.521,-0.229,42.7,4.7,-93.05,1785091941607.848
-0.921,-0.501,-0.239,38.06,5.46,-97.14,1785091941608.1128
-0.906,-0.527,-0.233,33.85,6.56,-95.03,1785091941608.381
-0.851,-0.534,-0.237,27.47,5.83,-95.1,1785091941608.6772
-0.839,-0.487,-0.234,18.68,6.56,-98.79,1785091941608.9568
-0.841,-0.47,-0.232,10.65,8.0,-98.48,1785091941609.2449
-0.829,-0.484,-0.221,2.81,8.61,-95.19,1785091941609.565
-0.805,-0.501,-0.206,-2.47,8.48,-90.67,1785091941609.876
-0.762,-0.528,-0.203,-3.11,8.97,-87.13,1785091941610.1538
-0.773,-0.551,-0.203,-0.55,10.25,-85.57,1785091941610.423
-0.79,-0.58,-0.21,1.77,8.79,-81.48,1785091941610.686
-0.753,-0.588,-0.217,2.47,7.14,-79.5,1785091941610.97
-0.739,-0.615,-0.212,6.1,7.93,-77.21,1785091941611.233
-0.711,-0.634,-0.224,9.22,8.36,-76.33,1785091941611.522
-0.704,-0.594,-0.231,7.78,9.13,-79.1,1785091941611.841
-0.723,-0.581,-0.223,6.16,11.41,-79.01,1785091941612.1228
-0.746,-0.623,-0.213,4.88,11.51,-74.31,1785091941612.4102
-0.733,-0.674,-0.209,3.81,8.94,-69.95,1785091941612.685
-0.718,-0.711,-0.206,5.46,7.75,-70.25,1785091941612.9602
-0.733,-0.753,-0.202,8.36,8.21,-73.06,1785091941613.213
-0.788,-0.811,-0.201,10.35,6.74,-75.17,1785091941613.5007
-0.806,-0.885,-0.191,12.39,4.0,-73.82,1785091941613.7869
-0.785,-0.917,-0.167,15.99,2.08,-74.8,1785091941614.054
-0.775,-0.869,-0.127,20.84,0.34,-80.54,1785091941614.311
-0.815,-0.828,-0.083,28.41,-2.14,-84.02,1785091941614.584
-0.831,-0.855,-0.057,39.06,-7.2,-80.45,1785091941614.829
-0.781,-0.9,-0.046,50.69,-13.7,-77.61,1785091941615.0698
-0.745,-0.909,-0.041,62.41,-19.26,-82.8,1785091941615.316
-0.749,-0.905,-0.054,72.12,-23.13,-90.09,1785091941615.583
-0.738,-0.891,-0.078,75.41,-27.56,-95.07,1785091941615.844
-0.705,-0.852,-0.097,72.91,-30.37,-98.97,1785091941616.081
-0.657,-0.813,-0.128,66.96,-30.67,-101.02,1785091941616.336
-0.639,-0.777,-0.162,55.73,-30.15,-102.82,1785091941616.592
-0.611,-0.748,-0.182,40.38,-29.27,-101.84,1785091941616.8398
-0.571,-0.704,-0.19,24.54,-27.77,-100.25,1785091941617.095
-0.53,-0.66,-0.188,9.89,-24.93,-98.64,1785091941617.336
-0.491,-0.637,-0.176,-4.06,-21.94,-96.16,1785091941617.585
-0.448,-0.652,-0.157,-15.99,-19.68,-93.36,1785091941617.825
-0.421,-0.68,-0.133,-24.23,-17.85,-91.13,1785091941618.1199
-0.402,-0.693,-0.121,-27.8,-16.17,-87.86,1785091941618.377
-0.386,-0.698,-0.122,-28.47,-14.92,-83.47,1785091941618.6152
-0.378,-0.697,-0.135,-29.39,-14.28,-78.77,1785091941618.862
-0.374,-0.694,-0.155,-31.53,-13.37,-73.52,1785091941619.1301
-0.375,-0.689,-0.175,-35.31,-11.75,-68.03,1785091941619.3818
-0.376,-0.673,-0.2,-41.23,-9.8,-62.23,1785091941619.6323
-0.37,-0.654,-0.227,-48.46,-7.11,-55.85,1785091941619.8762
-0.356,-0.636,-0.242,-56.61,-3.91,-49.13,1785091941620.1223
-0.346,-0.636,-0.241,-65.19,-0.85,-43.24,1785091941620.358
-0.351,-0.667,-0.24,-73.4,1.59,-38.42,1785091941620.5872
-0.366,-0.696,-0.238,-81.15,3.14,-34.67,1785091941620.832
-0.378,-0.699,-0.238,-87.37,4.12,-30.46,1785091941621.053
-0.384,-0.691,-0.242,-91.59,4.73,-26.0,1785091941621.279
-0.386,-0.712,-0.247,-92.75,6.62,-20.78,1785091941621.501
-0.401,-0.745,-0.252,-93.6,7.2,-16.66,1785091941621.7239
-0.419,-0.761,-0.246,-94.36,6.01,-13.21,1785091941621.943
-0.433,-0.78,-0.25,-92.17,4.76,-9.92,1785091941622.168
-0.447,-0.798,-0.26,-87.8,3.91,-6.93,1785091941622.3892
-0.461,-0.814,-0.264,-82.4,2.5,-4.52,1785091941622.611
-0.474,-0.83,-0.266,-76.08,0.52,-2.9,1785091941622.854
-0.488,-0.841,-0.263,-69.06,-1.86,-1.98,1785091941623.0881
-0.499,-0.843,-0.259,-60.52,-4.67,-0.7,1785091941623.3079
-0.502,-0.841,-0.26,-50.72,-7.81,1.07,1785091941623.531
-0.505,-0.832,-0.266,-40.65,-10.5,3.39,1785091941623.7532
-0.504,-0.831,-0.279,-31.34,-12.7,5.52,1785091941623.992
-0.508,-0.831,-0.288,-24.17,-14.65,6.2,1785091941624.207
-0.514,-0.832,-0.291,-19.26,-16.11,6.87,1785091941624.427
-0.506,-0.849,-0.297,-15.05,-17.49,7.23,1785091941624.651
-0.516,-0.859,-0.305,-12.18,-18.16,5.71,1785091941624.867
-0.519,-0.855,-0.304,-10.59,-18.25,5.01,1785091941625.088
-0.501,-0.848,-0.302,-8.51,-18.19,5.62,1785091941625.307
-0.489,-0.838,-0.299,-6.32,-18.13,5.77,1785091941625.526
-0.48,-0.832,-0.292,-5.1,-18.4,5.77,1785091941625.74
-0.466,-0.83,-0.288,-4.27,-18.68,5.89,1785091941625.957
-0.452,-0.825,-0.28,-3.3,-18.8,5.95,1785091941626.177
-0.441,-0.812,-0.275,-2.23,-19.07,6.41,1785091941626.385
-0.426,-0.799,-0.28,-1.31,-19.35,6.93,1785091941626.595
-0.416,-0.793,-0.285,0.06,-19.23,7.54,1785091941626.819
-0.407,-0.798,-0.289,1.59,-19.23,7.84,1785091941627.022
-0.405,-0.804,-0.295,3.14,-19.35,7.63,1785091941627.2322
-0.403,-0.805,-0.295,4.52,-19.29,7.93,1785091941627.444
-0.392,-0.809,-0.299,6.13,-18.8,8.39,1785091941627.645
-0.384,-0.816,-0.298,7.26,-18.1,8.73,1785091941627.871
-0.385,-0.824,-0.303,7.45,-17.4,9.19,1785091941628.083
-0.388,-0.834,-0.308,6.41,-16.63,9.46,1785091941628.294
-0.393,-0.84,-0.304,4.18,-15.72,9.49,1785091941628.506
-0.388,-0.846,-0.298,1.95,-14.98,9.92,1785091941628.713
-0.383,-0.86,-0.289,1.04,-14.07,10.35,1785091941628.9192
-0.387,-0.868,-0.285,1.16,-13.4,10.04,1785091941629.122
-0.39,-0.869,-0.288,2.32,-12.76,9.92,1785091941629.37
-0.398,-0.869,-0.291,3.48,-12.09,9.95,1785091941629.625
-0.409,-0.867,-0.29,3.36,-11.81,9.49,1785091941629.8281
-0.414,-0.87,-0.287,2.29,-11.35,9.03,1785091941630.036
-0.415,-0.883,-0.29,1.34,-10.41,8.58,1785091941630.2478
-0.419,-0.891,-0.291,0.43,-9.7,7.78,1785091941630.4531
-0.421,-0.89,-0.293,-0.18,-9.13,6.99,1785091941630.657
-0.426,-0.891,-0.301,-0.46,-8.42,6.07,1785091941630.8633
-0.429,-0.892,-0.307,-0.92,-7.78,5.16,1785091941631.071
-0.43,-0.889,-0.313,-2.14,-6.93,4.06,1785091941631.271
-0.433,-0.879,-0.318,-3.39,-5.77,3.23,1785091941631.4768
-0.436,-0.873,-0.317,-4.67,-4.58,2.72,1785091941631.684
-0.435,-0.862,-0.314,-6.65,-3.85,1.98,1785091941631.8828
-0.437,-0.85,-0.307,-9.22,-3.14,1.22,1785091941632.093
-0.44,-0.845,-0.297,-12.05,-2.72,0.52,1785091941632.3
-0.444,-0.847,-0.29,-14.95,-2.41,-0.15,1785091941632.499
-0.446,-0.851,-0.283,-17.3,-2.2,-0.67,1785091941632.701
-0.447,-0.851,-0.28,-18.56,-2.2,-1.34,1785091941632.9082
-0.448,-0.846,-0.281,-18.52,-2.35,-2.08,1785091941633.118
-0.445,-0.842,-0.286,-16.97,-2.72,-2.72,1785091941633.322
-0.445,-0.836,-0.291,-14.86,-3.27,-3.63,1785091941633.53
-0.446,-0.825,-0.296,-12.3,-3.75,-4.27,1785091941633.74
-0.444,-0.823,-0.307,-9.25,-4.52,-4.58,1785091941633.939
-0.448,-0.817,-0.319,-6.78,-4.94,-4.94,1785091941634.144
-0.448,-0.817,-0.319,-5.28,-4.82,-5.04,1785091941634.345
-0.451,-0.811,-0.318,-4.12,-4.73,-4.82,1785091941634.531
-0.452,-0.81,-0.318,-3.85,-4.46,-4.73,1785091941634.727
-0.456,-0.817,-0.317,-5.07,-4.03,-5.01,1785091941634.926
-0.462,-0.821,-0.312,-6.47,-3.42,-5.04,1785091941635.118
-0.463,-0.819,-0.306,-6.47,-3.42,-5.04,1785091941635.315
-0.46,-0.818,-0.297,-7.26,-2.66,-4.64,1785091941635.515
-0.456,-0.817,-0.294,-7.72,-2.23,-4.46,1785091941635.705
-0.457,-0.82,-0.295,-7.69,-1.98,-4.73,1785091941635.9
-0.458,-0.825,-0.301,-7.35,-1.71,-5.13,1785091941636.1038
-0.461,-0.825,-0.31,-6.93,-1.34,-5.77,1785091941636.291
-0.461,-0.824,-0.313,-5.49,-0.61,-6.04,1785091941636.488
-0.462,-0.824,-0.316,-3.75,-0.06,-6.32,1785091941636.689
-0.458,-0.82,-0.316,-2.08,0.34,-6.35,1785091941636.893
-0.453,-0.815,-0.32,-0.09,0.61,-6.26,1785091941637.087
-0.452,-0.811,-0.32,1.34,0.85,-6.04,1785091941637.2969
-0.451,-0.802,-0.315,2.23,1.07,-5.31,1785091941637.4888
-0.446,-0.8,-0.318,3.85,1.53,-3.54,1785091941637.865
-0.445,-0.81,-0.322,4.03,1.68,-3.2,1785091941638.055
-1.89,-0.481,-0.19,-39.31,-10.68,-58.11,1785091941638.4158
-1.873,-0.138,0.001,-32.2,5.04,-76.45,1785091941638.606
-1.88,0.027,0.12,-6.93,20.63,-95.71,1785091941638.797
-1.942,0.12,0.138,12.82,29.02,-120.88,1785091941640.523
-1.958,0.172,0.079,14.16,29.82,-138.19,1785091941653.718
-1.911,0.118,0.035,-2.04,30.0,-140.96,1785091941659.392
-1.817,0.056,0.065,-27.71,27.99,-129.49,1785091941670.079
-1.645,-0.032,0.105,-42.57,21.64,-106.88,1785091941680.737
-1.446,-0.154,0.088,-39.8,9.58,-81.3,1785091941693.9849
-1.258,-0.252,0.058,-26.7,-5.01,-54.41,1785091941699.5908
-1.097,-0.35,0.014,-6.07,-19.47,-26.12,1785091941709.877
-1.097,-0.35,0.014,16.02,-33.42,0.73,1785091941720.3928
-0.989,-0.414,-0.095,33.45,-46.33,27.04,1785091941733.6353
-0.906,-0.437,-0.242,41.9,-56.61,52.13,1785091941739.344
-0.824,-0.445,-0.355,45.08,-64.21,74.34,1785091941749.8381
-0.761,-0.489,-0.435,47.58,-69.49,93.11,1785091941760.4448
-0.699,-0.564,-0.513,47.58,-69.49,93.11,1785091941773.7578
-0.653,-0.618,-0.544,48.62,-72.6,108.65,1785091941779.5168
-0.608,-0.655,-0.507,51.12,-75.17,122.23,1785091941790.038
-0.513,-0.698,-0.504,56.58,-78.55,134.25,1785091941800.733
-0.47,-0.738,-0.531,58.17,-81.15,141.54,1785091941814.003
-0.506,-0.834,-0.523,54.38,-82.61,147.04,1785091941819.858
-0.564,-1.008,-0.524,49.96,-84.29,150.36,1785091941830.6282
-0.604,-1.116,-0.528,48.16,-86.49,147.19,1785091941843.8777
-0.615,-1.076,-0.581,58.2,-87.41,143.25,1785091941849.961
-0.617,-0.971,-0.64,79.44,-86.49,143.28,1785091941860.291
-0.627,-0.871,-0.702,100.16,-85.27,144.41,1785091941871.0972
-0.647,-0.745,-0.758,109.56,-81.76,146.0,1785091941884.296
-0.661,-0.652,-0.775,107.33,-74.56,151.59,1785091941890.532
-0.636,-0.652,-0.734,99.25,-65.31,158.51,1785091941900.9158
-0.6,-0.666,-0.686,83.71,-59.45,162.14,1785091941914.195
-0.518,-0.715,-0.613,62.99,-54.26,164.4,1785091941920.079
-0.532,-0.753,-0.557,46.66,-47.49,160.83,1785091941930.6282
-0.552,-0.719,-0.624,36.56,-42.21,155.25,1785091941943.84
-0.557,-0.613,-0.709,30.52,-34.03,151.1,1785091941949.9258
-0.53,-0.536,-0.719,28.99,-27.28,148.78,1785091941960.331
-0.518,-0.456,-0.712,27.47,-20.75,143.31,1785091941970.9702
-0.564,-0.372,-0.654,15.66,-12.09,138.13,1785091941984.211
-0.601,-0.42,-0.571,1.13,-5.62,135.53,1785091941990.3062
-0.638,-0.516,-0.511,-11.2,-3.81,130.13,1785091942000.363
-0.721,-0.558,-0.447,-20.36,-3.05,122.35,1785091942010.988
-0.781,-0.576,-0.44,-20.72,-3.17,116.89,1785091942024.2131
-0.801,-0.55,-0.507,-14.44,-1.95,112.06,1785091942030.242
-0.784,-0.516,-0.549,-4.82,1.77,106.33,1785091942040.326
-0.771,-0.496,-0.529,6.93,4.76,97.63,1785091942050.666
-0.777,-0.447,-0.471,17.52,5.92,86.58,1785091942063.894
-0.782,-0.376,-0.398,24.69,6.87,76.91,1785091942069.9329
-0.789,-0.339,-0.337,27.5,8.24,68.45,1785091942079.8809
-0.786,-0.353,-0.317,27.25,8.91,58.96,1785091942090.338
-0.799,-0.371,-0.323,23.44,7.93,47.18,1785091942100.781
-0.802,-0.35,-0.339,18.25,5.25,34.64,1785091942114.0962
-0.789,-0.297,-0.417,14.28,2.04,25.09,1785091942119.92
-0.827,-0.151,-0.467,9.7,1.43,18.95,1785091942130.049
-0.87,-0.107,-0.525,2.87,2.72,19.26,1785091942140.2869
-0.911,-0.144,-0.494,-15.78,3.91,15.99,1785091942150.781
-0.957,-0.141,-0.445,-36.71,2.53,10.8,1785091942164.01
-0.987,-0.178,-0.424,-51.88,2.47,10.62,1785091942170.056
-0.998,-0.21,-0.397,-66.47,2.87,11.6,1785091942179.9949
-0.976,-0.236,-0.358,-77.97,2.78,12.27,1785091942190.5862
-0.934,-0.274,-0.325,-82.98,2.47,10.62,1785091942200.9348
-0.9,-0.265,-0.326,-83.83,1.62,7.29,1785091942214.232
-0.877,-0.224,-0.347,-81.39,2.01,4.58,1785091942219.778
-0.865,-0.161,-0.346,-77.67,4.49,3.72,1785091942230.091
-0.851,-0.128,-0.344,-72.91,6.47,5.37,1785091942240.257
-0.851,-0.152,-0.334,-69.89,8.39,5.89,1785091942250.5688
-0.85,-0.19,-0.29,-68.21,10.59,4.97,1785091942261.088
-0.84,-0.238,-0.242,-61.8,12.48,4.55,1785091942274.423
-0.84,-0.273,-0.205,-50.05,13.76,3.97,1785091942280.129
-0.846,-0.271,-0.185,-35.77,14.19,2.59,1785091942290.2578
-0.857,-0.255,-0.182,-20.78,13.73,0.21,1785091942300.6877
-0.878,-0.227,-0.189,-7.42,12.51,-3.6,1785091942311.126
-0.906,-0.178,-0.203,1.98,11.41,-7.14,1785091942324.379
-0.937,-0.133,-0.239,6.68,10.56,-8.76,1785091942330.0889
-0.968,-0.122,-0.273,4.91,10.19,-9.49,1785091942340.136
-0.995,-0.124,-0.276,-3.05,10.5,-11.44,1785091942350.462
-1.001,-0.146,-0.258,-12.24,10.38,-13.06,1785091942361.058
-0.992,-0.181,-0.231,-18.46,9.77,-15.02,1785091942374.381
-0.974,-0.194,-0.209,-21.94,7.93,-18.4,1785091942380.1228
-0.954,-0.184,-0.195,-24.23,5.31,-22.43,1785091942390.2732
-0.94,-0.167,-0.195,-26.58,2.04,-26.31,1785091942400.648
-0.939,-0.142,-0.207,-31.92,-0.46,-29.79,1785091942413.9421
-0.938,-0.124,-0.21,-41.72,-2.08,-31.95,1785091942419.7178
-0.924,-0.148,-0.211,-52.83,-3.85,-33.36,1785091942430.038
-0.916,-0.18,-0.2,-64.42,-5.28,-35.4,1785091942440.417
-0.913,-0.218,-0.184,-73.82,-7.02,-36.9,1785091942450.8228
-0.903,-0.267,-0.189,-80.81,-8.79,-38.76,1785091942464.121
-0.886,-0.312,-0.194,-85.94,-9.95,-41.9,1785091942470.054
-0.862,-0.353,-0.184,-88.23,-10.25,-46.27,1785091942480.115
-0.85,-0.367,-0.162,-88.44,-10.1,-51.79,1785091942490.756
-0.853,-0.363,-0.152,-86.86,-10.16,-57.56,1785091942503.8708
-0.864,-0.366,-0.155,-84.84,-10.28,-62.87,1785091942509.997
-0.892,-0.382,-0.157,-83.32,-10.59,-68.21,1785091942520.052
-0.92,-0.391,-0.155,-82.61,-11.54,-72.76,1785091942530.642
-0.935,-0.392,-0.156,-82.37,-12.63,-74.68,1785091942543.992
-0.933,-0.368,-0.176,-84.48,-14.5,-75.69,1785091942549.956
-0.963,-0.337,-0.18,-87.89,-15.05,-76.3,1785091942560.114
-1.011,-0.331,-0.17,-91.68,-16.57,-73.31,1785091942570.6738
-0.994,-0.374,-0.163,-93.14,-18.07,-68.09,1785091942583.8772
-0.967,-0.392,-0.173,-92.68,-20.02,-68.36,1785091942590.208
-0.967,-0.364,-0.181,-93.08,-23.35,-70.53,1785091942600.061
-0.969,-0.34,-0.2,-94.7,-26.52,-70.5,1785091942610.656
-0.971,-0.329,-0.227,-98.42,-28.14,-69.8,1785091942623.947
-0.982,-0.321,-0.248,-105.41,-28.78,-69.15,1785091942630.1812
-0.988,-0.34,-0.269,-114.6,-28.87,-69.49,1785091942640.39
-0.99,-0.366,-0.271,-125.25,-28.14,-71.54,1785091942650.919
-0.997,-0.38,-0.252,-134.98,-26.58,-74.34,1785091942664.163
-1.001,-0.387,-0.238,-141.45,-24.96,-76.66,1785091942670.233
-1.007,-0.374,-0.232,-147.01,-24.6,-79.17,1785091942680.638
-1.06,-0.312,-0.251,-156.1,-26.95,-82.4,1785091942693.892
-1.022,-0.296,-0.371,-170.96,-31.07,-82.92,1785091942699.751
-1.069,-0.256,-0.467,-195.5,-29.63,-87.74,1785091942710.373
-1.074,-0.338,-0.531,-217.84,-23.53,-84.84,1785091942720.9502
-1.07,-0.439,-0.518,-236.03,-16.54,-86.09,1785091942734.232
-1.03,-0.513,-0.445,-242.65,-8.7,-88.08,1785091942741.3472
-1.006,-0.559,-0.38,-241.1,-2.78,-92.53,1785091942750.562
-1.027,-0.565,-0.321,-237.95,0.92,-97.57,1785091942761.03
-1.022,-0.595,-0.283,-229.96,4.61,-98.15,1785091942774.4583
-1.007,-0.619,-0.289,-219.73,8.18,-101.38,1785091942780.1978
-1.015,-0.579,-0.332,-211.89,10.86,-109.01,1785091942790.8071
-1.014,-0.539,-0.41,-203.65,14.86,-115.36,1785091942803.978
-1.036,-0.507,-0.469,-198.22,20.33,-120.58,1785091942810.27
-1.08,-0.466,-0.468,-198.1,25.51,-124.24,1785091942820.732
-1.096,-0.466,-0.448,-197.61,31.5,-124.97,1785091942833.981
-1.095,-0.497,-0.428,-195.29,37.02,-126.35,1785091942840.142
-1.073,-0.547,-0.436,-187.14,42.66,-128.36,1785091942850.719
-1.059,-0.59,-0.461,-172.34,48.1,-130.99,1785091942863.955
-1.072,-0.587,-0.452,-155.06,52.61,-133.43,1785091942870.122
-1.095,-0.561,-0.407,-136.57,54.41,-133.18,1785091942880.7302
-1.102,-0.534,-0.341,-119.6,53.19,-130.56,1785091942893.96
-1.112,-0.475,-0.378,-109.16,49.32,-126.59,1785091942899.831
-1.096,-0.448,-0.531,-103.67,50.78,-122.29,1785091942910.646
-1.1,-0.445,-0.561,-105.14,57.65,-119.11,1785091942923.855
-1.102,-0.417,-0.552,-110.84,61.19,-116.79,1785091942930.018
-1.075,-0.45,-0.558,-114.17,63.51,-113.77,1785091942940.5972
-1.033,-0.499,-0.539,-116.58,65.43,-112.4,1785091942953.839
-1.006,-0.501,-0.556,-116.64,65.89,-111.73,1785091942959.786
-1.004,-0.471,-0.578,-114.96,66.19,-111.12,1785091942970.5862
-1.024,-0.41,-0.682,-115.67,65.92,-110.02,1785091942983.799
-1.022,-0.388,-0.787,-118.69,68.21,-107.15,1785091942989.9038
-1.022,-0.388,-0.787,-123.84,71.9,-108.37,1785091943000.602
-1.016,-0.405,-0.8,-125.98,74.95,-113.99,1785091943013.8398
-1.029,-0.435,-0.75,-120.52,77.06,-116.76,1785091943019.7031
-1.045,-0.456,-0.67,-105.75,77.76,-114.81,1785091943030.52
-1.044,-0.473,-0.606,-83.62,78.98,-110.42,1785091943041.2039
-1.022,-0.496,-0.584,-83.62,78.98,-110.42,1785091943054.358
-0.99,-0.501,-0.601,-61.1,80.87,-107.21,1785091943060.313
-0.957,-0.48,-0.644,-43.49,83.04,-105.56,1785091943070.82
-0.927,-0.462,-0.713,-31.68,84.51,-103.95,1785091943084.0508
-0.912,-0.449,-0.787,-26.4,85.51,-102.21,1785091943090.203
-0.907,-0.44,-0.879,-27.71,86.7,-99.95,1785091943100.427
-0.911,-0.448,-0.911,-34.76,90.0,-97.54,1785091943110.999
-0.906,-0.458,-0.878,-44.5,92.96,-96.01,1785091943124.228
-0.911,-0.468,-0.848,-50.39,96.32,-95.34,1785091943130.272
-0.87,-0.455,-0.777,-47.67,100.65,-95.37,1785091943140.6238
-0.848,-0.417,-0.716,-43.24,95.03,-90.24,1785091943151.0642
-0.81,-0.342,-0.697,-36.38,91.74,-83.83,1785091943164.32
-0.775,-0.325,-0.724,-28.23,92.38,-78.07,1785091943170.426
-0.741,-0.353,-0.756,-29.21,93.36,-76.33,1785091943180.619
-0.7,-0.396,-0.79,-37.93,94.21,-77.97,1785091943191.1978
-0.691,-0.468,-0.814,-45.2,95.58,-79.5,1785091943204.34
-0.691,-0.5,-0.861,-49.2,96.29,-77.64,1785091943209.982
-0.68,-0.475,-0.885,-50.78,98.42,-72.54,1785091943220.558
-0.676,-0.421,-0.814,-53.68,101.29,-67.08,1785091943233.8188
-0.655,-0.337,-0.749,-62.87,100.86,-60.73,1785091943239.862
-0.605,-0.255,-0.719,-79.71,98.82,-53.35,1785091943250.177
-0.549,-0.198,-0.735,-103.31,96.35,-48.01,1785091943260.7942
-0.521,-0.195,-0.75,-129.43,94.0,-44.25,1785091943274.1492
-0.512,-0.237,-0.759,-150.58,90.03,-39.64,1785091943279.9849
-0.482,-0.293,-0.79,-158.24,86.58,-34.42,1785091943290.419
-0.464,-0.369,-0.781,-149.51,85.39,-31.56,1785091943301.15
-0.463,-0.418,-0.752,-129.31,82.92,-29.94,1785091943314.398
-0.455,-0.41,-0.711,-103.64,78.31,-27.19,1785091943320.311
-0.447,-0.372,-0.75,-75.84,72.97,-24.75,1785091943330.788
-0.426,-0.329,-0.774,-53.01,70.74,-24.35,1785091943344.146
-0.43,-0.283,-0.696,-37.87,68.76,-27.19,1785091943350.146
-0.409,-0.254,-0.734,-26.37,65.43,-27.59,1785091943360.238
-0.361,-0.263,-0.8,-16.82,67.02,-26.8,1785091943370.819
-0.327,-0.23,-0.821,-12.97,69.28,-26.4,1785091943384.073
-0.293,-0.169,-0.832,-13.61,70.74,-24.05,1785091943390.386
-0.276,-0.128,-0.774,-17.24,71.69,-20.94,1785091943400.1729
-0.265,-0.134,-0.696,-21.27,69.89,-19.23,1785091943410.7578
-0.275,-0.164,-0.63,-24.35,65.58,-18.52,1785091943424.095
-0.273,-0.181,-0.603,-24.29,59.27,-17.43,1785091943430.24
-0.249,-0.165,-0.628,-19.59,54.51,-17.27,1785091943440.2712
-0.212,-0.145,-0.658,-12.51,52.89,-18.1,1785091943450.772
-0.163,-0.106,-0.731,-6.81,50.69,-18.8,1785091943463.9958
-0.099,-0.033,-0.812,-7.05,48.43,-16.63,1785091943470.052
-0.048,0.022,-0.88,-13.79,47.15,-12.3,1785091943480.072
-0.035,0.006,-0.93,-26.49,47.06,-8.97,1785091943490.623
-0.081,-0.053,-0.956,-44.95,46.66,-6.23,1785091943500.954
-0.145,-0.09,-0.962,-64.0,46.21,-2.04,1785091943514.2168
-0.195,-0.125,-0.972,-72.63,46.02,2.14,1785091943519.99
-0.199,-0.13,-1.006,-66.9,47.52,5.71,1785091943530.1719
-0.126,-0.088,-0.999,-47.0,51.39,9.89,1785091943540.702
-0.023,-0.026,-0.953,-13.92,56.58,13.18,1785091943553.751
0.062,0.027,-0.934,22.13,62.87,15.44,1785091943559.598
0.09,0.034,-0.975,47.18,68.09,15.72,1785091943570.1409
0.06,-0.003,-1.055,51.82,74.01,14.8,1785091943580.639
-0.01,-0.055,-1.091,36.93,82.31,14.01,1785091943593.876
-0.061,-0.084,-1.091,15.05,91.19,14.25,1785091943599.906
-0.086,-0.099,-1.1,-7.63,94.52,21.88,1785091943610.13
-0.08,-0.099,-1.076,-18.19,100.07,29.27,1785091943620.679
-0.043,-0.055,-1.075,-15.5,104.28,33.63,1785091943633.9043
0.033,-0.025,-1.066,-2.29,108.46,36.26,1785091943640.0159
0.096,-0.024,-1.04,13.79,112.06,33.78,1785091943650.2532
0.107,-0.048,-0.988,24.38,114.72,27.56,1785091943660.976
0.065,-0.082,-0.976,25.06,116.12,23.71,1785091943674.2651
0.011,-0.121,-1.007,15.11,117.28,25.91,1785091943680.073
-0.024,-0.148,-1.03,-2.96,118.63,32.14,1785091943690.645
-0.032,-0.151,-0.975,-23.01,120.64,39.28,1785091943701.122
-0.023,-0.157,-0.929,-36.59,121.49,46.24,1785091943714.419
-0.006,-0.176,-0.941,-42.54,121.56,51.18,1785091943720.329
0.021,-0.161,-0.97,-44.07,121.37,53.1,1785091943730.866
0.077,-0.11,-0.966,-42.94,121.34,53.62,1785091943744.212
0.111,-0.063,-0.937,-41.44,120.79,52.31,1785091943750.199
0.125,-0.073,-0.92,-43.67,119.11,50.81,1785091943760.648
0.13,-0.132,-0.93,-51.27,117.22,50.29,1785091943773.919
0.125,-0.186,-0.899,-61.28,116.09,51.27,1785091943779.712
0.115,-0.204,-0.82,-66.9,114.32,54.32,1785091943790.3098
0.122,-0.208,-0.782,-63.33,112.28,58.9,1785091943800.8909
0.148,-0.202,-0.753,-54.75,111.51,61.8,1785091943814.1648
0.18,-0.189,-0.719,-45.87,110.32,61.86,1785091943820.097
0.19,-0.176,-0.755,-39.34,109.07,59.18,1785091943830.6199
0.195,-0.171,-0.813,-40.04,109.68,55.48,1785091943843.966
0.209,-0.142,-0.798,-48.95,111.88,52.34,1785091943849.9148
0.236,-0.143,-0.728,-57.41,113.59,52.34,1785091943860.3608
0.269,-0.172,-0.669,-61.83,113.53,54.08,1785091943870.994
0.296,-0.197,-0.648,-62.44,111.67,55.27,1785091943884.185
0.315,-0.206,-0.648,-60.37,109.87,55.42,1785091943890.365
0.333,-0.186,-0.619,-58.14,108.52,56.46,1785091943900.65
0.364,-0.152,-0.617,-55.36,106.63,59.24,1785091943913.951
0.414,-0.118,-0.641,-53.5,106.39,62.65,1785091943919.815
0.449,-0.07,-0.599,-55.15,106.72,66.47,1785091943930.419
0.473,-0.051,-0.569,-55.51,106.36,70.65,1785091943941.075
0.5,-0.088,-0.577,-55.3,106.78,73.64,1785091943954.277
0.485,-0.117,-0.581,-59.27,107.64,73.85,1785091943960.2407
0.444,-0.136,-0.593,-65.74,108.62,74.95,1785091943970.7131
0.407,-0.162,-0.629,-73.98,110.29,77.7,1785091943983.9402
0.374,-0.201,-0.686,-81.73,114.11,78.46,1785091943990.108
0.345,-0.242,-0.68,-86.12,120.21,76.66,1785091944000.2183
0.344,-0.255,-0.593,-82.58,125.4,75.62,1785091944011.1238
0.403,-0.263,-0.451,-66.13,126.65,74.98,1785091944024.292
0.487,-0.237,-0.383,-39.43,123.97,73.79,1785091944030.438
0.546,-0.21,-0.345,-10.86,122.14,72.85,1785091944040.7732
0.588,-0.136,-0.282,7.35,118.56,71.14,1785091944054.045
0.643,-0.044,-0.245,12.15,112.25,72.02,1785091944060.0022
0.668,0.003,-0.237,4.85,107.03,74.53,1785091944070.2642
0.658,0.016,-0.238,-15.29,102.63,77.3,1785091944080.9211
0.636,0.001,-0.223,-43.52,98.24,80.26,1785091944094.136
0.621,-0.039,-0.203,-69.52,94.15,82.74,1785091944100.053
0.626,-0.138,-0.171,-81.85,89.54,84.44,1785091944110.394
0.633,-0.231,-0.125,-78.98,82.03,85.24,1785091944120.908
0.63,-0.277,-0.121,-62.2,71.63,86.61,1785091944134.156
0.631,-0.279,-0.16,-38.03,61.65,90.06,1785091944140.0918
0.632,-0.244,-0.23,-17.03,55.09,93.23,1785091944150.368
0.651,-0.206,-0.292,-7.29,52.03,96.53,1785091944160.811
0.666,-0.185,-0.321,-11.14,50.81,99.28,1785091944174.0151
0.653,-0.19,-0.327,-25.33,50.14,101.57,1785091944180.0288
0.643,-0.23,-0.309,-43.09,49.26,104.5,1785091944190.666
0.642,-0.291,-0.269,-57.5,47.91,107.94,1785091944201.142
0.641,-0.353,-0.246,-62.5,47.67,108.95,1785091944214.455
0.663,-0.386,-0.209,-65.4,44.34,111.58,1785091944220.327
0.644,-0.375,-0.197,-68.67,40.35,114.54,1785091944230.8801
0.638,-0.36,-0.216,-69.7,37.72,114.57,1785091944244.135
0.665,-0.37,-0.24,-71.23,35.31,114.69,1785091944250.1929
0.682,-0.385,-0.233,-71.26,34.36,113.65,1785091944260.635
0.662,-0.399,-0.23,-69.49,32.62,112.31,1785091944271.199
0.623,-0.416,-0.228,-67.45,30.73,111.94,1785091944284.441
0.623,-0.416,-0.228,-65.16,28.99,111.58,1785091944290.7168
0.569,-0.427,-0.218,-61.56,28.35,111.36,1785091944300.75
0.532,-0.433,-0.231,-57.41,29.88,111.33,1785091944314.1062
0.56,-0.441,-0.251,-58.9,29.54,113.19,1785091944320.033
0.612,-0.446,-0.302,-58.9,29.54,113.19,1785091944330.594
0.662,-0.451,-0.345,-64.79,32.2,114.41,1785091944343.926
0.701,-0.43,-0.313,-75.17,36.9,114.54,1785091944349.928
0.674,-0.434,-0.265,-89.66,35.43,118.14,1785091944360.3032
0.626,-0.486,-0.183,-97.08,35.0,120.21,1785091944370.968
0.585,-0.546,-0.1,-93.69,32.53,121.01,1785091944384.191
0.555,-0.578,-0.051,-79.38,27.13,122.56,1785091944390.383
0.549,-0.572,-0.06,-59.54,20.84,125.58,1785091944400.6199
0.566,-0.547,-0.113,-42.76,15.78,128.51,1785091944413.924
0.599,-0.523,-0.198,-34.52,13.46,130.13,1785091944419.758
0.647,-0.517,-0.274,-36.68,14.25,131.47,1785091944430.35
0.668,-0.528,-0.269,-47.76,16.39,132.05,1785091944441.041
0.61,-0.541,-0.186,-62.5,15.23,131.99,1785091944454.2332
0.498,-0.578,-0.103,-72.57,9.64,132.97,1785091944460.223
0.403,-0.638,-0.069,-75.44,1.5,134.77,1785091944470.571
0.364,-0.668,-0.092,-73.0,-6.47,134.46,1785091944481.0613
0.371,-0.679,-0.181,-66.77,-12.39,133.27,1785091944494.33
0.43,-0.695,-0.289,-59.54,-16.33,135.38,1785091944500.2493
0.517,-0.69,-0.376,-53.74,-17.88,137.73,1785091944510.8281
0.574,-0.685,-0.416,-50.54,-18.92,138.13,1785091944524.102
0.545,-0.708,-0.365,-49.65,-21.7,138.31,1785091944530.679
0.452,-0.763,-0.309,-47.7,-27.59,140.02,1785091944540.535
0.338,-0.818,-0.241,-42.82,-34.73,140.93,1785091944551.121
0.222,-0.831,-0.19,-34.88,-43.58,139.44,1785091944564.3552
0.159,-0.824,-0.222,-22.95,-52.16,138.4,1785091944570.46
0.181,-0.825,-0.353,-9.16,-56.64,138.83,1785091944580.7358
0.256,-0.827,-0.504,-1.5,-55.67,138.28,1785091944594.014
0.328,-0.83,-0.602,-3.63,-53.19,136.69,1785091944599.937
0.361,-0.847,-0.641,-11.75,-51.88,135.01,1785091944610.344
0.335,-0.877,-0.583,-22.92,-52.64,131.81,1785091944620.9211
0.246,-0.931,-0.448,-28.99,-56.83,126.71,1785091944634.186
0.138,-0.988,-0.284,-21.0,-63.2,121.19,1785091944640.262
0.044,-1.005,-0.209,1.01,-73.21,117.1,1785091944650.552
-0.013,-0.972,-0.277,28.26,-82.67,116.31,1785091944661.199
-0.027,-0.938,-0.425,50.94,-86.73,116.67,1785091944674.54
-0.013,-0.93,-0.583,59.79,-85.15,115.12,1785091944680.3809
-0.006,-0.903,-0.654,49.99,-81.12,111.7,1785091944690.9648
-0.015,-0.858,-0.681,27.25,-79.07,109.07,1785091944704.1
-0.021,-0.84,-0.714,0.27,-77.55,107.88,1785091944710.357
-0.016,-0.845,-0.705,-26.34,-76.27,106.72,1785091944720.5232
0.007,-0.852,-0.64,-46.48,-76.33,104.77,1785091944731.175
0.018,-0.872,-0.533,-54.02,-77.79,102.33,1785091944744.425
-0.027,-0.896,-0.4,-49.78,-81.79,100.22,1785091944750.484
-0.117,-0.929,-0.343,-36.9,-89.3,99.98,1785091944760.771
-0.199,-0.962,-0.376,-21.52,-96.74,101.26,1785091944774.112
-0.236,-0.97,-0.451,-8.21,-100.99,101.17,1785091944779.967
-0.237,-0.953,-0.557,2.04,-101.08,98.45,1785091944790.426
-0.214,-0.919,-0.65,7.26,-97.81,96.13,1785091944800.8408
-0.192,-0.884,-0.685,7.87,-93.3,95.43,1785091944814.113
-0.202,-0.858,-0.641,5.28,-90.46,94.49,1785091944819.9749
-0.231,-0.837,-0.628,1.37,-91.83,94.49,1785091944830.1199
-0.241,-0.837,-0.642,-4.0,-93.78,96.29,1785091944840.71
-0.256,-0.836,-0.599,-12.73,-95.55,96.74,1785091944851.0498
-0.293,-0.829,-0.547,-22.89,-98.21,95.71,1785091944864.304
-0.34,-0.84,-0.521,-33.08,-100.04,94.82,1785091944870.399
-0.394,-0.856,-0.53,-42.91,-101.87,93.78,1785091944880.748
-0.432,-0.884,-0.553,-48.31,-102.76,93.75,1785091944893.9421
-0.435,-0.915,-0.586,-47.73,-103.18,92.44,1785091944899.816
-0.44,-0.895,-0.629,-46.33,-104.46,86.49,1785091944910.429
-0.491,-0.845,-0.63,-47.67,-105.59,81.27,1785091944921.031
-0.538,-0.829,-0.63,-50.54,-108.92,80.45,1785091944934.272
-0.567,-0.827,-0.652,-55.06,-113.01,80.32,1785091944940.221
-0.567,-0.821,-0.691,-61.13,-116.0,79.74,1785091944950.725
-0.546,-0.815,-0.731,-66.74,-117.89,78.28,1785091944963.957
-0.523,-0.81,-0.765,-69.98,-117.83,75.44,1785091944970.0889
-0.523,-0.799,-0.766,-71.99,-117.22,72.12,1785091944980.4502
-0.539,-0.793,-0.725,-71.96,-117.92,69.67,1785091944991.107
-0.571,-0.804,-0.654,-67.42,-118.69,66.62,1785091945004.3398
-0.636,-0.83,-0.54,-58.23,-119.91,62.99,1785091945010.378
-0.687,-0.84,-0.502,-45.14,-123.33,59.94,1785091945020.751
-0.667,-0.829,-0.629,-29.6,-124.85,58.5,1785091945033.982
-0.634,-0.81,-0.713,-17.55,-122.26,58.41,1785091945039.958
-0.655,-0.781,-0.724,-13.73,-122.59,57.86,1785091945050.472
-0.72,-0.749,-0.705,-20.17,-124.58,57.56,1785091945061.181
-0.787,-0.708,-0.662,-34.42,-125.43,57.89,1785091945074.4163
-0.831,-0.678,-0.636,-49.23,-125.95,57.62,1785091945080.2761
-0.852,-0.655,-0.654,-60.24,-124.7,56.06,1785091945090.831
-0.855,-0.629,-0.694,-67.05,-119.88,52.22,1785091945104.0508
-0.83,-0.61,-0.716,-69.61,-113.47,47.33,1785091945110.2441
-0.795,-0.593,-0.71,-69.09,-109.47,42.88,1785091945120.5928
-0.795,-0.603,-0.671,-66.87,-109.5,39.31,1785091945133.78
-0.827,-0.646,-0.614,-63.75,-111.88,36.65,1785091945139.69
-0.867,-0.691,-0.544,-61.01,-114.75,33.54,1785091945150.217
-0.901,-0.701,-0.472,-56.79,-118.53,29.85,1785091945160.9038
-0.923,-0.675,-0.469,-48.83,-122.26,27.13,1785091945174.249
-0.921,-0.617,-0.549,-39.7,-123.05,26.0,1785091945180.0918
-0.906,-0.544,-0.646,-32.84,-120.21,25.06,1785091945190.798
-0.885,-0.476,-0.729,-31.62,-115.54,23.59,1785091945203.872
-0.897,-0.421,-0.752,-37.72,-111.18,21.21,1785091945209.7249
-0.909,-0.407,-0.716,-49.78,-108.65,18.77,1785091945220.314
-0.913,-0.441,-0.636,-63.75,-107.82,16.39,1785091945230.998
-0.917,-0.481,-0.537,-74.34,-108.28,14.31,1785091945244.2297
-0.926,-0.523,-0.441,-76.85,-109.41,12.94,1785091945250.382
-0.948,-0.554,-0.379,-71.81,-110.35,11.51,1785091945260.709
-0.973,-0.558,-0.383,-63.08,-110.81,9.83,1785091945273.966
-0.988,-0.523,-0.469,-53.5,-109.23,8.39,1785091945279.77
-0.991,-0.465,-0.597,-45.69,-105.11,7.02,1785091945290.137
-0.998,-0.418,-0.664,-42.63,-99.86,4.43,1785091945300.551
-0.998,-0.407,-0.653,-45.9,-99.49,1.62,1785091945311.0132
-0.954,-0.412,-0.528,-48.62,-91.07,-6.74,1785091945324.352
-0.967,-0.492,-0.487,-48.68,-91.16,-12.27,1785091945330.333
-0.945,-0.448,-0.405,-51.36,-94.97,-23.71,1785091945340.4841
-0.999,-0.416,-0.352,-46.45,-92.29,-28.99,1785091945350.98
-0.97,-0.477,-0.436,-35.52,-89.48,-27.99,1785091945364.205
-0.981,-0.419,-0.563,-31.65,-84.75,-31.65,1785091945370.193
-0.972,-0.354,-0.631,-29.24,-76.42,-32.2,1785091945380.405
-0.968,-0.334,-0.603,-29.82,-69.89,-32.04,1785091945390.992
-0.921,-0.348,-0.539,-34.27,-66.47,-34.18,1785091945404.31
-0.916,-0.336,-0.441,-40.04,-63.17,-37.9,1785091945410.25
-0.908,-0.391,-0.363,-36.16,-57.04,-34.73,1785091945420.352
-0.925,-0.439,-0.318,-27.47,-53.1,-32.29,1785091945430.948
-0.935,-0.473,-0.305,-16.51,-53.13,-28.87,1785091945444.221
-0.923,-0.48,-0.305,-3.94,-54.35,-26.46,1785091945450.227
-0.937,-0.443,-0.294,9.67,-54.23,-25.76,1785091945460.549
-0.939,-0.425,-0.313,21.67,-58.2,-23.44,1785091945470.72
-0.915,-0.4,-0.331,26.98,-62.78,-24.11,1785091945484.062
-0.911,-0.325,-0.341,25.51,-64.15,-28.93,1785091945490.3218
-0.857,-0.229,-0.391,15.11,-68.27,-31.8,1785091945500.168
-0.887,-0.13,-0.511,-12.27,-78.65,-35.92,1785091945510.7478
-0.949,-0.055,-0.677,-62.47,-94.7,-32.78,1785091945524.0938
-0.998,-0.132,-0.659,-120.67,-104.37,-19.04,1785091945530.1912
-0.968,-0.339,-0.601,-138.71,-89.39,-7.35,1785091945540.4329
-0.963,-0.387,-0.539,-124.55,-62.72,-9.46,1785091945550.978
-0.943,-0.332,-0.446,-106.63,-42.15,-11.84,1785091945564.219
-0.943,-0.332,-0.446,-98.76,-32.44,-7.84,1785091945570.271
-0.939,-0.36,-0.345,-100.92,-29.21,-4.24,1785091945580.42
-0.929,-0.406,-0.261,-104.43,-24.84,-2.04,1785091945590.979
-0.92,-0.405,-0.214,-105.38,-19.38,1.92,1785091945604.231
-0.926,-0.41,-0.217,-105.11,-17.73,5.86,1785091945610.2678
-0.917,-0.427,-0.245,-105.11,-17.73,5.86,1785091945620.3699
-0.915,-0.417,-0.258,-103.89,-16.79,8.18,1785091945630.944
-0.919,-0.401,-0.265,-100.96,-14.92,9.06,1785091945644.219
-0.936,-0.394,-0.261,-95.16,-11.41,9.43,1785091945650.2258
-0.925,-0.404,-0.245,-86.4,-7.63,10.13,1785091945660.188
-0.925,-0.402,-0.215,-76.82,-4.94,7.75,1785091945672.123
-0.944,-0.384,-0.165,-65.95,-4.03,6.47,1785091945680.7139
-0.89,-0.355,-0.13,-53.25,-3.2,8.27,1785091945694.0159
-0.85,-0.337,-0.123,-41.72,-0.03,10.13,1785091945699.501
-0.848,-0.35,-0.126,-32.47,2.9,11.72,1785091945709.867
-0.861,-0.371,-0.126,-25.33,4.46,12.33,1785091945720.4038
-0.861,-0.373,-0.122,-17.98,5.98,13.12,1785091945730.82
-0.862,-0.376,-0.119,-9.25,8.3,14.5,1785091945744.172
-0.866,-0.384,-0.135,-0.95,10.44,15.69,1785091945749.638
-0.862,-0.4,-0.146,6.2,12.51,16.24,1785091945759.988
-0.867,-0.4,-0.138,13.0,14.34,15.26,1785091945770.603
-0.871,-0.399,-0.136,20.78,15.75,15.2,1785091945784.0112
-0.866,-0.392,-0.137,28.63,17.27,14.74,1785091945790.2322
-0.867,-0.389,-0.134,35.92,18.34,14.19,1785091945800.089
-0.854,-0.382,-0.14,43.15,18.25,13.86,1785091945810.669
-0.851,-0.369,-0.147,49.29,17.7,12.18,1785091945824.0
-0.861,-0.381,-0.154,55.27,17.12,10.44,1785091945830.029
-0.878,-0.389,-0.162,60.95,16.33,8.42,1785091945840.1248
-0.89,-0.396,-0.166,66.13,14.89,6.81,1785091945850.549
-0.894,-0.402,-0.171,70.74,13.4,5.01,1785091945860.9832
-0.903,-0.4,-0.177,74.83,12.42,3.27,1785091945874.281
-0.916,-0.399,-0.177,77.85,10.99,2.96,1785091945879.9841
-0.907,-0.391,-0.186,79.99,9.55,2.72,1785091945890.1318
-0.91,-0.381,-0.19,80.39,8.88,2.08,1785091945900.4368
-0.919,-0.38,-0.194,78.68,7.54,1.62,1785091945910.8237
-0.908,-0.367,-0.193,75.81,6.01,1.28,1785091945924.041
-0.907,-0.365,-0.193,71.47,4.7,0.79,1785091945929.8298
-0.893,-0.353,-0.193,65.1,3.94,-0.24,1785091945939.7122
-0.871,-0.342,-0.187,56.95,4.12,-0.4,1785091945950.0999
-0.877,-0.343,-0.178,47.15,3.81,-0.52,1785091945960.52
-0.878,-0.344,-0.164,36.47,3.33,0.12,1785091945970.86
-0.869,-0.351,-0.155,26.49,2.72,1.68,1785091945984.1018
-0.867,-0.343,-0.159,16.51,1.37,1.22,1785091945989.966
-0.845,-0.353,-0.149,6.78,1.5,1.98,1785091945999.691
-0.839,-0.367,-0.146,-1.19,1.53,3.33,1785091946009.986
-0.844,-0.368,-0.132,-7.97,1.1,4.24,1785091946020.253
-0.839,-0.377,-0.117,-12.79,0.64,6.07,1785091946030.6729
-0.832,-0.395,-0.111,-14.83,0.0,7.75,1785091946041.059
-0.836,-0.397,-0.106,-15.38,-0.64,8.73,1785091946054.292
-0.842,-0.395,-0.104,-14.5,-1.25,10.35,1785091946060.0361
-0.84,-0.396,-0.104,-13.06,-1.31,12.15,1785091946070.143
-0.851,-0.389,-0.106,-12.42,-1.16,13.15,1785091946080.6348
-0.857,-0.389,-0.11,-12.12,-0.85,14.68,1785091946091.1218
-0.857,-0.392,-0.122,-11.29,-0.37,16.33,1785091946104.3232
-0.857,-0.384,-0.142,-10.74,0.85,17.24,1785091946110.209
-0.867,-0.377,-0.15,-10.59,2.87,17.98,1785091946120.262
-0.885,-0.375,-0.142,-10.77,4.49,19.5,1785091946130.7551
-0.861,-0.393,-0.134,-10.47,4.94,22.4,1785091946143.956
-0.865,-0.375,-0.125,-9.43,6.65,20.08,1785091946149.888
-0.899,-0.37,-0.109,-8.15,8.09,19.38,1785091946159.765
-0.884,-0.414,-0.107,-4.39,8.15,22.52,1785091946170.1301
-0.887,-0.422,-0.107,0.64,7.39,21.91,1785091946180.5872
-0.886,-0.41,-0.11,8.0,6.99,20.51,1785091946191.0012
-0.912,-0.39,-0.123,16.21,6.56,18.46,1785091946204.2188
-0.926,-0.395,-0.129,22.89,4.46,19.96,1785091946209.774
-0.896,-0.415,-0.143,29.85,2.01,21.27,1785091946220.09
-0.9,-0.386,-0.15,36.96,1.59,18.28,1785091946230.602
-0.905,-0.36,-0.157,42.21,1.04,17.0,1785091946241.16
-0.929,-0.354,-0.159,43.52,-0.52,16.21,1785091946254.2898
-0.921,-0.353,-0.166,42.63,-2.26,16.63,1785091946260.174
-0.919,-0.341,-0.174,40.5,-2.69,16.02,1785091946270.21
-0.926,-0.353,-0.183,37.32,-2.66,15.63,1785091946280.735
-0.914,-0.362,-0.192,34.03,-3.23,14.65,1785091946291.26
-0.926,-0.342,-0.198,29.85,-3.27,12.33,1785091946304.416
-0.934,-0.354,-0.197,24.9,-3.23,12.09,1785091946310.2898
-0.927,-0.358,-0.195,19.65,-3.54,11.2,1785091946320.3242
-0.934,-0.342,-0.193,15.11,-3.48,9.34,1785091946330.731
-0.942,-0.346,-0.188,11.47,-2.99,8.03,1785091946341.182
-0.935,-0.349,-0.189,7.75,-2.9,7.75,1785091946354.444
-0.923,-0.333,-0.196,2.99,-2.9,6.74,1785091946360.008
-0.931,-0.337,-0.195,-2.96,-2.14,5.49,1785091946370.037
-0.927,-0.36,-0.19,-7.54,-1.46,5.68,1785091946380.105
-0.927,-0.349,-0.184,-10.56,-1.1,4.73,1785091946390.503
-0.928,-0.352,-0.181,-12.97,-0.43,4.97,1785091946400.8389
-0.92,-0.337,-0.189,-15.47,0.09,4.79,1785091946414.051
-0.922,-0.329,-0.184,-19.5,1.04,3.81,1785091946419.673
-0.928,-0.335,-0.184,-23.71,2.08,3.42,1785091946429.908
-0.929,-0.346,-0.178,-27.16,2.53,3.78,1785091946440.189
-0.932,-0.352,-0.171,-29.11,2.56,4.09,1785091946450.3691
-0.918,-0.362,-0.166,-28.72,2.69,5.01,1785091946460.9302
-0.921,-0.331,-0.175,-28.44,3.2,3.91,1785091946474.2039
-0.928,-0.313,-0.173,-30.85,3.33,2.93,1785091946479.7922
-0.917,-0.327,-0.168,-33.6,3.51,3.2,1785091946490.013
-0.91,-0.339,-0.161,-34.61,3.78,3.11,1785091946500.159
-0.911,-0.344,-0.158,-33.75,3.63,2.38,1785091946510.6042
-0.911,-0.341,-0.156,-32.07,3.05,1.98,1785091946520.988
-0.908,-0.333,-0.154,-30.09,2.75,1.53,1785091946534.1948
-0.91,-0.326,-0.155,-28.32,2.62,0.64,1785091946540.042
-0.913,-0.318,-0.155,-27.34,2.38,-0.37,1785091946549.935
-0.911,-0.32,-0.146,-26.67,2.14,-0.58,1785091946560.326
-0.903,-0.331,-0.142,-24.23,1.59,-0.24,1785091946570.53
