ax,ay,az,gx,gy,gz,timestamp_ms
0.37,-0.072,-0.623,68.64,-26.64,-27.22,1785092014795.0542
0.37,-0.072,-0.623,70.31,-27.28,-25.61,1785092014795.418
0.371,-0.056,-0.629,69.15,-28.2,-24.66,1785092014795.778
0.353,-0.063,-0.613,67.23,-29.33,-24.96,1785092014796.141
0.334,-0.082,-0.58,66.44,-31.16,-25.21,1785092014796.5
0.323,-0.099,-0.555,66.44,-31.16,-25.21,1785092014796.849
0.323,-0.114,-0.559,66.19,-33.05,-25.03,1785092014797.2058
0.314,-0.108,-0.594,64.49,-34.67,-24.45,1785092014797.515
0.307,-0.089,-0.646,61.4,-35.65,-22.49,1785092014797.8142
0.301,-0.076,-0.687,57.41,-36.38,-19.5,1785092014798.146
0.296,-0.074,-0.71,52.49,-37.23,-16.91,1785092014798.4531
0.299,-0.078,-0.716,47.49,-37.9,-14.74,1785092014798.763
0.309,-0.096,-0.692,44.28,-38.33,-12.3,1785092014799.0642
0.311,-0.138,-0.662,44.13,-38.94,-10.38,1785092014799.387
0.301,-0.165,-0.665,46.21,-39.28,-9.19,1785092014799.705
0.298,-0.165,-0.692,49.1,-39.52,-7.02,1785092014800.096
0.325,-0.151,-0.736,52.61,-39.7,-4.21,1785092014800.4128
0.365,-0.125,-0.787,54.35,-39.12,-1.16,1785092014800.72
0.391,-0.106,-0.838,51.42,-38.76,4.21,1785092014801.018
0.404,-0.117,-0.866,45.99,-35.34,9.86,1785092014801.3188
0.392,-0.158,-0.866,41.02,-31.34,14.77,1785092014801.618
0.37,-0.225,-0.834,38.82,-28.9,19.29,1785092014801.923
0.372,-0.288,-0.807,42.94,-26.55,21.03,1785092014802.2258
0.395,-0.309,-0.811,51.79,-23.87,20.08,1785092014802.514
0.434,-0.31,-0.832,62.99,-24.26,21.64,1785092014802.8127
0.477,-0.328,-0.888,74.43,-28.05,27.59,1785092014803.1108
0.513,-0.315,-0.941,82.95,-27.1,30.3,1785092014803.4019
0.461,-0.308,-0.939,87.01,-21.58,30.4,1785092014803.701
0.44,-0.376,-0.929,91.34,-18.22,39.03,1785092014803.997
0.418,-0.407,-0.912,96.65,-12.57,44.07,1785092014804.295
0.334,-0.354,-0.946,100.31,-7.87,42.33,1785092014804.5828
0.326,-0.315,-0.952,102.27,-3.97,48.01,1785092014804.875
0.388,-0.323,-0.919,101.54,-2.99,53.56,1785092014805.1729
0.451,-0.35,-0.886,98.73,-2.32,56.15,1785092014805.4268
0.486,-0.4,-0.847,95.61,-0.03,59.66,1785092014805.6992
0.468,-0.46,-0.802,92.68,2.47,62.65,1785092014805.964
0.408,-0.501,-0.762,90.3,5.25,65.07,1785092014806.228
0.327,-0.509,-0.757,88.6,8.21,66.29,1785092014806.525
0.287,-0.48,-0.787,86.73,11.84,66.53,1785092014806.83
0.338,-0.44,-0.834,84.41,16.39,66.96,1785092014807.105
0.401,-0.44,-0.889,80.14,24.45,64.49,1785092014807.369
0.477,-0.412,-0.828,70.31,33.36,61.07,1785092014807.6602
0.454,-0.468,-0.835,54.26,22.77,78.1,1785092014807.956
0.417,-0.56,-0.797,41.2,19.29,97.02,1785092014808.22
0.382,-0.613,-0.717,36.29,24.38,106.69,1785092014808.48
0.364,-0.668,-0.673,38.76,29.79,112.61,1785092014808.782
0.382,-0.712,-0.668,42.05,32.65,114.23,1785092014809.074
0.415,-0.714,-0.661,42.27,34.06,113.83,1785092014809.344
0.431,-0.701,-0.656,42.09,35.52,116.25,1785092014809.624
0.453,-0.723,-0.65,44.5,38.24,121.07,1785092014809.888
0.465,-0.737,-0.64,46.45,41.72,120.49,1785092014810.155
0.475,-0.748,-0.616,49.17,45.35,118.78,1785092014810.413
0.478,-0.777,-0.601,53.53,48.31,118.2,1785092014810.698
0.443,-0.786,-0.581,55.85,49.75,117.8,1785092014810.973
0.389,-0.797,-0.566,56.4,50.9,120.43,1785092014811.256
0.352,-0.817,-0.558,56.03,53.01,126.19,1785092014811.5452
0.344,-0.813,-0.571,54.38,56.31,131.6,1785092014811.815
0.36,-0.767,-0.58,50.87,60.64,135.44,1785092014812.08
0.379,-0.722,-0.573,44.89,64.03,138.68,1785092014812.351
0.417,-0.702,-0.593,34.21,66.23,140.17,1785092014812.617
0.395,-0.664,-0.6,14.53,70.01,135.59,1785092014812.8938
0.331,-0.658,-0.551,-8.94,75.26,137.79,1785092014813.144
0.231,-0.747,-0.525,-27.1,74.95,143.96,1785092014813.3838
0.175,-0.858,-0.483,-38.45,70.38,152.41,1785092014813.6343
0.205,-0.923,-0.449,-34.24,71.35,158.76,1785092014813.892
0.254,-0.909,-0.477,-21.33,75.5,156.77,1785092014814.153
0.278,-0.861,-0.51,-10.71,80.32,151.43,1785092014814.387
0.273,-0.866,-0.516,-9.19,82.46,151.95,1785092014814.6401
0.258,-0.893,-0.543,-18.56,82.55,154.36,1785092014814.8867
0.209,-0.868,-0.527,-33.08,85.73,151.83,1785092014815.125
0.166,-0.894,-0.511,-43.64,82.4,159.7,1785092014815.37
0.187,-0.989,-0.489,-45.47,78.65,170.35,1785092014815.624
0.18,-1.03,-0.474,-39.49,78.19,167.06,1785092014815.878
0.132,-1.071,-0.457,-27.8,76.78,162.42,1785092014816.116
0.106,-1.138,-0.422,-9.46,71.84,165.01,1785092014816.3708
0.155,-1.207,-0.424,18.89,66.29,167.52,1785092014816.6301
0.198,-1.203,-0.438,50.57,65.77,158.27,1785092014816.8691
0.175,-1.13,-0.43,74.89,66.93,146.55,1785092014817.121
0.134,-1.055,-0.401,90.15,65.22,142.09,1785092014817.373
0.121,-1.017,-0.402,99.19,61.59,140.81,1785092014817.6218
0.106,-1.006,-0.415,103.21,57.89,140.84,1785092014817.861
0.192,-1.061,-0.454,105.96,55.76,141.18,1785092014818.1218
0.255,-1.101,-0.481,105.99,61.01,129.92,1785092014818.382
0.173,-1.101,-0.469,100.92,68.27,117.74,1785092014818.6318
0.096,-1.142,-0.448,95.83,69.43,115.88,1785092014818.863
0.086,-1.19,-0.408,96.96,68.94,114.11,1785092014819.104
0.075,-1.177,-0.361,103.85,69.0,105.44,1785092014819.36
0.075,-1.146,-0.321,114.66,68.21,98.12,1785092014819.5798
0.091,-1.136,-0.303,125.77,66.38,94.0,1785092014819.813
0.096,-1.118,-0.29,133.24,64.88,89.97,1785092014820.065
0.078,-1.088,-0.274,136.08,63.26,86.03,1785092014820.3198
0.056,-1.057,-0.275,133.92,61.46,82.19,1785092014820.543
0.037,-1.039,-0.285,127.32,60.58,77.97,1785092014820.771
0.016,-1.05,-0.275,117.98,60.61,73.46,1785092014821.001
-0.002,-1.079,-0.245,109.5,60.58,68.94,1785092014821.227
-0.023,-1.104,-0.206,105.72,59.05,65.22,1785092014821.46
-0.004,-1.112,-0.17,107.82,56.7,61.31,1785092014821.697
-0.026,-1.046,-0.13,112.61,55.76,52.0,1785092014821.965
-0.017,-0.985,-0.089,119.79,56.49,47.43,1785092014822.191
-0.024,-0.976,-0.092,124.67,55.02,44.01,1785092014822.423
-0.068,-0.947,-0.074,120.06,47.7,36.93,1785092014822.654
-0.076,-0.933,-0.042,113.1,41.47,35.07,1785092014822.885
-0.068,-0.952,-0.022,108.86,39.83,35.16,1785092014823.112
-0.08,-0.951,0.009,104.34,39.92,32.11,1785092014823.3652
-0.102,-0.947,0.021,97.93,36.87,30.18,1785092014823.593
-0.121,-0.943,0.032,89.69,33.39,29.94,1785092014823.814
-0.127,-0.916,0.032,81.27,30.12,30.3,1785092014824.049
-0.138,-0.887,0.017,73.73,28.41,30.95,1785092014824.291
-0.15,-0.865,0.006,65.61,28.72,30.18,1785092014824.522
-0.163,-0.859,-0.014,56.12,27.68,29.15,1785092014824.7449
-0.175,-0.853,-0.012,45.53,26.03,28.75,1785092014824.9668
-0.18,-0.845,0.003,35.62,24.11,28.14,1785092014825.2217
-0.183,-0.829,0.008,27.47,22.74,26.76,1785092014825.4468
-0.185,-0.804,0.008,20.11,22.03,25.39,1785092014825.664
-0.19,-0.774,0.013,12.54,21.33,25.03,1785092014825.8838
-0.192,-0.739,0.015,3.33,19.93,26.15,1785092014826.097
-0.187,-0.71,0.022,-7.69,18.62,28.72,1785092014826.304
-0.191,-0.698,0.033,-20.63,17.64,31.59,1785092014826.5522
-0.207,-0.71,0.031,-35.31,16.75,34.97,1785092014826.7861
-0.226,-0.753,0.024,-51.21,15.26,39.43,1785092014826.994
-0.241,-0.789,0.026,-66.13,14.19,43.76,1785092014827.2058
-0.255,-0.821,0.025,-76.39,13.58,47.98,1785092014827.4187
-0.272,-0.866,0.012,-81.36,12.51,51.67,1785092014827.658
-0.284,-0.894,0.003,-82.77,10.71,54.11,1785092014827.868
-0.28,-0.888,-0.01,-81.15,9.64,56.28,1785092014828.0908
-0.276,-0.828,-0.021,-79.2,9.4,58.93,1785092014828.316
-0.267,-0.772,-0.04,-79.17,7.02,61.13,1785092014828.5178
-0.252,-0.779,-0.062,-81.09,4.88,61.62,1785092014828.7349
-0.249,-0.824,-0.075,-86.12,3.81,59.88,1785092014828.975
-0.249,-0.824,-0.075,-93.23,2.56,56.43,1785092014829.1929
-0.27,-0.882,-0.067,-98.67,0.37,51.82,1785092014829.3938
-0.304,-0.957,-0.047,-99.28,-1.59,46.88,1785092014829.6099
-0.331,-1.008,-0.022,-92.93,-2.62,43.34,1785092014829.8208
-0.338,-1.016,-0.015,-80.6,-3.72,40.19,1785092014830.024
-0.329,-0.988,-0.025,-80.6,-3.72,40.19,1785092014830.2422
-0.31,-0.947,-0.038,-65.89,-5.65,35.92,1785092014830.4683
-0.284,-0.942,-0.055,-50.23,-8.18,29.85,1785092014830.6719
-0.275,-0.981,-0.072,-35.74,-12.27,20.48,1785092014830.89
-0.288,-1.03,-0.083,-24.48,-16.24,10.01,1785092014831.1
-0.307,-1.074,-0.08,-15.5,-18.25,2.08,1785092014831.317
-0.332,-1.118,-0.072,-7.23,-18.74,-2.29,1785092014831.515
-0.351,-1.149,-0.054,0.61,-18.22,-3.94,1785092014831.721
-0.371,-1.154,-0.042,7.63,-17.79,-4.58,1785092014831.931
-0.36,-1.112,-0.03,11.99,-17.21,-6.1,1785092014832.132
-0.358,-1.06,-0.023,14.25,-15.72,-10.44,1785092014832.359
-0.341,-1.052,-0.014,15.23,-12.6,-13.82,1785092014832.57
-0.358,-1.053,-0.008,13.55,-11.23,-18.43,1785092014832.775
-0.39,-1.062,-0.011,11.2,-11.69,-22.46,1785092014832.98
-0.4,-1.114,-0.033,11.29,-11.51,-24.32,1785092014833.182
-0.419,-1.153,-0.049,11.93,-9.0,-26.64,1785092014833.3882
-0.438,-1.162,-0.065,13.09,-5.04,-27.95,1785092014833.584
-0.435,-1.154,-0.07,14.92,-0.52,-27.31,1785092014833.7861
-0.419,-1.121,-0.06,17.03,3.45,-26.46,1785092014833.986
-0.397,-1.076,-0.046,19.62,6.04,-26.67,1785092014834.182
-0.381,-1.031,-0.02,21.79,7.02,-27.71,1785092014834.381
-0.385,-1.006,-0.01,23.35,6.23,-28.99,1785092014834.5898
-0.403,-0.983,-0.009,23.04,6.74,-31.56,1785092014834.785
-0.434,-0.965,-0.014,18.74,6.35,-32.9,1785092014834.982
-0.455,-0.955,-0.009,11.87,5.65,-31.89,1785092014835.199
-0.463,-0.95,-0.012,5.1,5.01,-29.79,1785092014835.4011
-0.47,-0.945,-0.043,-0.43,5.31,-27.01,1785092014835.5898
-0.49,-0.955,-0.073,-5.31,6.35,-23.93,1785092014835.783
-0.521,-0.975,-0.09,-10.22,7.05,-21.3,1785092014835.98
-0.556,-1.008,-0.101,-13.7,8.21,-19.38,1785092014836.173
-0.591,-1.047,-0.093,-15.38,9.49,-18.31,1785092014836.3772
-0.617,-1.076,-0.082,-15.08,9.34,-17.33,1785092014836.5737
-0.633,-1.092,-0.058,-11.87,9.77,-17.49,1785092014836.763
-0.627,-1.091,-0.025,-6.01,10.62,-19.07,1785092014836.978
-0.627,-1.09,0.0,1.01,10.44,-19.65,1785092014837.17
-0.6,-1.072,0.02,17.18,6.59,-20.17,1785092014837.552
-0.564,-1.099,0.021,28.78,5.28,-22.55,1785092014837.7412
-0.936,-0.593,-0.268,19.62,5.71,10.38,1785092014838.0898
-0.969,-0.601,-0.271,19.1,4.36,7.2,1785092014838.28
-1.038,-0.637,-0.292,17.73,6.47,2.11,1785092014838.469
-1.096,-0.657,-0.288,13.92,9.03,-3.85,1785092014840.749
-1.115,-0.67,-0.273,14.53,10.9,-9.13,1785092014851.0981
-1.123,-0.67,-0.256,21.06,13.21,-14.25,1785092014861.664
-1.123,-0.67,-0.256,33.42,15.44,-20.6,1785092014874.9448
-1.125,-0.657,-0.244,48.31,17.06,-27.8,1785092014880.542
-1.123,-0.636,-0.242,61.46,15.72,-34.88,1785092014891.1792
-1.127,-0.599,-0.212,71.75,11.93,-39.89,1785092014901.684
-1.106,-0.552,-0.212,77.49,9.16,-43.03,1785092014914.9739
-1.08,-0.522,-0.246,77.49,9.16,-43.03,1785092014920.5461
-1.065,-0.507,-0.278,77.52,6.56,-44.19,1785092014930.925
-1.06,-0.505,-0.287,73.27,4.12,-43.52,1785092014941.354
-1.054,-0.516,-0.277,69.52,2.44,-41.57,1785092014951.8179
-1.04,-0.536,-0.261,70.22,1.13,-38.94,1785092014965.0728
-1.029,-0.54,-0.247,74.25,-0.03,-36.41,1785092014970.766
-1.003,-0.526,-0.231,79.29,-1.28,-31.83,1785092014981.144
-0.954,-0.489,-0.238,81.27,-3.11,-23.93,1785092014991.541
-0.901,-0.456,-0.249,77.24,-4.85,-14.53,1785092015001.9897
-0.85,-0.45,-0.26,66.9,-6.47,-5.1,1785092015015.276
-0.807,-0.458,-0.253,51.88,-8.09,3.91,1785092015020.838
-0.768,-0.492,-0.248,36.81,-9.31,12.51,1785092015031.159
-0.751,-0.551,-0.249,23.44,-10.28,19.23,1785092015041.7449
-0.752,-0.613,-0.246,12.39,-10.8,25.33,1785092015052.2502
-0.749,-0.66,-0.255,4.97,-10.83,31.19,1785092015065.529
-0.742,-0.698,-0.259,0.37,-10.5,35.98,1785092015071.359
-0.713,-0.739,-0.251,-1.19,-10.56,40.38,1785092015081.472
-0.66,-0.783,-0.244,1.28,-11.66,44.19,1785092015091.9348
-0.606,-0.809,-0.261,6.99,-14.1,47.46,1785092015105.191
-0.573,-0.806,-0.293,12.6,-16.75,50.57,1785092015111.1199
-0.568,-0.793,-0.305,15.38,-18.92,53.83,1785092015121.2769
-0.581,-0.785,-0.324,15.08,-21.42,56.86,1785092015131.849
-0.596,-0.762,-0.387,11.32,-22.19,60.88,1785092015145.1367
-0.6,-0.738,-0.443,5.83,-19.78,65.58,1785092015151.0178
-0.581,-0.716,-0.468,-1.71,-16.14,69.55,1785092015161.1309
-0.548,-0.69,-0.469,-11.35,-12.33,72.91,1785092015171.757
-0.514,-0.687,-0.428,-21.64,-9.31,76.51,1785092015182.123
-0.486,-0.719,-0.368,-29.66,-7.84,80.6,1785092015195.295
-0.464,-0.772,-0.328,-32.01,-8.24,84.93,1785092015201.165
-0.432,-0.807,-0.336,-29.97,-10.28,87.86,1785092015211.366
-0.397,-0.802,-0.352,-25.91,-12.97,89.39,1785092015222.51
-0.387,-0.77,-0.404,-20.81,-15.44,90.37,1785092015235.2852
-0.402,-0.723,-0.463,-16.54,-15.69,92.44,1785092015240.887
-0.428,-0.675,-0.503,-15.05,-14.4,95.0,1785092015251.4
-0.463,-0.646,-0.539,-16.75,-12.42,96.74,1785092015262.087
-0.495,-0.637,-0.554,-21.76,-9.67,97.93,1785092015275.3
-0.517,-0.638,-0.532,-27.83,-6.07,98.91,1785092015281.016
-0.541,-0.655,-0.488,-31.31,-3.2,101.11,1785092015291.307
-0.564,-0.686,-0.454,-30.85,-1.56,104.19,1785092015301.7878
-0.59,-0.681,-0.437,-27.16,-0.37,107.58,1785092015312.374
-0.606,-0.651,-0.446,-19.87,0.76,111.7,1785092015325.721
-0.607,-0.631,-0.471,-10.68,2.11,115.3,1785092015331.542
-0.603,-0.613,-0.509,-3.36,4.0,115.85,1785092015341.7302
-0.599,-0.602,-0.54,1.95,6.68,114.38,1785092015352.246
-0.602,-0.608,-0.536,5.65,9.58,112.09,1785092015365.4312
-0.614,-0.602,-0.52,7.51,11.87,108.89,1785092015371.37
-0.634,-0.577,-0.504,8.64,13.92,106.27,1785092015381.567
-0.652,-0.537,-0.479,7.9,15.44,104.59,1785092015392.1257
-0.665,-0.482,-0.462,4.52,15.81,102.79,1785092015405.4038
-0.668,-0.428,-0.461,0.37,15.5,100.25,1785092015411.256
-0.675,-0.379,-0.47,-4.88,15.59,96.16,1785092015421.491
-0.689,-0.353,-0.481,-11.57,16.24,90.12,1785092015432.042
-0.706,-0.361,-0.495,-19.84,17.3,83.04,1785092015445.2979
-0.731,-0.441,-0.511,-27.92,19.56,74.1,1785092015451.1812
-0.761,-0.543,-0.515,-36.62,21.45,62.2,1785092015461.502
-0.781,-0.606,-0.485,-43.15,22.61,50.02,1785092015472.022
-0.791,-0.637,-0.447,-40.96,23.19,40.41,1785092015485.255
-0.794,-0.62,-0.416,-29.73,23.26,33.54,1785092015491.297
-0.783,-0.56,-0.408,-13.37,21.91,28.53,1785092015501.6301
-0.773,-0.495,-0.443,3.48,19.35,23.83,1785092015511.9539
-0.792,-0.429,-0.49,14.62,17.06,19.35,1785092015525.229
-0.835,-0.366,-0.526,17.4,15.75,16.08,1785092015531.086
-0.87,-0.33,-0.527,12.94,15.47,14.53,1785092015541.397
-0.88,-0.324,-0.494,4.43,14.77,13.58,1785092015551.8542
-0.855,-0.324,-0.448,-4.39,13.89,12.85,1785092015562.322
-0.816,-0.312,-0.422,-11.26,13.06,12.79,1785092015575.605
-0.79,-0.296,-0.407,-16.85,12.18,13.34,1785092015581.488
-0.782,-0.273,-0.41,-23.35,10.74,13.64,1785092015591.758
-0.783,-0.259,-0.415,-30.09,9.19,14.4,1785092015602.249
-0.798,-0.253,-0.427,-38.03,7.87,14.83,1785092015615.4429
-0.808,-0.242,-0.442,-46.75,7.54,15.63,1785092015621.27
-0.814,-0.245,-0.453,-54.26,8.18,17.24,1785092015631.422
-0.823,-0.265,-0.449,-60.64,9.43,18.74,1785092015641.9211
-0.83,-0.294,-0.429,-64.3,10.86,19.29,1785092015655.133
-0.824,-0.319,-0.398,-63.45,11.57,18.89,1785092015661.095
-0.823,-0.33,-0.364,-58.26,12.09,17.85,1785092015671.344
-0.827,-0.328,-0.344,-49.87,12.05,16.42,1785092015681.886
-0.837,-0.331,-0.339,-39.92,11.78,14.47,1785092015695.175
-0.842,-0.333,-0.342,-29.91,11.44,12.15,1785092015701.069
-0.839,-0.33,-0.343,-19.71,11.2,9.74,1785092015711.2551
-0.834,-0.326,-0.337,-8.91,10.5,7.17,1785092015721.639
-0.829,-0.312,-0.327,1.77,9.46,3.91,1785092015731.879
-0.814,-0.287,-0.317,11.54,8.45,0.12,1785092015742.2888
-0.799,-0.283,-0.32,19.87,7.6,-4.73,1785092015755.5818
-0.793,-0.307,-0.339,25.42,7.66,-11.69,1785092015761.2878
-0.798,-0.337,-0.368,27.04,7.84,-19.62,1785092015771.405
-0.805,-0.36,-0.391,25.54,7.9,-26.76,1785092015781.876
-0.806,-0.361,-0.4,22.34,7.69,-31.62,1785092015792.326
-0.798,-0.349,-0.401,19.47,6.93,-34.21,1785092015805.591
-0.794,-0.329,-0.397,16.91,5.55,-35.16,1785092015811.5298
-0.787,-0.307,-0.394,13.25,3.36,-35.46,1785092015821.5208
-0.78,-0.271,-0.391,7.48,0.21,-35.28,1785092015831.91
-0.777,-0.25,-0.398,-0.43,-2.59,-33.51,1785092015842.305
-0.784,-0.248,-0.398,-10.07,-4.18,-31.07,1785092015855.5642
-0.793,-0.26,-0.387,-20.29,-5.77,-28.14,1785092015861.4058
-0.802,-0.285,-0.368,-28.75,-7.54,-24.69,1785092015871.4658
-0.81,-0.31,-0.358,-34.3,-9.31,-21.52,1785092015881.912
-0.814,-0.319,-0.353,-37.78,-11.29,-18.25,1785092015895.179
-0.802,-0.319,-0.343,-39.74,-13.4,-15.11,1785092015901.086
-0.789,-0.314,-0.336,-40.8,-15.35,-12.67,1785092015911.371
-0.784,-0.298,-0.325,-42.15,-17.4,-10.04,1785092015921.95
-0.787,-0.29,-0.31,-43.58,-19.75,-7.6,1785092015932.375
-0.795,-0.283,-0.299,-45.32,-21.91,-6.2,1785092015945.619
-0.808,-0.279,-0.293,-47.03,-23.77,-5.65,1785092015951.4429
-0.82,-0.285,-0.293,-48.98,-25.15,-5.65,1785092015961.542
-0.835,-0.292,-0.288,-51.82,-26.28,-6.16,1785092015972.07
-0.847,-0.305,-0.291,-54.96,-27.31,-7.2,1785092015985.3152
-0.852,-0.316,-0.297,-58.78,-27.62,-8.82,1785092015991.17
-0.856,-0.328,-0.291,-62.44,-27.59,-10.13,1785092016001.3362
-0.856,-0.351,-0.278,-64.39,-27.68,-11.26,1785092016011.88
-0.862,-0.375,-0.256,-63.54,-27.99,-12.51,1785092016025.141
-0.875,-0.385,-0.227,-59.76,-28.99,-13.52,1785092016031.0999
-0.888,-0.384,-0.195,-53.13,-30.73,-14.34,1785092016041.3042
-0.898,-0.383,-0.178,-45.53,-33.36,-15.35,1785092016051.866
-0.907,-0.408,-0.179,-38.12,-35.25,-17.64,1785092016065.166
-0.921,-0.458,-0.183,-30.73,-36.84,-21.88,1785092016071.043
-0.927,-0.508,-0.174,-21.67,-37.75,-27.07,1785092016081.304
-0.927,-0.527,-0.163,-9.92,-38.54,-33.54,1785092016091.807
-0.921,-0.513,-0.164,3.57,-39.67,-39.25,1785092016102.2642
-0.921,-0.486,-0.17,14.28,-41.05,-44.71,1785092016115.634
-0.926,-0.46,-0.183,19.01,-43.24,-49.87,1785092016121.4531
-0.936,-0.443,-0.189,18.28,-45.78,-53.74,1785092016131.7087
-0.946,-0.428,-0.179,14.83,-48.92,-56.37,1785092016142.26
-0.946,-0.428,-0.179,10.56,-52.67,-57.44,1785092016155.545
-0.951,-0.392,-0.174,6.23,-56.09,-57.16,1785092016161.4111
-0.948,-0.375,-0.182,-1.71,-59.51,-57.92,1785092016171.52
-0.949,-0.379,-0.198,-13.18,-62.38,-58.53,1785092016182.091
-0.954,-0.38,-0.199,-24.51,-64.79,-58.78,1785092016195.215
-0.964,-0.39,-0.196,-24.51,-64.79,-58.78,1785092016201.252
-0.97,-0.401,-0.189,-35.86,-67.02,-59.39,1785092016211.342
-0.966,-0.412,-0.181,-47.03,-69.77,-60.3,1785092016222.1528
-0.961,-0.432,-0.175,-56.98,-73.24,-61.16,1785092016235.3333
-0.959,-0.454,-0.184,-66.44,-76.69,-62.56,1785092016240.884
-0.97,-0.482,-0.197,-75.84,-79.68,-64.36,1785092016251.5269
-0.993,-0.514,-0.198,-84.96,-82.31,-66.41,1785092016262.156
-1.004,-0.542,-0.192,-92.84,-84.6,-69.09,1785092016275.357
-1.006,-0.554,-0.185,-98.3,-86.67,-73.06,1785092016281.261
-1.013,-0.541,-0.184,-101.44,-88.66,-76.72,1785092016291.682
-1.033,-0.533,-0.199,-104.4,-90.67,-78.95,1785092016302.287
-1.061,-0.537,-0.222,-110.51,-92.41,-79.96,1785092016315.5168
-1.087,-0.551,-0.245,-120.24,-92.9,-80.66,1785092016321.451
-1.095,-0.576,-0.262,-130.83,-92.01,-81.27,1785092016331.9558
-1.093,-0.603,-0.283,-139.99,-90.24,-81.76,1785092016345.29
-1.086,-0.632,-0.326,-146.24,-87.47,-82.16,1785092016351.1912
-1.085,-0.691,-0.385,-147.28,-82.71,-83.86,1785092016361.697
-1.078,-0.765,-0.393,-144.11,-78.1,-88.41,1785092016372.493
-1.064,-0.792,-0.355,-136.72,-75.38,-95.31,1785092016385.681
-1.058,-0.74,-0.304,-124.49,-74.43,-101.08,1785092016391.663
-1.058,-0.648,-0.237,-108.58,-74.43,-103.43,1785092016402.298
-1.036,-0.548,-0.186,-95.28,-74.68,-102.94,1785092016415.56
-0.988,-0.504,-0.187,-90.24,-73.03,-103.58,1785092016421.3938
-0.955,-0.537,-0.203,-95.83,-67.96,-107.06,1785092016431.9307
-0.956,-0.59,-0.217,-109.26,-62.17,-111.91,1785092016445.174
-0.973,-0.637,-0.242,-122.81,-55.76,-116.37,1785092016451.104
-0.988,-0.7,-0.259,-130.44,-48.31,-120.55,1785092016461.893
-0.992,-0.745,-0.266,-131.32,-40.74,-125.71,1785092016475.184
-1.002,-0.752,-0.26,-125.92,-33.51,-131.29,1785092016481.075
-1.011,-0.749,-0.253,-115.73,-28.38,-135.65,1785092016491.903
-1.018,-0.741,-0.261,-105.23,-25.76,-138.07,1785092016505.128
-1.02,-0.727,-0.278,-98.09,-23.77,-138.52,1785092016511.053
-1.014,-0.714,-0.308,-95.34,-21.82,-137.52,1785092016521.6729
-1.008,-0.701,-0.332,-96.56,-19.47,-135.81,1785092016532.264
-1.001,-0.716,-0.338,-99.98,-16.48,-134.25,1785092016545.5889
-0.991,-0.764,-0.333,-103.49,-13.79,-134.86,1785092016551.4822
-0.99,-0.808,-0.33,-105.11,-11.51,-137.7,1785092016562.2302
-0.997,-0.844,-0.326,-104.28,-9.74,-141.18,1785092016575.5
-0.994,-0.847,-0.323,-103.34,-8.27,-144.05,1785092016581.138
-0.987,-0.821,-0.332,-103.85,-6.07,-144.93,1785092016592.448
-0.982,-0.797,-0.348,-105.14,-2.87,-144.05,1785092016604.979
-0.968,-0.789,-0.367,-106.3,0.46,-143.71,1785092016610.655
-0.948,-0.778,-0.388,-107.21,3.66,-144.29,1785092016621.293
-0.931,-0.789,-0.405,-105.81,7.2,-145.42,1785092016632.3098
-0.921,-0.815,-0.398,-101.02,10.74,-147.31,1785092016645.5637
-0.906,-0.845,-0.388,-92.53,13.49,-148.44,1785092016651.4639
-0.883,-0.865,-0.381,-81.7,15.99,-147.8,1785092016662.035
-0.85,-0.875,-0.399,-71.38,17.76,-144.96,1785092016675.387
-0.813,-0.882,-0.472,-66.77,19.5,-140.66,1785092016681.207
-0.802,-0.893,-0.574,-72.18,22.83,-136.91,1785092016691.7988
-0.816,-0.897,-0.623,-84.29,28.87,-134.25,1785092016702.378
-0.811,-0.889,-0.603,-95.92,37.42,-131.23,1785092016715.641
-0.763,-0.901,-0.55,-99.0,46.48,-127.11,1785092016721.5093
-0.692,-0.926,-0.495,-92.23,54.05,-122.78,1785092016732.105
-0.64,-0.981,-0.457,-79.5,58.17,-117.28,1785092016745.3662
-0.616,-1.007,-0.421,-65.34,60.27,-114.17,1785092016751.2268
-0.612,-1.002,-0.432,-55.21,58.14,-110.81,1785092016761.765
-0.616,-0.992,-0.472,-50.05,57.16,-107.91,1785092016772.4988
-0.603,-0.969,-0.51,-50.11,58.78,-107.27,1785092016785.695
-0.578,-0.947,-0.543,-54.48,61.07,-108.31,1785092016791.739
-0.556,-0.944,-0.559,-60.88,63.2,-109.87,1785092016802.1428
-0.542,-0.946,-0.545,-66.5,64.39,-112.31,1785092016815.0708
-0.529,-0.935,-0.528,-67.38,64.21,-115.24,1785092016821.284
-0.507,-0.907,-0.534,-63.57,62.9,-116.37,1785092016831.816
-0.475,-0.886,-0.555,-59.11,61.43,-115.42,1785092016845.1182
-0.438,-0.865,-0.581,-57.16,60.34,-113.41,1785092016851.0808
-0.403,-0.846,-0.609,-59.39,59.36,-111.12,1785092016861.5479
-0.371,-0.836,-0.641,-65.34,59.02,-108.89,1785092016872.1877
-0.329,-0.843,-0.664,-72.7,60.09,-107.52,1785092016885.4202
-0.3,-0.853,-0.661,-79.26,61.34,-106.78,1785092016891.426
-0.285,-0.854,-0.642,-82.55,62.44,-104.98,1785092016901.8572
-0.275,-0.83,-0.621,-80.2,64.76,-104.25,1785092016915.141
-0.239,-0.78,-0.587,-77.94,63.69,-101.47,1785092016921.0933
-0.235,-0.73,-0.585,-76.85,61.25,-96.16,1785092016931.565
-0.199,-0.697,-0.614,-73.55,62.69,-91.98,1785092016942.084
-0.153,-0.688,-0.699,-73.52,63.84,-89.14,1785092016955.326
-0.124,-0.682,-0.77,-80.02,66.87,-87.98,1785092016961.1719
-0.118,-0.703,-0.78,-87.13,71.2,-86.46,1785092016971.467
-0.115,-0.724,-0.728,-87.74,74.95,-84.57,1785092016981.7148
-0.111,-0.715,-0.622,-78.31,77.73,-82.0,1785092016995.299
-0.096,-0.691,-0.557,-61.74,77.46,-77.79,1785092017001.187
-0.074,-0.707,-0.559,-44.22,74.65,-72.54,1785092017011.452
-0.063,-0.703,-0.627,-36.44,70.47,-68.06,1785092017022.0488
-0.067,-0.684,-0.698,-41.11,69.28,-64.03,1785092017035.26
-0.079,-0.653,-0.655,-54.29,69.83,-60.79,1785092017041.175
-0.067,-0.564,-0.62,-70.65,67.05,-55.79,1785092017051.4849
-0.021,-0.609,-0.784,-78.07,65.07,-51.18,1785092017062.018
-0.037,-0.631,-0.833,-86.03,66.62,-52.92,1785092017075.263
-0.003,-0.579,-0.807,-90.4,68.94,-52.4,1785092017081.219
0.047,-0.54,-0.795,-83.99,72.79,-49.75,1785092017091.5579
0.072,-0.504,-0.755,-71.08,78.31,-47.58,1785092017102.0479
0.073,-0.447,-0.695,-54.75,82.06,-46.63,1785092017115.277
0.062,-0.384,-0.659,-39.03,83.25,-46.48,1785092017121.186
0.057,-0.35,-0.638,-29.79,82.92,-46.17,1785092017131.4602
0.059,-0.317,-0.655,-30.58,82.31,-46.39,1785092017142.051
0.08,-0.287,-0.67,-38.82,84.08,-44.92,1785092017155.288
0.096,-0.282,-0.646,-46.78,88.53,-41.78,1785092017161.17
0.11,-0.245,-0.648,-50.39,93.02,-36.87,1785092017171.4702
0.15,-0.214,-0.692,-51.76,95.8,-29.79,1785092017182.029
0.171,-0.213,-0.699,-55.88,96.07,-25.42,1785092017195.096
0.16,-0.23,-0.695,-62.9,93.45,-24.38,1785092017201.234
0.141,-0.264,-0.728,-69.98,90.79,-23.77,1785092017211.312
0.131,-0.285,-0.789,-76.02,91.56,-20.26,1785092017222.052
0.165,-0.287,-0.824,-78.74,95.49,-14.5,1785092017235.2869
0.174,-0.259,-0.811,-78.19,101.08,-11.51,1785092017240.9092
0.165,-0.261,-0.792,-73.58,104.95,-7.39,1785092017251.5562
0.173,-0.255,-0.777,-67.75,108.07,-5.83,1785092017262.1619
0.188,-0.246,-0.761,-65.98,111.55,-5.92,1785092017275.456
0.203,-0.24,-0.756,-69.4,115.18,-4.3,1785092017281.2842
0.221,-0.198,-0.715,-76.54,119.69,-1.65,1785092017291.6228
0.241,-0.181,-0.664,-81.18,123.26,2.99,1785092017302.0989
0.247,-0.173,-0.632,-78.52,124.64,7.02,1785092017315.375
0.265,-0.151,-0.631,-69.52,125.1,9.98,1785092017321.302
0.304,-0.114,-0.671,-60.64,125.1,11.08,1785092017331.71
0.358,-0.102,-0.713,-58.69,125.34,11.26,1785092017342.318
0.38,-0.121,-0.727,-65.61,125.58,10.77,1785092017355.509
0.378,-0.161,-0.711,-76.72,126.65,11.54,1785092017361.5308
0.365,-0.196,-0.643,-84.78,128.67,15.08,1785092017372.113
0.363,-0.203,-0.572,-85.97,129.8,20.94,1785092017385.286
0.376,-0.187,-0.54,-82.31,129.95,25.97,1785092017391.344
0.408,-0.178,-0.552,-78.77,128.64,30.27,1785092017401.728
0.444,-0.173,-0.559,-77.85,127.51,32.23,1785092017412.3452
0.475,-0.162,-0.54,-79.68,127.05,31.53,1785092017425.671
0.498,-0.177,-0.492,-82.0,126.04,31.95,1785092017431.556
0.498,-0.177,-0.492,-82.83,123.81,32.5,1785092017442.109
0.506,-0.212,-0.457,-82.89,121.37,31.59,1785092017455.3472
0.504,-0.221,-0.424,-80.75,118.87,31.59,1785092017461.251
0.514,-0.214,-0.389,-73.89,116.34,32.17,1785092017471.7852
0.528,-0.235,-0.376,-73.89,116.34,32.17,1785092017482.419
0.537,-0.253,-0.361,-64.97,114.57,31.01,1785092017495.6619
0.543,-0.25,-0.35,-57.19,112.83,29.69,1785092017501.647
0.557,-0.256,-0.342,-52.25,110.51,28.38,1785092017512.1929
0.563,-0.252,-0.355,-50.36,108.58,25.85,1785092017525.485
0.576,-0.246,-0.354,-48.71,108.68,23.65,1785092017531.313
0.604,-0.248,-0.318,-43.43,109.65,22.68,1785092017541.8481
0.627,-0.234,-0.272,-33.14,110.2,22.52,1785092017555.0708
0.646,-0.209,-0.226,-20.97,109.62,23.56,1785092017561.0317
0.659,-0.185,-0.201,-11.84,107.06,23.59,1785092017571.5398
0.67,-0.191,-0.198,-9.8,104.13,21.79,1785092017582.057
0.679,-0.224,-0.221,-16.45,101.81,18.28,1785092017595.322
0.695,-0.237,-0.202,-32.11,100.77,14.62,1785092017601.2642
0.717,-0.236,-0.154,-47.06,98.39,13.4,1785092017611.734
0.738,-0.231,-0.138,-52.03,94.94,15.84,1785092017622.3162
0.743,-0.223,-0.11,-47.58,92.35,19.78,1785092017635.51
0.724,-0.19,-0.081,-40.62,88.6,22.4,1785092017641.63
0.716,-0.164,-0.085,-35.98,83.5,23.93,1785092017651.679
0.729,-0.171,-0.099,-35.4,79.29,25.15,1785092017662.273
0.752,-0.194,-0.107,-39.0,76.72,26.58,1785092017675.57
0.768,-0.224,-0.092,-45.93,74.77,27.77,1785092017681.434
0.761,-0.243,-0.06,-54.05,72.36,28.26,1785092017691.7231
0.744,-0.255,-0.032,-60.0,69.28,28.72,1785092017702.2542
0.729,-0.256,-0.022,-63.66,65.55,29.24,1785092017715.7178
0.73,-0.232,-0.017,-65.68,62.01,31.65,1785092017721.48
0.742,-0.224,-0.001,-64.46,58.75,35.83,1785092017731.72
0.733,-0.225,-0.01,-61.34,55.21,39.0,1785092017742.32
0.751,-0.226,-0.055,-58.26,52.83,41.38,1785092017755.4922
0.791,-0.219,-0.067,-56.67,52.19,44.37,1785092017761.419
0.797,-0.21,-0.044,-56.06,51.55,47.12,1785092017771.699
0.783,-0.222,-0.027,-55.45,50.36,49.62,1785092017782.2412
0.756,-0.242,-0.0,-56.49,48.19,52.0,1785092017795.5698
0.724,-0.257,0.037,-57.92,45.23,54.08,1785092017801.5098
0.703,-0.276,0.057,-58.63,42.02,55.7,1785092017811.7278
0.699,-0.29,0.049,-59.91,39.25,57.19,1785092017822.315
0.712,-0.298,0.038,-62.2,37.6,59.11,1785092017835.52
0.712,-0.31,0.036,-64.82,37.08,60.79,1785092017841.543
0.699,-0.32,0.019,-67.78,36.23,62.17,1785092017851.702
0.72,-0.322,-0.016,-71.66,35.13,63.66,1785092017862.171
0.759,-0.312,-0.05,-76.78,34.39,66.01,1785092017875.3103
0.801,-0.315,-0.064,-81.21,34.7,69.46,1785092017880.9211
0.792,-0.336,-0.044,-84.78,35.16,72.3,1785092017891.7507
0.745,-0.368,-0.014,-85.48,35.34,73.92,1785092017902.266
0.686,-0.412,0.023,-79.2,36.01,75.69,1785092017915.5278
0.628,-0.434,0.045,-66.44,37.17,76.36,1785092017921.484
0.614,-0.421,0.049,-47.24,40.19,74.1,1785092017931.678
0.659,-0.402,0.021,-33.78,39.86,77.09,1785092017942.2551
0.721,-0.398,-0.012,-21.39,41.99,81.3,1785092017955.518
0.751,-0.398,-0.021,-11.87,47.3,82.64,1785092017961.1663
0.757,-0.388,0.02,-9.92,49.44,84.02,1785092017974.2239
0.715,-0.414,0.01,-14.4,46.57,89.45,1785092017982.1628
0.699,-0.442,-0.008,-19.81,48.19,92.41,1785092017995.141
0.706,-0.468,-0.016,-25.48,52.37,94.27,1785092018000.9192
0.728,-0.499,0.024,-26.95,58.29,94.64,1785092018011.6213
0.704,-0.537,0.068,-27.04,59.54,96.56,1785092018022.233
0.655,-0.546,0.1,-22.68,60.55,97.66,1785092018035.468
0.652,-0.535,0.104,-15.02,61.86,100.86,1785092018041.4138
0.68,-0.532,0.109,-7.75,63.97,103.31,1785092018051.7812
0.667,-0.537,0.114,-7.35,62.35,105.2,1785092018062.2751
0.615,-0.566,0.111,-10.62,61.07,106.6,1785092018075.5078
0.593,-0.583,0.117,-13.82,60.98,107.64,1785092018081.455
0.611,-0.61,0.095,-15.87,60.03,110.17,1785092018091.954
0.618,-0.656,0.083,-16.51,60.43,112.77,1785092018105.3162
0.626,-0.699,0.057,-14.92,61.83,115.45,1785092018111.244
0.651,-0.744,0.051,-10.32,63.3,118.41,1785092018121.664
0.639,-0.769,0.091,-4.52,63.51,120.33,1785092018132.292
0.587,-0.773,0.136,1.53,61.59,122.87,1785092018145.577
0.502,-0.748,0.16,3.97,58.9,124.67,1785092018151.382
0.441,-0.723,0.165,3.05,57.16,126.68,1785092018161.6562
0.448,-0.741,0.162,0.55,55.21,130.01,1785092018172.3198
0.45,-0.771,0.167,-4.36,52.55,132.21,1785092018185.468
0.442,-0.798,0.133,-7.87,50.57,133.34,1785092018191.571
0.482,-0.849,0.106,-9.25,49.38,135.78,1785092018201.688
0.522,-0.891,0.121,-11.81,46.05,138.31,1785092018212.458
0.508,-0.917,0.148,-14.86,40.35,140.9,1785092018225.823
0.441,-0.929,0.167,-19.2,33.88,142.89,1785092018231.5781
0.34,-0.934,0.172,-26.58,27.01,144.14,1785092018241.898
0.243,-0.923,0.148,-37.32,20.69,145.39,1785092018255.324
0.181,-0.915,0.111,-48.59,16.39,146.92,1785092018261.28
0.159,-0.933,0.068,-57.86,13.86,148.5,1785092018271.751
0.195,-0.97,0.013,-64.36,12.02,150.03,1785092018282.374
0.258,-1.02,-0.025,-69.55,10.41,150.82,1785092018295.435
0.279,-1.056,-0.013,-74.74,7.75,150.91,1785092018301.591
0.234,-1.074,0.028,-78.43,3.23,152.04,1785092018311.9429
0.155,-1.088,0.05,-79.84,-3.05,154.42,1785092018322.5652
0.085,-1.11,0.043,-79.44,-8.51,155.8,1785092018335.711
0.026,-1.116,0.016,-78.68,-12.97,154.91,1785092018341.7869
-0.02,-1.1,-0.016,-78.43,-16.63,153.84,1785092018352.109
-0.035,-1.085,-0.063,-78.22,-19.84,153.94,1785092018365.3691
-0.001,-1.103,-0.144,-78.77,-21.94,153.45,1785092018371.283
0.023,-1.119,-0.19,-81.67,-22.68,151.43,1785092018381.804
0.024,-1.148,-0.189,-83.8,-23.41,149.57,1785092018392.4492
-0.026,-1.173,-0.154,-84.38,-26.12,147.43,1785092018405.946
-0.097,-1.168,-0.131,-82.03,-29.76,146.31,1785092018411.672
-0.161,-1.164,-0.122,-75.75,-32.44,145.66,1785092018422.182
-0.203,-1.157,-0.105,-69.22,-35.49,144.23,1785092018435.355
-0.217,-1.148,-0.1,-64.12,-40.19,142.61,1785092018441.423
-0.224,-1.142,-0.127,-60.15,-45.11,141.03,1785092018451.844
-0.225,-1.132,-0.191,-56.64,-48.83,139.32,1785092018465.1047
-0.218,-1.123,-0.276,-54.02,-50.26,137.24,1785092018471.1082
-0.215,-1.121,-0.335,-54.69,-50.17,135.11,1785092018481.57
-0.232,-1.118,-0.35,-57.31,-49.87,133.4,1785092018492.275
-0.267,-1.121,-0.328,-58.53,-49.68,132.33,1785092018505.482
-0.308,-1.134,-0.273,-55.6,-50.14,130.95,1785092018511.363
-0.351,-1.129,-0.213,-49.1,-52.31,128.54,1785092018521.898
-0.383,-1.107,-0.163,-41.2,-55.67,127.11,1785092018535.1328
-0.4,-1.089,-0.147,-33.08,-59.82,127.08,1785092018541.1611
-0.411,-1.074,-0.162,-26.4,-63.78,127.63,1785092018551.5818
-0.418,-1.068,-0.192,-22.58,-67.93,128.54,1785092018562.284
-0.439,-1.068,-0.259,-23.07,-72.27,127.26,1785092018575.552
-0.472,-1.069,-0.336,-28.44,-75.01,124.55,1785092018581.405
-0.508,-1.079,-0.388,-37.26,-75.87,122.32,1785092018592.108
-0.544,-1.091,-0.42,-48.68,-76.05,119.6,1785092018605.1982
-0.575,-1.105,-0.417,-62.9,-76.48,116.95,1785092018611.1218
-0.591,-1.12,-0.339,-80.2,-79.17,114.17,1785092018621.632
-0.586,-1.125,-0.248,-96.04,-85.06,110.26,1785092018632.284
-0.582,-1.1,-0.191,-106.75,-92.38,105.5,1785092018645.5823
-0.589,-1.044,-0.183,-113.32,-100.86,100.41,1785092018651.52
-0.619,-0.986,-0.273,-118.05,-110.35,95.25,1785092018662.3738
-0.63,-0.96,-0.408,-122.59,-117.16,91.95,1785092018675.658
-0.626,-0.959,-0.483,-128.03,-120.7,86.7,1785092018681.55
-0.638,-0.958,-0.495,-133.0,-124.03,78.59,1785092018692.375
-0.647,-0.974,-0.459,-133.92,-126.77,72.97,1785092018705.718
-0.655,-1.001,-0.356,-129.86,-130.1,69.58,1785092018711.518
-0.655,-1.001,-0.356,-120.24,-136.3,66.62,1785092018722.318
-0.667,-1.012,-0.285,-107.21,-142.03,64.91,1785092018735.5461
-0.686,-1.004,-0.303,-95.31,-145.27,64.06,1785092018741.621
-0.705,-0.968,-0.375,-87.44,-146.06,62.14,1785092018752.0562
-0.723,-0.918,-0.488,-85.45,-143.62,59.33,1785092018765.3298
-0.747,-0.861,-0.55,-85.45,-143.62,59.33,1785092018771.226
-0.75,-0.806,-0.55,-87.95,-140.81,55.97,1785092018781.7878
-0.743,-0.774,-0.472,-91.16,-138.16,52.98,1785092018792.4512
-0.735,-0.769,-0.309,-92.84,-137.97,50.57,1785092018805.924
-0.736,-0.787,-0.108,-90.55,-143.44,48.01,1785092018811.6538
-0.759,-0.824,0.001,-81.94,-155.03,46.08,1785092018822.1372
-0.806,-0.83,0.006,-69.12,-169.35,45.66,1785092018835.351
-0.894,-0.819,-0.196,-56.28,-184.0,46.66,1785092018841.438
-0.957,-0.759,-0.589,-48.71,-182.74,42.66,1785092018851.805
-1.021,-0.656,-0.891,-53.9,-169.65,36.9,1785092018862.471
-1.055,-0.562,-0.926,-73.64,-153.75,31.77,1785092018875.5168
-0.985,-0.529,-0.764,-99.8,-141.79,24.51,1785092018881.254
-0.89,-0.538,-0.471,-123.69,-133.88,16.69,1785092018892.192
-0.831,-0.548,-0.208,-137.21,-130.68,14.25,1785092018905.678
-0.811,-0.585,-0.067,-136.02,-132.02,16.14,1785092018911.483
-0.803,-0.641,-0.192,-125.31,-134.53,18.19,1785092018922.4373
-0.809,-0.682,-0.514,-113.77,-130.56,18.68,1785092018935.6401
-0.85,-0.657,-0.738,-107.88,-118.23,17.0,1785092018942.2532
-0.876,-0.599,-0.783,-108.71,-108.55,12.05,1785092018952.294
-0.886,-0.541,-0.71,-112.52,-101.38,2.66,1785092018965.492
-0.853,-0.518,-0.565,-115.82,-94.06,-6.78,1785092018971.4429
-0.83,-0.502,-0.426,-114.14,-84.75,-12.57,1785092018981.818
-0.838,-0.512,-0.321,-103.64,-75.5,-10.96,1785092018992.4749
-0.847,-0.545,-0.243,-85.88,-69.7,-4.33,1785092019005.77
-0.846,-0.568,-0.216,-64.82,-67.72,2.69,1785092019011.5452
-0.855,-0.555,-0.242,-45.69,-67.17,8.64,1785092019021.631
-0.853,-0.539,-0.303,-31.28,-66.01,13.64,1785092019032.238
-0.855,-0.48,-0.33,-26.67,-63.36,15.5,1785092019045.45
-0.878,-0.41,-0.323,-28.26,-60.7,16.97,1785092019051.324
-0.903,-0.396,-0.341,-32.75,-62.96,21.36,1785092019061.62
-0.914,-0.362,-0.348,-42.39,-59.36,19.29,1785092019072.209
-0.94,-0.326,-0.333,-55.73,-53.16,13.73,1785092019085.386
-1.022,-0.327,-0.351,-71.93,-54.02,15.87,1785092019091.346
-1.084,-0.257,-0.416,-78.95,-57.16,17.85,1785092019101.619
-1.181,-0.208,-0.598,-54.29,-53.5,12.33,1785092019112.252
-1.051,-0.295,-0.696,-32.32,-40.83,8.39,1785092019125.591
-0.94,-0.344,-0.611,-40.99,-23.38,3.27,1785092019131.443
-0.833,-0.424,-0.398,-56.03,-12.73,1.95,1785092019141.433
-0.802,-0.518,-0.25,-60.06,-12.63,6.71,1785092019151.83
-0.825,-0.514,-0.129,-57.86,-13.89,10.32,1785092019162.375
-0.864,-0.456,-0.107,-46.57,-14.98,13.12,1785092019175.6448
-0.9,-0.406,-0.132,-35.31,-12.94,15.32,1785092019181.6353
-0.93,-0.382,-0.162,-31.86,-11.26,17.18,1785092019191.9072
-0.918,-0.361,-0.192,-34.33,-9.43,18.49,1785092019202.345
-0.89,-0.329,-0.222,-36.38,-5.13,19.04,1785092019215.632
-0.83,-0.353,-0.213,-34.97,1.71,24.29,1785092019222.849
-0.821,-0.426,-0.178,-31.59,6.23,25.67,1785092019231.446
-0.928,-0.391,-0.152,-21.85,8.76,26.09,1785092019241.8071
-0.988,-0.32,-0.228,-12.73,6.78,20.17,1785092019252.436
-0.917,-0.331,-0.354,-10.04,12.36,13.61,1785092019265.7412
-0.849,-0.389,-0.444,-6.9,26.83,8.91,1785092019271.585
-0.854,-0.492,-0.421,1.83,37.26,4.64,1785092019281.496
-0.93,-0.478,-0.344,17.03,38.88,-7.87,1785092019292.0188
-0.936,-0.459,-0.242,36.04,38.18,-15.5,1785092019305.299
-0.907,-0.478,-0.148,57.37,39.49,-13.61,1785092019311.188
-0.897,-0.47,-0.102,80.2,40.74,-9.58,1785092019321.365
-0.902,-0.423,-0.096,100.5,40.31,-4.91,1785092019331.887
-0.9,-0.367,-0.116,116.28,39.06,0.4,1785092019342.468
-0.902,-0.309,-0.146,123.72,38.15,3.97,1785092019355.853
-0.895,-0.273,-0.157,122.5,37.14,7.14,1785092019361.608
-0.898,-0.264,-0.158,115.45,36.04,10.04,1785092019372.04
-0.875,-0.288,-0.152,104.68,35.49,13.67,1785092019385.269
-0.893,-0.288,-0.139,91.28,36.07,14.89,1785092019391.299
-0.897,-0.307,-0.12,77.49,35.71,18.16,1785092019401.515
-0.887,-0.33,-0.107,66.38,35.34,21.09,1785092019412.09
-0.899,-0.331,-0.104,56.98,34.67,21.7,1785092019425.411
-0.906,-0.34,-0.105,48.1,33.11,22.68,1785092019431.331
-0.911,-0.348,-0.099,38.7,31.4,23.71,1785092019441.534
-0.911,-0.355,-0.089,29.54,29.6,25.64,1785092019452.097
-0.911,-0.357,-0.083,21.91,27.31,27.71,1785092019465.3188
-0.907,-0.355,-0.091,15.29,24.38,28.99,1785092019471.299
-0.898,-0.359,-0.112,9.03,21.85,29.94,1785092019481.479
-0.889,-0.354,-0.123,2.04,19.62,28.78,1785092019491.937
-0.912,-0.331,-0.11,-4.97,17.7,26.67,1785092019502.379
-0.933,-0.344,-0.101,-8.36,16.14,28.32,1785092019515.6282
-0.905,-0.371,-0.122,-10.56,13.09,28.69,1785092019521.619
-0.912,-0.317,-0.146,-17.27,8.88,23.01,1785092019531.632
-0.913,-0.307,-0.178,-22.46,9.09,21.79,1785092019542.16
-0.893,-0.367,-0.241,-24.9,12.6,23.83,1785092019555.4077
-0.904,-0.38,-0.272,-28.29,16.33,22.22,1785092019561.378
-0.934,-0.371,-0.22,-28.2,19.84,21.73,1785092019571.5698
-0.925,-0.397,-0.141,-20.6,22.19,23.96,1785092019582.119
-0.893,-0.419,-0.072,-6.56,23.68,24.78,1785092019595.366
-0.892,-0.409,-0.021,10.93,23.59,25.06,1785092019601.244
-0.896,-0.381,-0.01,28.57,21.06,27.31,1785092019611.4922
-0.885,-0.361,-0.034,42.85,18.46,30.61,1785092019622.025
-0.882,-0.35,-0.086,53.38,17.79,32.17,1785092019635.103
-0.882,-0.355,-0.158,61.25,17.76,32.26,1785092019640.9512
-0.886,-0.364,-0.216,66.9,18.34,31.01,1785092019651.5068
-0.896,-0.364,-0.219,72.6,19.75,28.78,1785092019662.067
-0.905,-0.363,-0.17,79.93,20.84,26.7,1785092019675.322
-0.899,-0.371,-0.128,88.23,20.45,25.18,1785092019681.194
-0.899,-0.373,-0.115,95.55,18.77,24.2,1785092019691.4968
-0.902,-0.367,-0.126,99.58,16.14,24.51,1785092019702.013
-0.901,-0.373,-0.155,100.8,13.58,25.57,1785092019715.301
-0.904,-0.374,-0.187,99.0,11.35,26.18,1785092019721.2212
-0.911,-0.363,-0.228,93.72,9.43,25.51,1785092019731.561
-0.919,-0.345,-0.262,84.57,7.9,23.56,1785092019741.954
-0.922,-0.326,-0.276,71.17,6.99,20.81,1785092019752.414
-0.923,-0.316,-0.272,55.15,6.44,17.43,1785092019765.7148
