ax,ay,az,gx,gy,gz,timestamp_ms
-0.917,-0.295,-0.172,-3.57,-2.14,-0.52,1785091956940.84
-0.914,-0.308,-0.166,-5.92,-2.08,-0.21,1785091956941.3528
-0.915,-0.319,-0.16,-6.74,-2.35,0.21,1785091956941.8508
-0.916,-0.321,-0.159,-6.13,-2.9,0.85,1785091956942.361
-0.915,-0.317,-0.161,-5.19,-3.39,1.01,1785091956942.865
-0.911,-0.311,-0.16,-5.07,-3.91,0.85,1785091956943.413
-0.908,-0.314,-0.162,-5.07,-4.24,1.16,1785091956943.911
-0.903,-0.316,-0.16,-4.58,-4.43,1.5,1785091956944.3928
-0.901,-0.31,-0.16,-4.55,-4.55,1.25,1785091956944.875
-0.907,-0.315,-0.156,-4.76,-4.61,1.13,1785091956945.2842
-0.906,-0.316,-0.158,-4.3,-4.94,1.19,1785091956945.68
-0.911,-0.305,-0.158,-4.49,-4.94,0.89,1785091956946.077
-0.911,-0.319,-0.155,-4.46,-4.73,1.22,1785091956946.476
-0.909,-0.322,-0.159,-3.6,-4.67,1.25,1785091956946.8733
-0.913,-0.321,-0.157,-2.62,-4.73,0.7,1785091956947.268
-0.911,-0.329,-0.156,-0.85,-4.73,0.98,1785091956947.663
-0.912,-0.32,-0.158,0.7,-4.85,0.52,1785091956948.077
-0.915,-0.315,-0.161,1.59,-4.73,0.46,1785091956948.492
-0.914,-0.329,-0.162,2.35,-4.73,0.89,1785091956948.986
-0.917,-0.322,-0.162,2.93,-4.67,0.4,1785091956949.419
-0.92,-0.327,-0.163,3.72,-4.36,0.58,1785091956949.823
-0.926,-0.323,-0.166,4.61,-4.39,0.27,1785091956950.191
-0.931,-0.33,-0.162,5.16,-4.21,0.24,1785091956950.572
-0.932,-0.332,-0.168,6.1,-4.3,0.27,1785091956950.95
-0.934,-0.323,-0.168,6.71,-3.91,-0.24,1785091956951.269
-0.936,-0.322,-0.169,6.47,-3.42,-0.24,1785091956951.604
-0.929,-0.321,-0.173,5.58,-3.2,-0.37,1785091956951.93
-0.928,-0.309,-0.173,4.06,-2.66,-0.73,1785091956952.26
-0.927,-0.306,-0.176,2.08,-2.14,-0.7,1785091956952.5771
-0.925,-0.309,-0.177,-0.37,-1.86,-0.98,1785091956952.9128
-0.924,-0.305,-0.175,-2.75,-1.62,-1.43,1785091956953.2427
-0.924,-0.302,-0.175,-4.85,-1.37,-1.95,1785091956953.555
-0.924,-0.303,-0.173,-6.96,-1.22,-2.26,1785091956953.8748
-0.92,-0.302,-0.172,-8.64,-0.92,-2.53,1785091956954.197
-0.918,-0.299,-0.173,-9.83,-0.82,-2.78,1785091956954.514
-0.916,-0.295,-0.173,-10.83,-0.73,-2.72,1785091956954.8372
-0.92,-0.295,-0.172,-11.63,-0.67,-2.56,1785091956955.164
-0.923,-0.293,-0.17,-12.54,-0.61,-2.26,1785091956955.487
-0.923,-0.295,-0.171,-13.28,-0.37,-1.68,1785091956955.8079
-0.923,-0.297,-0.168,-13.52,-0.06,-1.07,1785091956956.1348
-0.924,-0.295,-0.165,-13.4,0.12,-0.49,1785091956956.4622
-0.925,-0.296,-0.162,-13.06,0.34,0.06,1785091956956.7812
-0.922,-0.297,-0.158,-12.54,0.49,0.55,1785091956957.101
-0.922,-0.298,-0.156,-11.78,0.58,0.85,1785091956957.419
-0.923,-0.297,-0.153,-10.44,0.52,1.28,1785091956957.741
-0.925,-0.3,-0.152,-9.16,0.64,1.74,1785091956958.0579
-0.923,-0.302,-0.153,-7.51,0.92,2.04,1785091956958.3782
-0.923,-0.302,-0.152,-6.07,1.01,2.32,1785091956958.6968
-0.924,-0.303,-0.152,-4.64,0.95,2.66,1785091956958.996
-0.925,-0.304,-0.151,-3.6,0.73,2.72,1785091956959.307
-0.924,-0.304,-0.149,-2.5,0.49,2.66,1785091956959.596
-0.924,-0.302,-0.153,-1.53,0.09,2.44,1785091956959.884
-0.922,-0.3,-0.154,-1.22,-0.09,2.26,1785091956960.156
-0.92,-0.299,-0.158,-1.13,-0.27,1.92,1785091956960.439
-0.919,-0.299,-0.162,-1.5,-0.55,1.65,1785091956960.7659
-0.919,-0.299,-0.163,-1.95,-0.64,1.28,1785091956961.041
-0.92,-0.299,-0.161,-2.5,-0.82,0.79,1785091956961.3252
-0.922,-0.297,-0.161,-3.11,-1.25,0.52,1785091956961.61
-0.923,-0.296,-0.162,-4.09,-1.43,0.06,1785091956961.889
-0.92,-0.301,-0.16,-4.82,-1.34,0.06,1785091956962.173
-0.92,-0.305,-0.157,-4.7,-1.31,0.21,1785091956962.4573
-0.925,-0.303,-0.162,-4.36,-1.28,0.27,1785091956962.755
-0.924,-0.302,-0.164,-4.33,-1.31,0.21,1785091956963.027
-0.921,-0.306,-0.164,-4.36,-1.07,0.24,1785091956963.317
-0.92,-0.31,-0.165,-4.15,-0.7,0.34,1785091956963.599
-0.921,-0.308,-0.165,-3.57,-0.52,0.55,1785091956963.885
-0.921,-0.306,-0.166,-2.99,-0.58,0.55,1785091956964.167
-0.921,-0.315,-0.163,-2.78,-0.24,0.61,1785091956964.4502
-0.928,-0.317,-0.168,-2.72,-0.46,-0.03,1785091956964.732
-0.929,-0.326,-0.167,-2.75,-0.18,-0.76,1785091956965.0078
-0.927,-0.347,-0.161,-1.86,0.06,-1.77,1785091956965.3052
-0.927,-0.358,-0.155,0.0,0.15,-3.08,1785091956965.592
-0.935,-0.374,-0.149,3.02,-0.15,-5.07,1785091956965.868
-0.939,-0.381,-0.153,7.17,-1.28,-7.81,1785091956966.1519
-0.931,-0.374,-0.155,12.09,-2.01,-9.67,1785091956966.443
-0.928,-0.37,-0.159,16.85,-2.56,-11.47,1785091956966.727
-0.926,-0.374,-0.177,20.08,-2.99,-13.7,1785091956966.9868
-0.925,-0.391,-0.185,20.23,-3.14,-16.6,1785091956967.263
-0.93,-0.411,-0.177,18.07,-3.3,-20.26,1785091956967.52
-0.928,-0.414,-0.167,15.84,-3.2,-23.53,1785091956967.766
-0.933,-0.433,-0.157,13.7,-2.81,-25.76,1785091956968.0532
-0.934,-0.454,-0.156,12.02,-2.87,-27.8,1785091956968.3071
-0.935,-0.481,-0.155,10.32,-3.42,-31.71,1785091956968.57
-0.934,-0.519,-0.153,9.16,-3.69,-37.2,1785091956968.875
-0.937,-0.549,-0.154,9.25,-3.94,-43.67,1785091956969.162
-0.924,-0.52,-0.166,11.78,-4.24,-50.26,1785091956969.419
-0.918,-0.464,-0.178,13.46,-3.88,-55.36,1785091956969.6719
-0.935,-0.484,-0.18,12.48,-3.88,-58.96,1785091956969.928
-0.922,-0.53,-0.18,10.77,-4.43,-62.2,1785091956970.1929
-0.913,-0.526,-0.18,8.0,-3.97,-65.74,1785091956970.443
-0.927,-0.565,-0.185,4.24,-3.66,-68.45,1785091956970.696
-0.926,-0.611,-0.17,0.55,-4.18,-71.08,1785091956970.95
-0.91,-0.645,-0.163,-1.62,-4.49,-75.14,1785091956971.1978
-0.876,-0.63,-0.16,-2.26,-2.81,-77.43,1785091956971.4507
-0.915,-0.685,-0.152,-4.24,-3.45,-82.19,1785091956971.6978
-0.883,-0.678,-0.146,-4.67,-4.67,-84.17,1785091956971.951
-0.856,-0.708,-0.134,-0.92,-3.78,-81.67,1785091956972.201
-0.873,-0.709,-0.141,2.11,-4.73,-86.15,1785091956972.46
-0.859,-0.649,-0.144,2.66,-6.07,-91.37,1785091956972.717
-0.842,-0.654,-0.154,0.76,-6.5,-91.83,1785091956972.975
-0.826,-0.692,-0.154,-4.0,-6.93,-93.11,1785091956973.226
-0.834,-0.726,-0.147,-8.76,-7.17,-97.38,1785091956973.482
-0.846,-0.763,-0.125,-11.41,-7.39,-100.68,1785091956973.7458
-0.842,-0.792,-0.104,-10.32,-7.63,-102.3,1785091956973.994
-0.823,-0.801,-0.099,-5.43,-7.26,-103.76,1785091956974.2488
-0.819,-0.784,-0.101,-2.17,-8.88,-105.72,1785091956974.528
-0.798,-0.767,-0.099,-0.76,-10.22,-106.14,1785091956974.7742
-0.784,-0.768,-0.111,-1.43,-11.23,-106.27,1785091956975.028
-0.771,-0.797,-0.097,-4.27,-12.02,-106.78,1785091956975.2698
-0.757,-0.831,-0.083,-6.07,-13.12,-109.35,1785091956975.5251
-0.756,-0.851,-0.067,-6.26,-15.17,-112.43,1785091956975.761
-0.734,-0.85,-0.066,-4.7,-18.01,-114.17,1785091956976.01
-0.728,-0.826,-0.069,-3.42,-20.97,-115.39,1785091956976.249
-0.714,-0.821,-0.073,-2.59,-22.86,-113.96,1785091956976.481
-0.682,-0.826,-0.08,-4.64,-24.96,-112.28,1785091956976.7207
-0.672,-0.822,-0.081,-8.85,-25.85,-114.93,1785091956976.9568
-0.703,-0.817,-0.065,-17.98,-29.97,-118.41,1785091956977.2
-0.677,-0.877,-0.026,-23.38,-32.72,-113.35,1785091956977.4321
-0.594,-0.941,-0.001,-16.54,-30.85,-109.78,1785091956977.675
-0.594,-0.925,-0.024,-7.63,-31.19,-114.87,1785091956977.9202
-0.613,-0.868,-0.04,-8.97,-37.97,-120.85,1785091956978.174
-0.607,-0.862,-0.028,-14.28,-41.78,-120.03,1785091956978.414
-0.607,-0.862,-0.028,-18.19,-42.42,-115.15,1785091956978.652
-0.574,-0.895,-0.03,-20.78,-42.33,-113.86,1785091956978.897
-0.551,-0.914,-0.013,-20.91,-41.96,-115.36,1785091956979.1301
-0.539,-0.923,0.001,-23.38,-44.92,-117.83,1785091956979.38
-0.53,-0.923,0.009,-27.53,-47.3,-119.97,1785091956979.626
-0.519,-0.914,0.025,-27.53,-47.3,-119.97,1785091956979.867
-0.504,-0.927,0.04,-29.6,-47.91,-119.21,1785091956980.106
-0.49,-0.955,0.041,-28.87,-48.95,-117.89,1785091956980.358
-0.486,-0.941,0.058,-28.84,-51.48,-117.13,1785091956980.604
-0.462,-0.93,0.06,-28.11,-53.99,-116.34,1785091956980.823
-0.45,-0.914,0.038,-28.05,-56.55,-117.25,1785091956981.064
-0.436,-0.9,0.038,-30.73,-58.9,-117.04,1785091956981.293
-0.416,-0.923,0.035,-33.51,-60.73,-116.25,1785091956981.537
-0.416,-0.931,0.026,-36.56,-61.89,-116.89,1785091956981.7578
-0.431,-0.91,0.024,-41.99,-64.79,-116.92,1785091956981.9907
-0.398,-0.911,0.03,-44.5,-65.37,-113.47,1785091956982.2231
-0.378,-0.915,0.02,-43.64,-65.0,-113.13,1785091956982.445
-0.387,-0.893,0.011,-45.72,-67.42,-115.42,1785091956982.6719
-0.378,-0.93,0.014,-47.06,-67.9,-114.51,1785091956982.9011
-0.378,-0.961,0.013,-47.36,-69.25,-114.78,1785091956983.1282
-0.366,-0.971,0.012,-44.47,-69.83,-114.51,1785091956983.3447
-0.351,-0.99,0.01,-40.13,-70.68,-113.8,1785091956983.5762
-0.355,-0.996,0.024,-36.77,-72.51,-113.22,1785091956983.799
-0.359,-1.021,0.034,-32.35,-74.62,-113.22,1785091956984.0168
-0.366,-1.035,0.026,-27.38,-76.48,-114.51,1785091956984.239
-0.356,-1.031,0.01,-21.64,-77.94,-115.18,1785091956984.4639
-0.337,-1.018,-0.011,-15.44,-78.89,-116.67,1785091956984.696
-0.317,-1.013,-0.018,-10.68,-80.39,-118.29,1785091956984.916
-0.316,-0.993,-0.028,-8.55,-82.95,-120.15,1785091956985.141
-0.314,-0.957,-0.03,-7.87,-84.57,-119.75,1785091956985.3818
-0.289,-0.949,-0.025,-8.61,-86.83,-118.47,1785091956985.599
-0.27,-0.968,-0.017,-8.58,-89.36,-118.69,1785091956985.822
-0.262,-0.983,-0.021,-6.26,-91.37,-120.33,1785091956986.062
-0.264,-0.955,-0.026,-1.95,-91.37,-123.48,1785091956986.284
-0.281,-0.864,-0.06,1.53,-96.04,-123.66,1785091956986.4968
-0.218,-0.78,-0.174,-1.59,-103.64,-120.06,1785091956986.721
-0.123,-0.75,-0.182,-5.19,-95.31,-112.7,1785091956986.962
-0.172,-0.667,-0.191,-11.29,-87.98,-116.76,1785091956987.177
-0.137,-0.704,-0.244,-22.06,-91.71,-102.08,1785091956987.387
-0.088,-0.744,-0.267,-29.18,-92.01,-90.33,1785091956987.606
-0.099,-0.711,-0.247,-28.53,-86.92,-88.78,1785091956987.812
-0.08,-0.724,-0.264,-19.14,-83.22,-81.64,1785091956988.0168
-0.077,-0.676,-0.303,-11.14,-81.73,-77.3,1785091956988.225
-0.086,-0.592,-0.335,-5.52,-78.89,-72.18,1785091956988.432
-0.065,-0.577,-0.355,-0.27,-73.21,-63.75,1785091956988.678
-0.05,-0.549,-0.421,-1.1,-70.65,-56.28,1785091956988.9111
-0.066,-0.504,-0.478,-6.32,-65.16,-47.82,1785091956989.124
-0.063,-0.513,-0.501,-12.57,-56.49,-40.38,1785091956989.3398
-0.039,-0.527,-0.473,-20.45,-45.53,-37.54,1785091956989.5688
-0.017,-0.57,-0.43,-27.41,-40.53,-26.0,1785091956989.773
0.041,-0.786,-0.278,-5.01,-27.71,-0.27,1785091956990.179
0.046,-0.811,-0.248,17.18,-22.64,4.21,1785091956990.384
-0.653,-0.565,-0.636,-32.65,-2.29,7.17,1785091956990.798
-0.688,-0.6,-0.584,-32.47,-0.98,4.64,1785091956990.997
-0.724,-0.668,-0.516,-19.01,-0.06,0.09,1785091956991.201
-0.77,-0.657,-0.455,-0.37,-0.18,-5.65,1785091956991.398
-0.825,-0.61,-0.409,18.01,1.22,-8.21,1785091957000.0542
-0.892,-0.572,-0.354,30.09,2.59,-10.22,1785091957010.513
-0.97,-0.508,-0.349,32.32,2.04,-12.12,1785091957020.994
-1.058,-0.518,-0.378,31.95,2.17,-12.3,1785091957034.3271
-1.134,-0.586,-0.349,31.89,3.39,-15.14,1785091957039.8452
-1.163,-0.647,-0.282,40.13,2.75,-23.26,1785091957050.188
-1.153,-0.669,-0.256,60.21,2.14,-32.11,1785091957060.6921
-1.157,-0.651,-0.262,86.12,2.5,-41.02,1785091957071.1738
-1.187,-0.596,-0.278,110.26,1.56,-50.54,1785091957084.382
-1.204,-0.545,-0.297,128.48,-1.59,-57.77,1785091957090.063
-1.218,-0.496,-0.306,136.3,-4.79,-61.59,1785091957100.606
-1.202,-0.443,-0.307,131.26,-9.95,-60.15,1785091957111.192
-1.202,-0.443,-0.307,116.31,-14.25,-54.32,1785091957124.491
-1.168,-0.393,-0.365,93.02,-15.17,-46.02,1785091957130.161
-1.141,-0.375,-0.386,67.54,-15.93,-38.54,1785091957140.726
-1.117,-0.412,-0.356,47.73,-16.66,-34.36,1785091957154.0532
-1.099,-0.476,-0.331,38.88,-16.66,-32.53,1785091957159.8542
-1.094,-0.524,-0.254,38.88,-16.66,-32.53,1785091957170.342
-1.091,-0.533,-0.179,43.49,-20.02,-30.09,1785091957180.913
-1.053,-0.499,-0.214,55.02,-26.34,-24.35,1785091957194.14
-1.003,-0.458,-0.288,61.19,-31.65,-16.21,1785091957200.236
-0.976,-0.442,-0.347,55.42,-35.89,-7.48,1785091957210.0461
-0.955,-0.487,-0.361,40.25,-39.09,1.65,1785091957220.78
-0.949,-0.566,-0.311,22.1,-41.11,9.4,1785091957231.22
-0.948,-0.653,-0.243,11.35,-43.15,16.11,1785091957244.4758
-0.939,-0.728,-0.207,14.53,-43.58,23.62,1785091957250.3792
-0.891,-0.749,-0.185,27.77,-43.06,33.02,1785091957260.642
-0.791,-0.716,-0.212,41.96,-44.16,44.04,1785091957271.199
-0.705,-0.68,-0.277,48.46,-45.72,55.88,1785091957284.447
-0.671,-0.695,-0.32,43.79,-46.88,66.44,1785091957290.413
-0.663,-0.772,-0.324,31.74,-48.34,74.31,1785091957300.627
-0.665,-0.868,-0.371,21.03,-49.62,78.92,1785091957311.251
-0.648,-0.911,-0.482,17.15,-47.4,83.07,1785091957324.527
-0.585,-0.888,-0.6,19.84,-40.86,89.39,1785091957330.42
-0.479,-0.853,-0.643,24.81,-31.65,95.37,1785091957340.7441
-0.4,-0.84,-0.601,27.53,-23.01,98.79,1785091957351.223
-0.386,-0.818,-0.511,26.09,-16.14,100.99,1785091957364.4822
-0.412,-0.792,-0.397,22.13,-10.93,105.81,1785091957370.376
-0.431,-0.819,-0.264,19.26,-7.84,113.16,1785091957380.8289
-0.434,-0.889,-0.145,19.81,-7.35,117.98,1785091957391.4321
-0.441,-0.93,-0.109,27.38,-8.03,118.63,1785091957404.674
-0.415,-0.949,-0.18,45.01,-7.6,117.8,1785091957410.636
-0.348,-0.912,-0.325,67.05,-5.58,115.12,1785091957420.934
-0.283,-0.829,-0.437,85.97,-2.38,110.23,1785091957431.4211
-0.255,-0.72,-0.49,95.65,0.18,105.17,1785091957444.605
-0.269,-0.612,-0.487,93.23,2.75,102.05,1785091957450.556
-0.298,-0.555,-0.428,82.4,5.1,101.69,1785091957460.851
-0.329,-0.527,-0.35,66.65,5.49,102.05,1785091957471.378
-0.357,-0.507,-0.295,51.52,4.67,101.93,1785091957484.637
-0.387,-0.501,-0.283,39.28,4.12,101.26,1785091957490.628
-0.429,-0.503,-0.304,28.14,3.57,99.86,1785091957500.708
-0.469,-0.508,-0.328,16.91,3.08,98.39,1785091957511.2153
-0.509,-0.523,-0.347,5.95,2.9,95.68,1785091957524.4802
-0.555,-0.541,-0.355,-3.51,2.96,91.95,1785091957530.0833
-0.617,-0.534,-0.343,-12.09,2.78,88.72,1785091957540.2578
-0.695,-0.507,-0.313,-20.48,1.62,86.61,1785091957550.693
-0.767,-0.485,-0.278,-30.09,-0.09,86.06,1785091957561.1301
-0.821,-0.48,-0.246,-41.02,-1.53,85.88,1785091957574.43
-0.846,-0.488,-0.232,-51.94,-2.17,85.06,1785091957580.2087
-0.857,-0.492,-0.251,-62.32,-2.56,83.19,1785091957590.378
-0.837,-0.492,-0.309,-70.68,-1.74,81.85,1785091957600.8452
-0.797,-0.486,-0.39,-76.48,0.79,80.6,1785091957611.338
-0.8,-0.469,-0.432,-82.46,4.43,78.4,1785091957624.6929
-0.854,-0.47,-0.422,-88.9,6.5,75.75,1785091957630.367
-0.908,-0.484,-0.378,-94.73,6.26,73.79,1785091957640.721
-0.925,-0.507,-0.325,-95.74,6.44,72.42,1785091957650.9111
-0.921,-0.525,-0.294,-89.36,7.54,70.59,1785091957664.152
-0.92,-0.532,-0.284,-76.97,9.55,67.57,1785091957669.976
-0.945,-0.52,-0.306,-63.97,9.34,64.61,1785091957680.064
-0.894,-0.498,-0.363,-52.86,7.54,62.72,1785091957690.6611
-0.878,-0.442,-0.397,-42.63,9.7,55.7,1785091957701.041
-0.891,-0.397,-0.416,-34.94,12.21,48.1,1785091957714.3171
-0.903,-0.393,-0.415,-29.57,14.25,42.24,1785091957720.1997
-0.91,-0.41,-0.4,-24.99,15.9,35.95,1785091957730.5469
-0.918,-0.418,-0.381,-20.66,17.21,29.33,1785091957741.045
-0.916,-0.423,-0.359,-14.56,18.62,24.29,1785091957754.1929
-0.908,-0.425,-0.351,-6.32,19.62,20.14,1785091957760.292
-0.895,-0.413,-0.354,2.99,20.29,15.35,1785091957770.336
-0.878,-0.398,-0.363,12.73,20.94,10.47,1785091957780.9128
-0.858,-0.368,-0.373,21.52,20.81,6.44,1785091957791.3599
-0.842,-0.323,-0.387,28.38,20.63,2.5,1785091957804.537
-0.837,-0.278,-0.405,31.28,20.57,-0.55,1785091957810.4802
-0.828,-0.247,-0.406,28.5,19.71,-3.23,1785091957820.54
-0.819,-0.23,-0.403,21.73,18.8,-5.01,1785091957831.0469
-0.817,-0.231,-0.412,13.64,17.94,-6.23,1785091957844.28
-0.825,-0.215,-0.431,3.27,17.18,-6.62,1785091957849.996
-0.831,-0.195,-0.442,-8.61,17.24,-5.22,1785091957860.0
-0.831,-0.193,-0.438,-21.15,18.16,-2.78,1785091957870.52
-0.841,-0.21,-0.415,-33.33,18.49,-0.73,1785091957880.959
-0.853,-0.238,-0.391,-43.64,18.34,1.13,1785091957894.2102
-0.863,-0.274,-0.366,-50.11,18.65,1.98,1785091957900.0242
-0.873,-0.312,-0.346,-52.0,19.14,2.2,1785091957910.1729
-0.883,-0.33,-0.33,-49.78,19.81,2.41,1785091957920.5708
-0.89,-0.335,-0.316,-44.22,20.42,2.72,1785091957931.0332
-0.904,-0.332,-0.3,-37.02,20.81,2.44,1785091957944.266
-0.92,-0.323,-0.286,-29.48,20.72,1.77,1785091957950.1318
-0.93,-0.317,-0.265,-22.95,20.42,0.73,1785091957960.234
-0.93,-0.324,-0.246,-17.09,19.62,-1.07,1785091957970.72
-0.93,-0.326,-0.23,-11.54,18.59,-3.14,1785091957981.259
-0.921,-0.326,-0.221,-5.71,17.43,-4.97,1785091957994.411
-0.909,-0.316,-0.227,0.31,16.05,-6.99,1785091958000.069
-0.9,-0.285,-0.238,3.57,14.5,-8.76,1785091958010.175
-0.894,-0.261,-0.241,3.11,12.76,-9.74,1785091958020.4758
-0.885,-0.254,-0.236,-0.67,10.53,-10.83,1785091958031.003
-0.869,-0.246,-0.232,-6.29,8.27,-11.75,1785091958041.333
-0.854,-0.241,-0.229,-11.84,6.07,-12.27,1785091958054.578
-0.846,-0.245,-0.224,-17.61,3.51,-12.6,1785091958060.432
-0.841,-0.246,-0.218,-23.38,0.64,-12.88,1785091958070.96
-0.835,-0.243,-0.21,-28.69,-2.26,-13.15,1785091958081.002
-0.839,-0.241,-0.206,-33.48,-5.19,-12.85,1785091958094.2732
-0.843,-0.248,-0.202,-38.03,-8.21,-12.42,1785091958100.034
-0.848,-0.253,-0.197,-42.45,-11.2,-12.21,1785091958110.2468
-0.85,-0.25,-0.187,-46.3,-14.22,-11.35,1785091958120.781
-0.848,-0.249,-0.188,-50.05,-16.63,-9.98,1785091958131.271
-0.848,-0.249,-0.19,-54.9,-19.04,-9.03,1785091958144.4854
-0.856,-0.253,-0.189,-60.79,-21.45,-8.24,1785091958150.323
-0.869,-0.267,-0.182,-66.68,-23.65,-7.9,1785091958160.5278
-0.885,-0.285,-0.174,-71.38,-26.0,-8.3,1785091958171.026
-0.895,-0.301,-0.173,-74.1,-28.38,-8.3,1785091958184.194
-0.903,-0.31,-0.175,-75.26,-30.34,-8.88,1785091958190.271
-0.901,-0.313,-0.177,-75.59,-32.17,-10.01,1785091958200.246
-0.893,-0.313,-0.189,-75.72,-34.21,-11.72,1785091958210.5989
-0.885,-0.303,-0.207,-77.43,-35.74,-13.46,1785091958221.3198
-0.879,-0.297,-0.236,-81.06,-37.02,-14.98,1785091958234.614
-0.883,-0.3,-0.255,-86.34,-37.87,-16.14,1785091958240.558
-0.893,-0.311,-0.26,-91.86,-38.97,-17.49,1785091958250.7761
-0.903,-0.323,-0.268,-96.62,-41.11,-18.71,1785091958261.3289
-0.924,-0.337,-0.27,-101.69,-43.64,-19.65,1785091958274.689
-0.947,-0.352,-0.284,-108.19,-46.6,-20.69,1785091958280.527
-0.954,-0.38,-0.306,-115.73,-48.89,-22.0,1785091958291.105
-0.946,-0.399,-0.333,-122.47,-50.05,-23.93,1785091958304.291
-0.945,-0.404,-0.352,-127.54,-49.84,-25.94,1785091958310.3171
-0.95,-0.435,-0.362,-131.29,-48.86,-29.66,1785091958320.7942
-0.964,-0.457,-0.369,-135.65,-47.21,-35.71,1785091958331.433
-0.983,-0.468,-0.369,-138.89,-43.61,-41.08,1785091958344.634
-1.002,-0.48,-0.362,-141.24,-39.64,-46.39,1785091958350.561
-1.013,-0.481,-0.364,-144.75,-36.13,-52.4,1785091958361.089
-1.009,-0.478,-0.379,-150.09,-32.84,-58.32,1785091958374.4043
-1.032,-0.481,-0.385,-156.47,-29.66,-64.79,1785091958380.491
-1.023,-0.488,-0.392,-162.42,-26.98,-71.44,1785091958390.869
-1.051,-0.455,-0.39,-169.93,-23.83,-81.18,1785091958404.073
-1.051,-0.455,-0.39,-175.27,-20.91,-86.95,1785091958410.009
-1.127,-0.442,-0.375,-178.17,-19.38,-88.53,1785091958420.5198
-1.107,-0.476,-0.392,-183.94,-17.12,-96.84,1785091958431.168
-1.083,-0.457,-0.407,-190.71,-14.01,-104.86,1785091958444.426
-1.106,-0.424,-0.399,-190.71,-14.01,-104.86,1785091958450.346
-1.104,-0.452,-0.378,-194.83,-11.69,-108.31,1785091958461.132
-1.093,-0.454,-0.338,-196.94,-9.58,-113.47,1785091958474.426
-1.105,-0.417,-0.294,-195.1,-6.68,-119.3,1785091958480.269
-1.12,-0.396,-0.265,-190.62,-4.15,-122.75,1785091958490.8918
-1.12,-0.388,-0.253,-188.06,-1.92,-125.61,1785091958504.046
-1.11,-0.377,-0.254,-188.02,1.98,-128.18,1785091958510.041
-1.1,-0.367,-0.258,-190.4,6.04,-129.0,1785091958520.501
-1.068,-0.365,-0.283,-193.58,10.01,-128.45,1785091958531.2869
-1.048,-0.386,-0.299,-194.56,15.14,-128.15,1785091958544.555
-1.052,-0.414,-0.289,-192.39,19.71,-128.91,1785091958550.456
-1.051,-0.447,-0.252,-185.61,21.7,-130.77,1785091958561.233
-1.04,-0.47,-0.221,-174.96,21.88,-132.57,1785091958574.555
-1.036,-0.459,-0.214,-163.12,20.69,-133.27,1785091958580.414
-1.043,-0.415,-0.243,-153.66,19.56,-131.84,1785091958591.296
-1.057,-0.336,-0.306,-150.88,19.93,-127.38,1785091958604.4412
-1.068,-0.278,-0.349,-155.37,22.34,-122.23,1785091958610.455
-1.078,-0.295,-0.355,-163.95,25.91,-119.54,1785091958621.2
-1.078,-0.359,-0.335,-171.61,28.9,-120.06,1785091958634.429
-1.067,-0.437,-0.339,-172.58,31.16,-121.34,1785091958640.507
-1.057,-0.521,-0.378,-164.74,33.81,-122.04,1785091958651.1318
-1.043,-0.599,-0.423,-150.88,37.6,-121.49,1785091958664.4
-1.043,-0.635,-0.441,-133.7,41.44,-120.88,1785091958670.304
-1.044,-0.633,-0.463,-113.9,44.01,-121.65,1785091958681.121
-1.039,-0.615,-0.507,-92.53,45.81,-124.42,1785091958694.396
-1.054,-0.566,-0.555,-74.25,47.15,-128.51,1785091958700.279
-1.078,-0.497,-0.608,-61.71,48.59,-131.29,1785091958710.7993
-1.079,-0.447,-0.681,-57.5,50.51,-132.27,1785091958724.101
-1.075,-0.447,-0.751,-61.8,53.22,-133.24,1785091958729.959
-1.066,-0.481,-0.801,-71.35,56.43,-135.14,1785091958740.611
-1.067,-0.524,-0.818,-80.78,60.12,-137.24,1785091958751.1511
-1.065,-0.564,-0.819,-85.88,64.24,-137.85,1785091958764.4219
-1.064,-0.596,-0.808,-85.33,68.79,-137.58,1785091958770.3328
-1.068,-0.6,-0.788,-79.78,72.76,-137.46,1785091958780.9111
-1.071,-0.604,-0.746,-68.94,75.72,-137.24,1785091958794.1538
-1.063,-0.611,-0.692,-52.0,76.45,-137.58,1785091958800.061
-1.029,-0.613,-0.728,-29.79,75.08,-134.8,1785091958810.543
-0.985,-0.61,-0.848,-10.99,74.37,-127.51,1785091958821.2039
-0.944,-0.59,-0.93,-6.84,75.08,-118.2,1785091958834.445
-0.893,-0.56,-0.95,-18.68,76.02,-109.47,1785091958840.4429
-0.843,-0.539,-0.952,-38.82,77.88,-101.17,1785091958850.814
-0.815,-0.562,-0.924,-58.75,81.09,-94.88,1785091958861.4148
-0.801,-0.608,-0.861,-72.97,84.48,-93.17,1785091958874.76
-0.785,-0.642,-0.812,-78.19,87.22,-96.29,1785091958880.5618
-0.777,-0.64,-0.807,-76.36,90.06,-101.44,1785091958891.024
-0.798,-0.61,-0.817,-73.15,92.99,-103.85,1785091958904.209
-0.806,-0.611,-0.841,-69.37,94.55,-102.82,1785091958910.1628
-0.805,-0.639,-0.898,-66.62,95.71,-100.99,1785091958920.4631
-0.819,-0.658,-0.928,-66.87,98.3,-98.82,1785091958931.2231
-0.824,-0.657,-0.918,-68.06,101.5,-95.58,1785091958944.468
-0.798,-0.637,-0.913,-66.9,105.56,-93.05,1785091958950.358
-0.776,-0.614,-0.9,-62.01,109.84,-93.08,1785091958960.9202
-0.757,-0.581,-0.856,-55.82,111.88,-94.94,1785091958974.298
-0.731,-0.543,-0.82,-48.4,112.34,-97.45,1785091958980.146
-0.698,-0.514,-0.819,-40.93,112.28,-99.4,1785091958990.6619
-0.661,-0.502,-0.838,-37.69,112.0,-100.16,1785091959001.3499
-0.646,-0.485,-0.854,-41.51,112.52,-100.53,1785091959014.575
-0.65,-0.451,-0.859,-51.91,113.32,-98.94,1785091959020.506
-0.635,-0.42,-0.83,-63.91,116.4,-95.86,1785091959031.086
-0.622,-0.422,-0.804,-74.47,118.14,-92.44,1785091959044.2979
-0.582,-0.461,-0.769,-81.06,117.56,-87.92,1785091959050.2559
-0.551,-0.499,-0.734,-81.24,117.07,-85.02,1785091959060.7822
-0.546,-0.506,-0.742,-76.48,116.49,-84.26,1785091959074.031
-0.542,-0.466,-0.752,-71.78,114.66,-83.22,1785091959079.983
-0.525,-0.382,-0.755,-69.03,113.28,-80.84,1785091959090.5469
-0.494,-0.306,-0.751,-65.34,114.78,-78.95,1785091959101.106
-0.451,-0.248,-0.595,-61.62,116.28,-76.39,1785091959114.389
-0.353,-0.225,-0.6,-53.13,112.49,-72.12,1785091959120.3242
-0.283,-0.279,-0.69,-40.19,111.97,-70.41,1785091959130.872
-0.296,-0.24,-0.669,-36.84,110.93,-70.93,1785091959144.0718
-0.297,-0.152,-0.654,-37.45,108.04,-67.87,1785091959150.053
-0.286,-0.094,-0.664,-38.3,106.48,-61.74,1785091959160.596
-0.247,-0.066,-0.706,-40.56,104.53,-54.87,1785091959171.0132
-0.177,-0.053,-0.748,-43.09,103.03,-47.03,1785091959184.4229
-0.089,-0.06,-0.786,-43.82,102.6,-38.82,1785091959190.524
-0.021,-0.096,-0.827,-44.68,101.99,-31.89,1785091959200.929
-0.007,-0.137,-0.827,-49.04,100.8,-27.04,1785091959214.221
-0.028,-0.156,-0.819,-56.79,98.76,-22.16,1785091959220.1072
-0.042,-0.158,-0.797,-65.4,96.71,-15.23,1785091959230.809
-0.042,-0.157,-0.788,-70.71,95.86,-8.15,1785091959240.9531
-0.015,-0.119,-0.824,-72.76,97.2,-1.46,1785091959251.4062
0.034,-0.119,-0.815,-68.3,100.77,5.04,1785091959264.6567
0.06,-0.137,-0.77,-59.57,104.53,8.48,1785091959270.841
0.072,-0.128,-0.724,-51.58,107.21,10.13,1785091959280.917
0.084,-0.125,-0.691,-45.9,107.43,12.09,1785091959294.2441
0.097,-0.125,-0.706,-45.32,105.35,13.82,1785091959300.102
0.091,-0.104,-0.747,-50.87,103.79,15.63,1785091959310.608
0.088,-0.057,-0.807,-58.72,104.4,18.43,1785091959321.2522
0.1,-0.026,-0.838,-65.25,106.6,22.06,1785091959334.558
0.145,-0.053,-0.853,-67.66,107.64,24.11,1785091959340.534
0.178,-0.072,-0.846,-66.19,109.44,21.82,1785091959350.963
0.185,-0.051,-0.785,-61.13,113.41,19.17,1785091959364.206
0.198,-0.061,-0.73,-49.62,116.86,21.21,1785091959370.124
0.218,-0.096,-0.717,-36.96,119.3,26.4,1785091959380.657
0.23,-0.105,-0.692,-31.07,121.77,31.25,1785091959391.333
0.246,-0.091,-0.677,-29.79,122.71,35.8,1785091959404.597
0.268,-0.063,-0.659,-30.43,122.93,39.03,1785091959410.5989
0.298,-0.041,-0.678,-33.51,121.77,39.25,1785091959421.029
0.332,-0.047,-0.704,-40.89,120.46,36.19,1785091959434.262
0.338,-0.053,-0.705,-53.59,119.85,32.84,1785091959440.285
0.326,-0.061,-0.694,-68.21,119.21,31.8,1785091959450.7498
0.316,-0.096,-0.666,-81.12,118.81,32.07,1785091959461.3628
0.311,-0.14,-0.611,-91.16,117.77,32.81,1785091959474.637
0.319,-0.155,-0.546,-95.34,116.37,34.12,1785091959480.511
0.363,-0.15,-0.522,-91.34,114.38,37.51,1785091959491.075
0.435,-0.154,-0.521,-81.82,112.0,41.17,1785091959504.327
0.493,-0.142,-0.499,-73.64,109.23,42.05,1785091959510.2651
0.512,-0.103,-0.477,-69.15,105.59,41.6,1785091959520.948
0.528,-0.048,-0.455,-68.18,101.63,43.0,1785091959531.414
0.57,0.014,-0.432,-69.06,97.84,46.24,1785091959544.634
0.605,0.029,-0.445,-69.89,94.52,49.93,1785091959550.59
0.604,-0.004,-0.481,-73.7,92.5,52.28,1785091959560.8708
0.58,-0.042,-0.476,-82.13,91.68,53.96,1785091959571.397
0.547,-0.078,-0.475,-89.39,91.04,55.73,1785091959584.646
0.535,-0.102,-0.523,-94.21,91.04,58.26,1785091959590.689
0.574,-0.119,-0.545,-97.14,93.08,61.37,1785091959600.817
0.62,-0.135,-0.534,-96.84,96.53,63.02,1785091959611.424
0.643,-0.157,-0.524,-92.78,100.44,62.96,1785091959624.875
0.633,-0.172,-0.516,-85.7,103.98,62.2,1785091959630.6228
0.602,-0.186,-0.518,-74.62,107.55,61.98,1785091959641.1729
0.573,-0.189,-0.487,-61.31,112.31,61.19,1785091959654.3738
0.534,-0.094,-0.335,-52.28,115.51,59.76,1785091959660.4102
0.617,0.102,-0.269,-49.78,113.44,65.74,1785091959670.988
0.724,0.002,-0.266,-40.59,112.37,69.09,1785091959684.0752
0.724,0.002,-0.266,-48.01,111.94,62.96,1785091959690.167
0.699,-0.037,-0.262,-58.66,113.1,59.39,1785091959700.5159
0.68,-0.019,-0.176,-62.96,108.37,60.88,1785091959711.178
0.72,-0.024,-0.122,-67.42,100.65,64.03,1785091959724.511
0.745,-0.072,-0.134,-72.76,94.85,64.0,1785091959730.339
0.742,-0.107,-0.12,-72.76,94.85,64.0,1785091959740.7988
0.705,-0.125,-0.101,-76.27,88.14,63.3,1785091959751.2432
0.671,-0.123,-0.117,-77.52,81.58,64.06,1785091959764.516
0.695,-0.112,-0.171,-78.98,76.88,66.77,1785091959770.3801
0.752,-0.117,-0.222,-83.01,73.95,70.01,1785091959780.691
0.781,-0.133,-0.222,-90.03,72.6,73.37,1785091959791.2869
0.771,-0.148,-0.193,-97.29,71.11,76.27,1785091959804.6
0.73,-0.18,-0.158,-103.37,68.88,78.01,1785091959810.545
0.662,-0.198,-0.099,-109.65,65.8,79.07,1785091959820.995
0.612,-0.21,-0.053,-112.74,61.13,80.63,1785091959834.168
0.631,-0.237,-0.053,-110.87,56.28,83.29,1785091959840.373
0.703,-0.258,-0.066,-107.21,52.13,85.33,1785091959850.598
0.758,-0.272,-0.06,-102.42,48.52,86.18,1785091959861.237
0.747,-0.27,-0.051,-97.81,44.37,85.63,1785091959874.5798
0.7,-0.261,-0.045,-95.8,39.12,84.44,1785091959880.3489
0.652,-0.253,-0.05,-98.64,32.59,82.74,1785091959890.759
0.612,-0.231,-0.091,-105.32,27.01,81.24,1785091959901.311
0.626,-0.227,-0.161,-113.41,23.59,81.82,1785091959914.54
0.705,-0.274,-0.223,-120.64,22.55,83.53,1785091959920.5142
0.762,-0.322,-0.228,-125.55,25.51,83.07,1785091959931.0278
0.787,-0.335,-0.198,-127.48,24.75,84.05,1785091959944.246
0.762,-0.367,-0.183,-125.31,20.69,87.77,1785091959950.1838
0.738,-0.404,-0.158,-116.09,19.47,88.32,1785091959960.6973
0.717,-0.435,-0.161,-102.94,18.8,86.31,1785091959971.3691
0.739,-0.426,-0.16,-88.47,22.25,82.55,1785091959984.599
0.798,-0.389,-0.152,-82.0,20.97,84.9,1785091959990.4749
0.802,-0.348,-0.135,-85.73,19.41,90.55,1785091960000.7522
0.777,-0.304,-0.1,-95.34,21.94,93.42,1785091960011.3499
0.774,-0.31,-0.068,-107.15,22.46,94.97,1785091960024.606
0.786,-0.369,-0.054,-119.51,20.36,95.98,1785091960030.514
0.793,-0.444,-0.017,-127.66,18.01,94.88,1785091960041.0613
0.77,-0.501,0.001,-127.87,12.94,94.36,1785091960054.339
0.757,-0.536,-0.021,-120.79,6.5,95.34,1785091960060.2131
0.763,-0.535,-0.049,-110.9,1.46,95.8,1785091960070.575
0.766,-0.484,-0.061,-104.01,-5.37,97.57,1785091960081.112
0.739,-0.447,-0.101,-99.43,-13.4,100.8,1785091960094.411
0.746,-0.439,-0.146,-96.9,-18.95,102.57,1785091960100.312
0.769,-0.442,-0.194,-96.56,-24.57,103.31,1785091960110.88
0.779,-0.467,-0.234,-95.86,-29.69,102.69,1785091960124.1118
0.748,-0.48,-0.257,-95.43,-33.85,100.62,1785091960130.024
0.67,-0.484,-0.243,-92.38,-37.48,99.83,1785091960140.601
0.587,-0.49,-0.217,-84.78,-41.26,100.83,1785091960151.17
0.527,-0.495,-0.203,-74.19,-46.51,102.48,1785091960164.4868
0.502,-0.509,-0.239,-60.46,-52.37,103.76,1785091960170.302
0.551,-0.541,-0.333,-44.5,-56.43,103.98,1785091960180.821
0.637,-0.557,-0.416,-31.43,-57.89,103.67,1785091960193.922
0.684,-0.525,-0.458,-23.59,-58.02,103.58,1785091960200.136
0.66,-0.497,-0.462,-18.28,-56.31,105.11,1785091960210.334
0.578,-0.493,-0.417,-14.71,-54.69,108.52,1785091960221.223
0.471,-0.499,-0.355,-11.35,-55.33,112.16,1785091960234.453
0.377,-0.512,-0.318,-6.04,-56.61,114.72,1785091960240.4211
0.36,-0.535,-0.321,1.74,-57.99,117.4,1785091960250.71
0.412,-0.56,-0.322,8.45,-59.33,119.88,1785091960261.323
0.464,-0.584,-0.351,12.54,-62.14,121.49,1785091960274.704
0.487,-0.618,-0.439,12.6,-64.64,123.66,1785091960280.452
0.482,-0.641,-0.514,6.71,-64.36,126.65,1785091960290.944
0.461,-0.674,-0.531,-0.92,-62.5,131.2,1785091960301.48
0.39,-0.723,-0.492,-5.92,-61.13,135.04,1785091960314.678
0.262,-0.747,-0.422,-6.87,-61.37,136.23,1785091960320.5828
0.178,-0.756,-0.396,-3.14,-64.46,138.1,1785091960330.9053
0.167,-0.755,-0.421,1.19,-68.54,141.45,1785091960341.584
0.19,-0.74,-0.479,2.66,-71.44,143.35,1785091960354.6619
0.224,-0.74,-0.545,0.15,-71.66,144.35,1785091960360.659
0.242,-0.756,-0.577,-6.59,-70.35,145.18,1785091960370.8958
0.223,-0.78,-0.586,-13.82,-70.59,146.0,1785091960384.105
0.181,-0.826,-0.579,-16.82,-72.15,148.17,1785091960390.1802
0.121,-0.878,-0.554,-14.56,-74.86,149.14,1785091960400.596
0.051,-0.898,-0.531,-9.09,-78.52,148.29,1785091960411.191
-0.012,-0.89,-0.511,-2.75,-82.03,146.89,1785091960424.875
-0.042,-0.871,-0.528,3.27,-84.93,146.34,1785091960430.336
-0.054,-0.86,-0.553,6.81,-86.49,147.25,1785091960440.66
-0.065,-0.867,-0.597,6.87,-87.89,148.69,1785091960451.1318
-0.068,-0.895,-0.637,5.01,-88.35,149.42,1785091960464.376
-0.074,-0.917,-0.653,1.77,-88.47,149.11,1785091960470.2708
-0.101,-0.924,-0.649,-0.58,-88.96,148.66,1785091960480.617
-0.145,-0.939,-0.626,-1.62,-90.55,148.17,1785091960491.211
-0.202,-0.956,-0.584,-3.63,-93.63,147.25,1785091960504.3992
-0.247,-0.962,-0.559,-5.98,-97.96,146.34,1785091960510.414
-0.278,-0.967,-0.554,-7.75,-101.81,145.42,1785091960520.676
-0.309,-0.966,-0.577,-9.61,-105.14,144.26,1785091960531.358
-0.342,-0.951,-0.642,-12.7,-107.58,142.98,1785091960544.579
-0.363,-0.951,-0.714,-16.97,-108.77,141.88,1785091960550.5002
-0.37,-0.97,-0.766,-22.22,-108.52,139.29,1785091960561.3198
-0.378,-0.997,-0.768,-27.31,-107.39,134.59,1785091960574.6611
-0.397,-1.012,-0.712,-30.7,-106.69,130.56,1785091960580.524
-0.44,-1.017,-0.64,-31.65,-108.34,127.35,1785091960591.302
-0.481,-1.002,-0.583,-31.74,-111.88,125.03,1785091960604.528
-0.501,-0.983,-0.558,-30.7,-115.97,123.81,1785091960610.532
-0.527,-0.985,-0.544,-28.63,-119.94,121.04,1785091960621.273
-0.564,-0.988,-0.569,-27.8,-123.51,115.54,1785091960634.513
-0.581,-0.98,-0.641,-27.99,-124.73,109.81,1785091960640.5051
-0.584,-0.974,-0.679,-29.73,-123.66,104.89,1785091960651.1682
-0.603,-0.979,-0.683,-33.78,-125.0,99.58,1785091960664.45
-0.64,-0.974,-0.688,-39.89,-127.45,94.18,1785091960670.362
-0.666,-0.95,-0.684,-45.78,-128.15,90.85,1785091960680.8909
-0.673,-0.912,-0.712,-49.38,-127.81,88.5,1785091960694.166
-0.651,-0.878,-0.764,-48.71,-124.7,86.76,1785091960700.0498
-0.621,-0.847,-0.766,-44.43,-118.26,84.63,1785091960710.5842
-0.612,-0.848,-0.711,-37.08,-113.07,82.83,1785091960721.945
-0.602,-0.892,-0.641,-28.78,-110.87,81.73,1785091960734.553
-0.618,-0.925,-0.582,-22.49,-110.51,78.77,1785091960740.5342
-0.662,-0.94,-0.525,-18.68,-111.21,75.93,1785091960750.932
-0.703,-0.953,-0.485,-17.12,-112.83,73.7,1785091960764.201
-0.74,-0.933,-0.474,-17.94,-115.21,70.8,1785091960770.145
-0.761,-0.882,-0.524,-18.74,-118.75,68.94,1785091960780.6567
-0.754,-0.832,-0.631,-16.42,-120.88,67.29,1785091960791.31
-0.754,-0.779,-0.695,-13.31,-119.97,63.45,1785091960804.539
-0.785,-0.72,-0.737,-12.82,-118.5,58.08,1785091960810.538
-0.806,-0.695,-0.716,-16.85,-117.04,54.99,1785091960821.045
-0.81,-0.709,-0.649,-24.96,-116.7,52.34,1785091960834.261
-0.824,-0.735,-0.551,-35.34,-118.02,48.8,1785091960840.316
-0.844,-0.767,-0.471,-43.98,-121.56,45.41,1785091960850.7148
-0.864,-0.779,-0.45,-49.84,-125.89,41.78,1785091960861.4148
-0.86,-0.742,-0.519,-53.07,-129.12,37.48,1785091960874.68
-0.835,-0.671,-0.611,-53.9,-129.03,33.33,1785091960880.523
-0.848,-0.604,-0.65,-55.67,-127.96,29.05,1785091960891.084
-0.883,-0.558,-0.673,-61.92,-128.48,23.96,1785091960904.298
-0.921,-0.535,-0.64,-73.67,-128.12,19.9,1785091960910.254
-0.946,-0.53,-0.57,-89.48,-127.45,16.97,1785091960920.753
-0.97,-0.54,-0.49,-108.01,-128.12,14.56,1785091960933.987
-0.998,-0.532,-0.42,-128.73,-129.18,12.73,1785091960939.966
-0.984,-0.486,-0.457,-151.74,-134.01,13.76,1785091960950.71
-1.004,-0.4,-0.478,-175.66,-125.83,10.83,1785091960961.507
-1.004,-0.4,-0.478,-204.2,-127.63,7.84,1785091960974.7122
-0.959,-0.381,-0.591,-244.97,-125.98,-6.68,1785091960980.693
-0.982,-0.273,-0.618,-279.46,-117.25,-20.66,1785091960991.271
-0.97,-0.226,-0.652,-298.84,-106.27,-30.67,1785091961004.658
-0.896,-0.309,-0.768,-305.43,-95.55,-42.18,1785091961010.457
-0.92,-0.374,-0.8,-305.43,-95.55,-42.18,1785091961022.076
-0.891,-0.431,-0.743,-296.58,-90.4,-48.46,1785091961034.2852
-0.883,-0.454,-0.589,-272.44,-79.04,-56.64,1785091961040.19
-0.909,-0.491,-0.458,-236.98,-67.81,-62.53,1785091961050.7578
-0.929,-0.536,-0.349,-199.04,-63.57,-63.84,1785091961061.821
-0.893,-0.587,-0.282,-159.98,-60.4,-64.18,1785091961074.6492
-0.941,-0.548,-0.26,-126.9,-60.91,-68.09,1785091961080.576
-0.934,-0.489,-0.295,-103.43,-70.5,-66.87,1785091961091.115
-0.953,-0.399,-0.34,-83.62,-71.14,-73.92,1785091961104.2979
-0.923,-0.273,-0.403,-68.21,-69.73,-86.31,1785091961110.2112
-0.905,-0.182,-0.478,-62.56,-74.16,-96.26,1785091961120.523
-0.854,0.011,-0.562,-67.17,-84.63,-108.55,1785091961131.171
-0.92,0.244,-0.755,-80.05,-108.1,-116.98,1785091961144.417
-1.045,0.275,-0.846,-105.44,-115.21,-104.98,1785091961150.391
-1.081,0.153,-0.83,-134.04,-99.61,-82.95,1785091961161.101
-1.027,-0.039,-0.742,-152.59,-72.27,-60.27,1785091961174.412
-0.952,-0.164,-0.586,-159.73,-46.54,-42.33,1785091961180.33
-0.915,-0.223,-0.465,-161.14,-35.43,-29.97,1785091961190.698
-0.908,-0.232,-0.363,-162.69,-30.55,-21.97,1785091961204.152
-0.878,-0.304,-0.3,-162.48,-26.55,-13.79,1785091961209.6309
-0.866,-0.344,-0.275,-158.97,-23.32,-8.58,1785091961220.58
-0.867,-0.331,-0.266,-149.45,-21.27,-5.4,1785091961231.075
-0.867,-0.298,-0.26,-134.07,-19.53,-4.06,1785091961244.275
-0.876,-0.271,-0.243,-114.87,-17.91,-3.63,1785091961250.1572
-0.887,-0.246,-0.231,-90.85,-16.91,-1.43,1785091961260.3892
-0.895,-0.224,-0.226,-64.12,-16.66,2.5,1785091961270.8481
-0.901,-0.223,-0.229,-37.45,-16.24,6.71,1785091961281.327
-0.899,-0.238,-0.229,-11.84,-15.23,9.61,1785091961294.5303
-0.895,-0.267,-0.231,11.66,-14.16,10.68,1785091961300.4492
-0.899,-0.302,-0.231,32.11,-13.61,10.9,1785091961310.555
-0.873,-0.3,-0.227,48.65,-12.36,11.14,1785091961321.1418
-0.862,-0.275,-0.21,59.66,-9.52,12.85,1785091961334.5762
-0.857,-0.26,-0.196,67.42,-5.98,16.75,1785091961340.3652
-0.855,-0.265,-0.183,73.06,-2.17,21.76,1785091961350.396
-0.857,-0.279,-0.179,77.7,1.01,25.73,1785091961360.856
-0.87,-0.305,-0.179,82.67,3.54,28.41,1785091961371.367
-0.884,-0.33,-0.176,88.29,5.34,28.81,1785091961384.621
-0.891,-0.345,-0.174,95.03,6.74,28.5,1785091961390.488
-0.896,-0.353,-0.179,103.03,7.69,27.92,1785091961400.586
-0.911,-0.356,-0.177,110.6,8.36,27.04,1785091961411.169
-0.919,-0.365,-0.172,118.29,8.88,27.07,1785091961424.499
-0.919,-0.371,-0.168,126.44,9.37,27.28,1785091961430.36
-0.928,-0.367,-0.169,134.22,9.58,26.92,1785091961440.675
-0.934,-0.366,-0.172,141.36,9.7,26.98,1785091961451.149
-0.931,-0.363,-0.181,146.24,9.25,25.88,1785091961464.416
-0.949,-0.341,-0.18,147.95,8.3,24.14,1785091961470.303
-0.956,-0.334,-0.184,147.37,6.96,23.93,1785091961480.629
-0.946,-0.34,-0.19,146.09,6.32,24.23,1785091961491.2021
-0.944,-0.334,-0.198,143.83,5.86,23.53,1785091961504.4329
-0.936,-0.332,-0.225,140.23,6.81,24.45,1785091961510.3538
-0.959,-0.304,-0.25,131.11,5.58,25.24,1785091961520.6
-0.974,-0.276,-0.271,117.71,2.81,26.73,1785091961531.172
-0.965,-0.273,-0.279,100.74,1.77,29.05,1785091961544.449
-0.961,-0.269,-0.271,82.09,1.95,30.21,1785091961550.354
-0.948,-0.283,-0.257,64.18,2.41,32.14,1785091961560.525
-0.949,-0.312,-0.255,48.59,0.89,35.22,1785091961570.938
-0.945,-0.343,-0.246,35.83,-0.4,37.84,1785091961581.375
-0.9,-0.339,-0.254,25.39,-0.64,34.24,1785091961594.587
-0.943,-0.281,-0.236,13.67,3.48,22.31,1785091961600.3909
-0.9,-0.356,-0.235,4.91,5.95,27.41,1785091961610.45
-0.855,-0.351,-0.25,-4.67,5.92,24.45,1785091961620.903
-0.982,-0.243,-0.231,-18.37,8.06,15.72,1785091961631.344
-0.889,-0.331,-0.251,-29.18,7.75,23.93,1785091961644.5498
-0.885,-0.349,-0.257,-41.29,8.51,22.95,1785091961650.37
-0.898,-0.323,-0.285,-49.87,10.38,21.52,1785091961660.6409
-0.866,-0.318,-0.311,-54.72,14.86,22.89,1785091961671.148
-0.863,-0.298,-0.31,-62.14,19.44,24.35,1785091961684.391
-0.854,-0.302,-0.285,-67.6,22.68,26.52,1785091961690.429
-0.867,-0.349,-0.27,-63.05,24.57,27.95,1785091961700.5762
-0.863,-0.388,-0.279,-52.83,25.3,28.87,1785091961711.173
-0.855,-0.369,-0.269,-39.28,28.72,28.38,1785091961724.458
-0.856,-0.354,-0.23,-22.74,34.49,28.6,1785091961730.3218
-0.87,-0.378,-0.184,-4.85,38.09,28.63,1785091961740.547
-0.875,-0.427,-0.146,13.73,38.15,28.6,1785091961751.044
-0.866,-0.471,-0.128,35.77,37.17,27.59,1785091961764.277
-0.87,-0.49,-0.128,62.32,36.44,26.18,1785091961770.2148
-0.897,-0.465,-0.14,89.18,35.13,25.57,1785091961780.501
-0.897,-0.439,-0.166,114.87,34.12,26.67,1785091961791.241
-0.888,-0.413,-0.199,135.47,33.39,25.7,1785091961804.415
-0.9,-0.386,-0.224,149.75,32.62,23.29,1785091961810.3909
-0.903,-0.369,-0.252,159.89,31.77,22.06,1785091961820.9548
-0.909,-0.345,-0.264,165.93,31.59,20.39,1785091961835.861
-0.915,-0.323,-0.275,167.97,31.68,18.92,1785091961840.179
-0.921,-0.308,-0.281,164.98,31.65,17.18,1785091961850.553
-0.918,-0.301,-0.265,158.39,31.59,15.2,1785091961861.196
-0.908,-0.309,-0.241,150.43,31.19,12.54,1785091961874.5789
-0.904,-0.314,-0.22,141.15,30.3,9.06,1785091961880.366
-0.907,-0.318,-0.21,130.71,28.69,5.98,1785091961890.786
-0.91,-0.315,-0.206,118.96,26.64,3.75,1785091961901.2502
-0.907,-0.315,-0.206,106.57,24.48,2.08,1785091961914.513
-0.906,-0.308,-0.207,92.68,22.31,-0.03,1785091961920.458
-0.91,-0.294,-0.207,77.0,19.93,-1.5,1785091961930.5269
