ax,ay,az,gx,gy,gz,timestamp_ms
-0.905,-0.374,-0.133,-18.1,-2.01,26.64,1785092094799.617
-0.906,-0.369,-0.146,-16.97,-2.78,24.87,1785092094820.554
-0.908,-0.368,-0.156,-17.21,-3.08,22.64,1785092094820.97
-0.912,-0.367,-0.161,-18.92,-3.2,20.6,1785092094821.3818
-0.914,-0.369,-0.16,-20.78,-3.14,19.01,1785092094821.791
-0.916,-0.371,-0.156,-21.88,-3.14,17.67,1785092094822.2021
-0.915,-0.372,-0.155,-21.82,-3.27,16.27,1785092094822.612
-0.913,-0.371,-0.154,-21.52,-3.6,15.05,1785092094823.0168
-0.915,-0.373,-0.16,-20.94,-3.78,13.76,1785092094823.5068
-0.914,-0.375,-0.164,-20.23,-4.0,12.57,1785092094823.991
-0.915,-0.372,-0.168,-19.65,-4.36,11.2,1785092094824.3862
-0.916,-0.366,-0.174,-18.98,-4.3,10.13,1785092094824.7832
-0.913,-0.364,-0.174,-17.91,-4.33,9.09,1785092094825.18
-0.91,-0.363,-0.176,-16.48,-4.52,7.66,1785092094825.618
-0.912,-0.353,-0.173,-15.41,-4.52,6.53,1785092094826.0103
-0.912,-0.345,-0.172,-14.4,-4.43,5.74,1785092094826.4211
-0.909,-0.346,-0.177,-13.55,-3.94,4.85,1785092094826.7588
-0.91,-0.347,-0.185,-13.0,-3.48,3.78,1785092094827.0989
-0.91,-0.351,-0.187,-12.27,-2.9,2.56,1785092094827.434
-0.909,-0.353,-0.188,-11.11,-2.35,1.31,1785092094827.771
-0.909,-0.359,-0.192,-9.31,-2.14,0.03,1785092094828.1228
-0.911,-0.353,-0.192,-7.08,-1.74,-0.79,1785092094828.4521
-0.911,-0.344,-0.194,-4.88,-1.77,-1.53,1785092094828.801
-0.912,-0.345,-0.192,-2.66,-1.37,-2.47,1785092094829.131
-0.911,-0.348,-0.195,0.0,-1.01,-3.33,1785092094829.469
-0.909,-0.345,-0.2,2.26,-0.89,-4.73,1785092094829.8188
-0.911,-0.341,-0.197,4.15,-0.7,-5.74,1785092094830.16
-0.912,-0.333,-0.198,5.83,-0.64,-6.81,1785092094830.4993
-0.912,-0.321,-0.199,6.47,-0.49,-7.81,1785092094830.839
-0.913,-0.314,-0.2,6.47,-0.06,-8.09,1785092094831.1948
-0.912,-0.32,-0.201,6.1,0.27,-8.61,1785092094831.526
-0.915,-0.316,-0.2,5.31,0.43,-9.4,1785092094831.878
-0.912,-0.307,-0.197,4.36,0.61,-9.7,1785092094832.237
-0.906,-0.305,-0.198,2.99,0.92,-9.95,1785092094832.573
-0.907,-0.305,-0.2,1.01,1.53,-10.56,1785092094832.9248
-0.908,-0.312,-0.198,-0.92,2.04,-10.86,1785092094833.3062
-0.905,-0.321,-0.198,-1.4,2.66,-11.29,1785092094833.661
-0.899,-0.319,-0.2,-1.13,3.42,-11.9,1785092094833.9883
-0.897,-0.32,-0.195,0.06,4.09,-12.12,1785092094834.285
-0.91,-0.322,-0.19,1.4,3.91,-12.76,1785092094834.604
-0.935,-0.301,-0.182,2.9,3.6,-12.88,1785092094834.8967
-0.939,-0.294,-0.177,4.49,3.27,-11.75,1785092094835.1821
-0.926,-0.306,-0.171,5.71,2.93,-11.08,1785092094835.473
-0.93,-0.289,-0.168,8.09,2.81,-11.08,1785092094835.784
-0.921,-0.28,-0.18,10.65,2.35,-9.83,1785092094836.0698
-0.919,-0.271,-0.187,9.77,1.89,-9.22,1785092094836.379
-0.92,-0.27,-0.188,7.29,1.71,-8.45,1785092094836.701
-0.924,-0.274,-0.192,4.73,1.62,-7.6,1785092094836.9841
-0.929,-0.277,-0.182,2.38,2.04,-6.65,1785092094837.2632
-0.921,-0.282,-0.176,1.43,2.23,-5.49,1785092094837.547
-0.914,-0.28,-0.177,1.46,2.17,-4.91,1785092094837.832
-0.908,-0.276,-0.18,1.89,2.01,-4.18,1785092094838.1062
-0.902,-0.276,-0.182,1.89,1.92,-3.05,1785092094838.384
-0.899,-0.288,-0.181,1.34,1.95,-2.38,1785092094838.666
-0.898,-0.29,-0.176,1.07,2.01,-1.83,1785092094838.938
-0.902,-0.284,-0.165,1.25,1.95,-0.4,1785092094839.248
-0.897,-0.287,-0.168,2.41,2.04,0.76,1785092094839.5532
-0.898,-0.284,-0.175,3.39,2.47,1.13,1785092094839.8271
-0.903,-0.282,-0.179,4.46,2.93,1.43,1785092094840.101
-0.903,-0.292,-0.185,5.52,3.11,1.56,1785092094840.3972
-0.907,-0.297,-0.187,5.98,3.2,1.43,1785092094840.674
-0.913,-0.299,-0.185,7.05,3.33,1.8,1785092094840.9478
-0.914,-0.305,-0.184,9.13,3.45,2.35,1785092094841.2239
-0.917,-0.307,-0.183,11.6,3.45,2.62,1785092094841.514
-0.922,-0.303,-0.184,13.58,3.08,3.11,1785092094841.793
-0.926,-0.289,-0.182,14.5,2.84,3.81,1785092094842.064
-0.921,-0.292,-0.183,14.68,2.75,4.61,1785092094842.32
-0.915,-0.307,-0.187,14.34,2.84,4.52,1785092094842.5989
-0.917,-0.301,-0.188,13.79,3.05,4.36,1785092094842.8691
-0.918,-0.298,-0.186,14.19,3.36,5.28,1785092094843.123
-0.918,-0.309,-0.188,14.98,3.45,5.71,1785092094843.4219
-0.916,-0.306,-0.19,15.38,3.36,5.1,1785092094843.7
-0.916,-0.306,-0.189,15.63,3.33,5.07,1785092094843.958
-0.913,-0.308,-0.192,16.02,3.3,5.4,1785092094844.219
-0.913,-0.308,-0.193,15.81,3.05,5.46,1785092094844.466
-0.913,-0.3,-0.191,14.86,3.11,5.89,1785092094844.7417
-0.913,-0.298,-0.187,13.79,3.08,7.08,1785092094845.0078
-0.902,-0.309,-0.189,13.67,2.96,7.9,1785092094845.275
-0.904,-0.307,-0.191,13.31,2.93,7.51,1785092094845.522
-0.904,-0.307,-0.188,12.73,2.99,7.51,1785092094845.776
-0.899,-0.312,-0.185,12.57,3.11,7.69,1785092094846.028
-0.896,-0.324,-0.184,12.54,3.08,6.93,1785092094846.2742
-0.9,-0.327,-0.183,12.94,2.99,6.47,1785092094846.529
-0.908,-0.311,-0.18,13.52,3.17,6.68,1785092094846.7798
-0.915,-0.307,-0.18,13.95,3.51,7.6,1785092094847.042
-0.914,-0.314,-0.18,13.67,3.72,8.36,1785092094847.293
-0.914,-0.314,-0.18,13.12,3.48,8.51,1785092094847.5608
-0.914,-0.315,-0.176,13.37,3.36,9.09,1785092094847.828
-0.912,-0.319,-0.174,14.44,3.11,9.25,1785092094848.073
-0.911,-0.323,-0.173,15.05,2.72,9.16,1785092094848.366
-0.911,-0.319,-0.173,15.53,2.23,9.74,1785092094848.6243
-0.913,-0.319,-0.175,15.53,2.23,9.74,1785092094848.8718
-0.91,-0.317,-0.177,15.69,1.59,10.22,1785092094849.128
-0.911,-0.311,-0.174,14.98,1.22,10.22,1785092094849.3892
-0.907,-0.313,-0.175,14.56,1.04,10.47,1785092094849.649
-0.906,-0.318,-0.18,13.73,0.82,10.65,1785092094849.897
-0.9,-0.323,-0.179,13.12,0.64,11.2,1785092094850.137
-0.897,-0.324,-0.177,13.15,0.34,11.51,1785092094850.373
-0.895,-0.321,-0.177,12.82,-0.09,11.51,1785092094850.6318
-0.903,-0.319,-0.177,12.02,-0.31,11.29,1785092094850.877
-0.908,-0.321,-0.179,10.59,-0.73,11.14,1785092094851.1218
-0.908,-0.326,-0.178,9.06,-0.95,10.5,1785092094851.351
-0.912,-0.33,-0.181,7.87,-0.95,9.92,1785092094851.5862
-0.914,-0.33,-0.187,7.17,-1.13,10.01,1785092094851.82
-0.918,-0.329,-0.19,6.53,-1.1,10.25,1785092094852.0542
-0.919,-0.329,-0.194,5.83,-0.95,10.32,1785092094852.278
-0.92,-0.335,-0.193,4.76,-0.67,10.25,1785092094852.515
-0.919,-0.34,-0.192,4.0,-0.37,10.22,1785092094852.767
-0.919,-0.344,-0.19,3.78,-0.09,9.77,1785092094853.004
-0.917,-0.35,-0.189,4.36,0.27,9.34,1785092094853.2869
-0.914,-0.353,-0.186,5.49,0.55,8.45,1785092094853.517
-0.912,-0.354,-0.181,6.62,0.82,7.29,1785092094853.738
-0.91,-0.358,-0.178,8.12,1.1,5.83,1785092094853.968
-0.909,-0.357,-0.176,9.55,1.31,4.06,1785092094854.1948
-0.909,-0.352,-0.173,10.71,1.46,1.92,1785092094854.422
-0.912,-0.34,-0.172,11.69,1.5,0.0,1785092094854.647
-0.909,-0.33,-0.167,12.85,1.43,-1.28,1785092094854.878
-0.905,-0.329,-0.18,14.44,1.43,-2.78,1785092094855.1072
-0.908,-0.319,-0.188,15.56,1.83,-4.18,1785092094855.333
-0.915,-0.311,-0.184,16.54,2.14,-5.01,1785092094855.582
-0.92,-0.304,-0.187,16.72,2.17,-5.58,1785092094855.823
-0.923,-0.304,-0.188,16.08,2.17,-6.01,1785092094856.032
-0.925,-0.306,-0.188,14.98,2.01,-6.07,1785092094856.249
-0.924,-0.308,-0.188,13.06,1.83,-5.65,1785092094856.4858
-0.92,-0.31,-0.188,10.59,1.37,-5.01,1785092094856.7031
-0.915,-0.306,-0.184,8.3,0.95,-3.57,1785092094856.91
-0.91,-0.307,-0.181,6.99,0.64,-1.92,1785092094857.124
-0.909,-0.305,-0.181,6.01,0.24,-0.64,1785092094857.3389
-0.908,-0.304,-0.179,5.55,-0.12,0.37,1785092094857.547
-0.907,-0.311,-0.178,5.34,-0.61,1.01,1785092094857.759
-0.904,-0.317,-0.179,4.7,-0.98,1.04,1785092094857.972
-0.905,-0.32,-0.175,3.81,-1.01,0.85,1785092094858.1792
-0.907,-0.322,-0.171,2.69,-0.82,0.73,1785092094858.388
-0.909,-0.322,-0.167,1.56,-0.4,0.73,1785092094858.597
-0.91,-0.328,-0.165,0.79,-0.06,0.98,1785092094858.8018
-0.912,-0.334,-0.17,0.37,0.27,0.89,1785092094859.0159
-0.921,-0.342,-0.177,0.15,0.58,0.55,1785092094859.2278
-0.938,-0.348,-0.189,0.03,0.0,-0.15,1785092094859.4382
-0.939,-0.355,-0.199,0.64,0.34,-0.92,1785092094859.6458
-0.94,-0.355,-0.17,3.94,1.86,-1.71,1785092094859.863
-0.939,-0.348,-0.141,9.86,2.32,-3.27,1785092094860.079
-0.942,-0.338,-0.125,16.36,1.83,-3.97,1785092094860.29
-0.948,-0.318,-0.12,22.49,-0.03,-2.35,1785092094860.506
-0.941,-0.294,-0.127,26.83,-2.14,1.1,1785092094860.721
-0.93,-0.278,-0.142,28.08,-2.59,4.06,1785092094860.9321
-0.926,-0.276,-0.159,27.44,-2.41,4.12,1785092094861.149
-0.923,-0.283,-0.174,23.13,-3.3,1.59,1785092094861.3682
-0.918,-0.292,-0.182,14.22,-3.78,-1.25,1785092094861.581
-0.915,-0.3,-0.176,4.24,-2.99,-2.87,1785092094861.784
-0.913,-0.324,-0.153,-4.33,-2.75,-4.52,1785092094861.9832
-0.906,-0.317,-0.151,-12.91,-3.85,-5.92,1785092094862.1921
-0.903,-0.307,-0.154,-18.65,-3.42,-5.31,1785092094862.391
-0.912,-0.314,-0.158,-20.69,-2.23,-4.79,1785092094862.595
-0.919,-0.314,-0.166,-21.82,-2.17,-5.4,1785092094862.8071
-0.917,-0.308,-0.169,-22.31,-2.11,-6.68,1785092094863.029
-0.914,-0.307,-0.168,-21.58,-1.5,-7.81,1785092094863.28
-0.914,-0.305,-0.165,-20.08,-1.34,-8.58,1785092094863.512
-0.912,-0.304,-0.164,-18.46,-1.77,-8.64,1785092094863.721
-0.907,-0.301,-0.166,-16.39,-2.04,-7.84,1785092094863.9272
-0.903,-0.302,-0.171,-13.89,-2.17,-6.93,1785092094864.138
-0.905,-0.3,-0.177,-11.69,-2.26,-5.71,1785092094864.3489
-0.916,-0.293,-0.174,-9.95,-2.08,-4.73,1785092094864.547
-0.915,-0.298,-0.177,-8.27,-1.95,-3.48,1785092094864.752
-0.913,-0.309,-0.175,-7.45,-1.31,-2.72,1785092094864.9658
-0.917,-0.315,-0.167,-7.39,-0.64,-2.53,1785092094865.1663
-0.92,-0.317,-0.155,-7.51,-0.49,-2.2,1785092094865.3691
-0.921,-0.316,-0.143,-7.57,-0.58,-1.56,1785092094865.585
-0.919,-0.308,-0.137,-7.75,-0.46,-1.01,1785092094865.7788
-0.914,-0.301,-0.14,-7.93,-0.21,-0.82,1785092094865.987
-0.914,-0.304,-0.145,-8.55,0.21,-1.16,1785092094866.1958
-0.916,-0.314,-0.148,-8.73,0.55,-1.74,1785092094866.4119
-0.924,-0.314,-0.146,-8.27,0.76,-2.62,1785092094866.616
-0.925,-0.315,-0.147,-7.2,0.58,-2.81,1785092094866.8152
-0.925,-0.308,-0.144,-6.1,0.43,-2.96,1785092094867.014
-0.93,-0.312,-0.154,-2.5,0.06,-2.41,1785092094867.4119
-0.93,-0.307,-0.156,-0.7,-0.4,-2.69,1785092094867.606
-0.844,-0.636,-0.564,-11.81,-4.18,2.23,1785092094867.99
-0.991,-0.634,-0.513,-5.92,-2.69,-2.66,1785092094868.184
-1.139,-0.652,-0.414,2.9,-2.53,-7.9,1785092094868.38
-1.233,-0.67,-0.424,14.13,-5.34,-13.12,1785092094871.9648
-1.322,-0.635,-0.509,19.62,-5.28,-18.37,1785092094882.2883
-1.417,-0.587,-0.548,19.26,-1.98,-24.23,1785092094892.782
-1.465,-0.549,-0.523,18.1,2.23,-32.35,1785092094903.277
-1.432,-0.517,-0.478,25.15,6.38,-40.93,1785092094916.521
-1.38,-0.486,-0.439,42.85,10.59,-49.01,1785092094922.1812
-1.36,-0.463,-0.396,67.05,13.58,-56.95,1785092094932.7
-1.345,-0.446,-0.353,91.46,13.15,-61.86,1785092094943.212
-1.272,-0.406,-0.411,109.07,8.45,-60.76,1785092094956.4512
-1.127,-0.327,-0.537,111.64,4.18,-52.25,1785092094962.118
-0.991,-0.274,-0.622,96.53,1.22,-39.31,1785092094972.5598
-0.901,-0.274,-0.669,68.06,-1.28,-24.78,1785092094983.046
-0.855,-0.322,-0.684,33.63,-3.02,-9.46,1785092094993.412
-0.851,-0.378,-0.655,3.3,-3.05,3.27,1785092095006.793
-0.887,-0.439,-0.566,-12.73,-1.04,12.73,1785092095012.144
-0.915,-0.495,-0.388,-12.02,0.58,20.02,1785092095022.4868
-0.856,-0.5,-0.229,1.98,-2.69,25.15,1785092095032.82
-0.702,-0.458,-0.265,23.71,-10.13,34.61,1785092095043.712
-0.577,-0.448,-0.411,39.58,-17.12,49.32,1785092095056.788
-0.535,-0.496,-0.557,38.79,-23.41,63.45,1785092095062.756
-0.552,-0.55,-0.645,21.52,-27.77,75.26,1785092095073.026
-0.569,-0.605,-0.623,-1.5,-29.69,87.71,1785092095083.467
-0.548,-0.687,-0.575,-15.29,-29.69,98.82,1785092095096.688
-0.573,-0.752,-0.491,-13.46,-27.07,104.68,1785092095102.658
-0.563,-0.769,-0.423,1.25,-29.21,111.33,1785092095113.008
-0.422,-0.749,-0.463,22.61,-34.06,118.96,1785092095123.786
-0.321,-0.689,-0.501,38.94,-33.48,120.67,1785092095136.9238
-0.348,-0.641,-0.492,40.59,-31.34,118.29,1785092095142.845
-0.421,-0.64,-0.459,26.61,-32.44,117.07,1785092095153.383
-0.5,-0.671,-0.401,7.02,-35.28,118.75,1785092095166.5852
-0.567,-0.704,-0.366,-5.8,-38.67,122.62,1785092095172.4941
-0.613,-0.688,-0.401,-8.42,-41.14,125.92,1785092095182.893
-0.607,-0.613,-0.477,-4.0,-40.22,129.0,1785092095193.3801
-0.555,-0.53,-0.56,1.59,-36.71,134.25,1785092095206.699
-0.563,-0.482,-0.605,1.74,-32.38,140.84,1785092095212.7249
-0.643,-0.483,-0.586,-9.55,-27.71,148.72,1785092095222.825
-0.723,-0.506,-0.5,-32.11,-22.31,157.02,1785092095233.4622
-0.761,-0.585,-0.395,-55.27,-17.03,164.28,1785092095246.7607
-0.77,-0.705,-0.33,-68.85,-12.73,168.86,1785092095252.676
-0.783,-0.786,-0.282,-64.88,-9.8,169.99,1785092095263.1091
-0.792,-0.794,-0.256,-41.78,-8.76,169.53,1785092095273.721
-0.763,-0.744,-0.307,-5.58,-8.42,166.75,1785092095286.9592
-0.718,-0.683,-0.368,32.47,-6.07,161.08,1785092095292.8691
-0.681,-0.634,-0.417,63.63,-3.33,152.62,1785092095302.9758
-0.65,-0.605,-0.451,83.83,-0.43,143.83,1785092095313.544
-0.632,-0.59,-0.436,95.0,3.48,135.62,1785092095326.688
-0.628,-0.588,-0.398,103.18,6.62,126.96,1785092095332.706
-0.606,-0.589,-0.361,113.07,9.4,118.23,1785092095343.2
-0.58,-0.577,-0.348,124.52,11.9,107.97,1785092095356.498
-0.574,-0.559,-0.356,134.56,13.89,95.52,1785092095362.36
-0.592,-0.542,-0.358,140.05,15.2,82.16,1785092095373.055
-0.623,-0.527,-0.362,140.42,15.63,68.67,1785092095383.827
-0.658,-0.517,-0.373,138.37,15.17,55.12,1785092095396.8398
-0.69,-0.497,-0.396,135.44,14.13,42.6,1785092095402.777
-0.727,-0.48,-0.399,132.11,13.25,31.56,1785092095413.386
-0.771,-0.449,-0.397,127.9,11.2,21.82,1785092095426.577
-0.8,-0.403,-0.418,122.04,8.51,14.5,1785092095432.4758
-0.825,-0.358,-0.431,112.43,6.68,9.37,1785092095442.746
-0.854,-0.323,-0.427,97.54,4.58,6.01,1785092095453.0728
-0.858,-0.3,-0.433,78.37,2.62,4.73,1785092095463.6008
-0.839,-0.297,-0.434,57.71,2.17,5.1,1785092095476.852
-0.82,-0.319,-0.415,38.61,2.47,5.68,1785092095482.4673
-0.803,-0.343,-0.389,22.34,2.08,5.65,1785092095492.429
-0.783,-0.354,-0.38,9.55,1.31,5.07,1785092095504.645
-0.758,-0.355,-0.383,0.06,0.95,3.97,1785092095512.907
-0.74,-0.346,-0.389,-7.57,0.67,3.02,1785092095523.469
-0.74,-0.342,-0.396,-14.56,0.76,2.87,1785092095533.689
-0.747,-0.351,-0.402,-21.0,0.64,2.96,1785092095546.918
-0.759,-0.355,-0.422,-26.12,0.24,3.02,1785092095552.532
-0.772,-0.332,-0.439,-30.67,0.55,3.69,1785092095562.68
-0.781,-0.321,-0.439,-33.42,1.56,5.04,1785092095573.06
-0.788,-0.338,-0.416,-34.24,2.84,6.13,1785092095583.367
-0.791,-0.368,-0.387,-32.32,2.99,6.26,1785092095593.751
-0.791,-0.388,-0.374,-27.92,2.41,5.43,1785092095607.0762
-0.795,-0.406,-0.369,-22.43,2.08,4.55,1785092095612.708
-0.803,-0.419,-0.364,-17.85,1.77,3.6,1785092095622.7651
-0.814,-0.415,-0.365,-15.32,1.07,2.47,1785092095633.055
-0.811,-0.428,-0.388,-12.88,1.01,1.46,1785092095643.4539
-0.792,-0.491,-0.396,-6.78,2.53,-0.89,1785092095653.7358
-0.783,-0.553,-0.362,4.94,4.43,-5.68,1785092095666.968
-0.787,-0.574,-0.319,22.4,5.22,-11.14,1785092095673.3691
-0.797,-0.557,-0.327,41.54,4.91,-15.53,1785092095682.819
-0.819,-0.517,-0.372,55.42,4.67,-18.92,1785092095693.2932
-0.819,-0.517,-0.372,59.33,4.61,-21.94,1785092095703.818
-0.849,-0.477,-0.418,54.08,4.58,-25.24,1785092095716.9358
-0.872,-0.45,-0.455,43.43,5.46,-28.41,1785092095723.1072
-0.872,-0.435,-0.473,31.86,7.17,-30.76,1785092095732.884
-0.879,-0.438,-0.452,22.58,8.42,-32.07,1785092095743.388
-0.886,-0.447,-0.407,22.58,8.42,-32.07,1785092095753.5999
-0.878,-0.456,-0.385,17.0,9.28,-32.23,1785092095767.055
-0.866,-0.463,-0.39,13.31,9.67,-31.59,1785092095772.959
-0.854,-0.449,-0.405,8.97,9.55,-30.24,1785092095782.877
-0.852,-0.436,-0.407,4.55,9.03,-28.41,1785092095793.296
-0.856,-0.436,-0.403,1.59,8.51,-27.8,1785092095803.853
-0.858,-0.416,-0.403,-0.4,8.09,-28.08,1785092095816.9119
-0.849,-0.398,-0.404,-0.98,8.0,-27.56,1785092095822.735
-0.841,-0.387,-0.402,-1.07,8.18,-27.04,1785092095832.598
-0.832,-0.362,-0.407,-2.93,8.36,-26.31,1785092095842.9717
-0.82,-0.332,-0.412,-7.23,8.45,-24.99,1785092095853.3982
-0.811,-0.313,-0.421,-13.61,8.39,-23.87,1785092095866.6538
-0.805,-0.293,-0.421,-21.76,8.45,-22.98,1785092095872.607
-0.8,-0.279,-0.413,-29.79,8.39,-22.0,1785092095882.6409
-0.789,-0.276,-0.414,-36.99,8.0,-21.0,1785092095893.066
-0.787,-0.276,-0.408,-43.86,7.54,-19.65,1785092095903.538
-0.799,-0.282,-0.393,-50.6,6.62,-18.04,1785092095916.755
-0.813,-0.288,-0.379,-56.86,5.4,-15.93,1785092095922.6099
-0.823,-0.288,-0.366,-62.26,4.12,-13.34,1785092095932.668
-0.825,-0.289,-0.354,-66.44,2.84,-10.68,1785092095943.152
-0.824,-0.285,-0.338,-69.89,1.43,-8.36,1785092095953.4731
-0.833,-0.287,-0.316,-72.97,-0.61,-6.5,1785092095966.78
-0.842,-0.287,-0.291,-75.99,-3.3,-5.25,1785092095972.3918
-0.84,-0.297,-0.285,-78.19,-6.56,-4.58,1785092095982.411
-0.84,-0.304,-0.29,-80.08,-9.64,-4.12,1785092095992.908
-0.843,-0.3,-0.291,-82.34,-12.63,-4.55,1785092096003.339
-0.847,-0.291,-0.299,-84.87,-15.23,-4.76,1785092096013.7432
-0.851,-0.279,-0.3,-88.35,-17.33,-4.39,1785092096026.971
-0.857,-0.279,-0.294,-93.26,-19.38,-3.94,1785092096032.827
-0.862,-0.296,-0.285,-98.57,-21.45,-3.85,1785092096042.9001
-0.866,-0.31,-0.271,-103.95,-23.44,-3.66,1785092096053.504
-0.866,-0.331,-0.24,-107.24,-25.51,-3.3,1785092096066.7268
-0.869,-0.341,-0.22,-108.74,-28.11,-3.39,1785092096072.7097
-0.863,-0.337,-0.214,-108.1,-30.67,-3.33,1785092096082.95
-0.852,-0.323,-0.206,-106.14,-33.11,-3.36,1785092096093.5093
-0.838,-0.307,-0.2,-103.95,-35.83,-3.69,1785092096106.746
-0.821,-0.289,-0.209,-101.75,-38.09,-3.81,1785092096112.6567
-0.826,-0.291,-0.223,-100.16,-40.01,-2.81,1785092096123.015
-0.843,-0.307,-0.239,-100.96,-42.12,-1.71,1785092096133.483
-0.851,-0.306,-0.233,-104.25,-43.67,-0.7,1785092096146.766
-0.844,-0.308,-0.232,-105.81,-45.35,0.0,1785092096152.655
-0.833,-0.303,-0.241,-106.36,-47.18,0.24,1785092096162.976
-0.84,-0.283,-0.253,-107.33,-49.5,0.15,1785092096173.544
-0.849,-0.276,-0.271,-108.95,-51.79,0.24,1785092096186.794
-0.857,-0.264,-0.284,-113.04,-53.68,-0.24,1785092096192.737
-0.881,-0.247,-0.292,-119.11,-55.18,0.03,1785092096202.944
-0.898,-0.255,-0.303,-126.01,-55.79,0.95,1785092096213.55
-0.906,-0.282,-0.309,-133.34,-55.88,0.76,1785092096226.8423
-0.897,-0.317,-0.311,-139.01,-56.28,-1.89,1785092096232.76
-0.875,-0.329,-0.311,-140.69,-56.43,-6.07,1785092096242.9758
-0.866,-0.324,-0.307,-139.04,-56.09,-10.62,1785092096253.621
-0.88,-0.319,-0.304,-136.23,-56.12,-15.93,1785092096266.877
-0.904,-0.309,-0.311,-135.65,-56.79,-22.06,1785092096273.001
-0.924,-0.311,-0.317,-137.42,-56.95,-28.44,1785092096283.293
-0.947,-0.324,-0.329,-140.63,-56.79,-34.67,1785092096296.563
-0.96,-0.332,-0.341,-144.26,-55.85,-40.41,1785092096302.471
-0.974,-0.33,-0.34,-147.04,-54.29,-45.59,1785092096313.088
-0.982,-0.326,-0.342,-149.33,-53.44,-50.36,1785092096323.8882
-0.981,-0.318,-0.351,-152.84,-52.46,-55.39,1785092096336.9548
-0.98,-0.317,-0.358,-158.97,-50.84,-60.79,1785092096343.057
-0.996,-0.329,-0.354,-167.42,-49.1,-66.38,1785092096353.3982
-1.009,-0.377,-0.344,-176.64,-47.94,-72.08,1785092096366.635
-1.026,-0.417,-0.338,-187.26,-48.46,-79.56,1785092096372.7412
-1.041,-0.419,-0.337,-198.95,-49.84,-87.47,1785092096383.106
-1.029,-0.409,-0.357,-208.01,-50.26,-93.63,1785092096393.743
-1.014,-0.377,-0.399,-214.18,-48.19,-99.64,1785092096407.1018
-1.014,-0.319,-0.433,-220.77,-43.73,-106.2,1785092096412.9321
-1.037,-0.293,-0.427,-229.96,-38.79,-113.1,1785092096423.775
-1.059,-0.297,-0.397,-242.9,-34.0,-119.94,1785092096436.929
-1.079,-0.313,-0.375,-256.11,-29.21,-124.76,1785092096442.875
-1.088,-0.366,-0.355,-265.27,-24.78,-126.77,1785092096453.604
-1.087,-0.42,-0.381,-269.91,-21.12,-128.06,1785092096466.82
-1.083,-0.377,-0.446,-272.62,-16.02,-126.96,1785092096472.884
-1.078,-0.245,-0.5,-277.69,-9.49,-121.86,1785092096483.4658
-1.067,-0.196,-0.553,-287.88,-3.11,-117.16,1785092096496.671
-1.062,-0.258,-0.55,-302.5,3.85,-116.03,1785092096502.5952
-1.073,-0.375,-0.486,-309.92,9.95,-117.68,1785092096513.1787
-1.087,-0.473,-0.456,-301.31,14.59,-119.79,1785092096526.208
-1.093,-0.532,-0.477,-277.93,20.78,-120.03,1785092096532.363
-1.101,-0.586,-0.496,-245.37,28.75,-121.16,1785092096542.967
-1.121,-0.632,-0.383,-210.03,36.44,-123.23,1785092096553.947
-1.146,-0.536,-0.287,-185.8,38.15,-120.73,1785092096567.1282
-1.172,-0.47,-0.45,-171.03,37.54,-116.95,1785092096573.283
-1.176,-0.465,-0.599,-165.23,46.69,-113.13,1785092096583.971
-1.135,-0.418,-0.635,-162.97,57.37,-111.97,1785092096597.095
-1.126,-0.441,-0.631,-156.29,64.21,-114.87,1785092096603.1301
-1.15,-0.47,-0.643,-150.61,68.97,-120.12,1785092096613.8408
-1.155,-0.511,-0.655,-142.28,74.59,-124.0,1785092096627.093
-1.175,-0.587,-0.633,-129.58,79.78,-126.71,1785092096632.9758
-1.212,-0.611,-0.61,-114.6,82.49,-129.83,1785092096643.897
-1.238,-0.555,-0.613,-96.26,84.72,-131.17,1785092096657.091
-1.237,-0.482,-0.687,-78.01,86.34,-131.2,1785092096662.956
-1.216,-0.422,-0.832,-67.72,88.96,-131.81,1785092096673.4941
-1.219,-0.448,-0.926,-65.28,94.97,-134.92,1785092096686.791
-1.238,-0.558,-0.97,-65.4,102.79,-142.06,1785092096692.775
-1.264,-0.699,-0.971,-59.57,112.03,-152.38,1785092096703.458
-1.317,-0.843,-0.91,-40.38,119.51,-165.9,1785092096716.6182
-1.391,-0.871,-0.886,-8.06,121.68,-179.66,1785092096722.824
-1.474,-0.678,-0.891,30.37,122.84,-185.16,1785092096733.179
-1.479,-0.336,-0.907,61.28,126.87,-177.25,1785092096746.482
-1.345,-0.214,-0.958,74.34,131.75,-167.46,1785092096752.357
-1.206,-0.297,-1.027,57.83,133.82,-170.23,1785092096763.233
-1.132,-0.413,-1.059,20.33,135.5,-180.18,1785092096776.4731
-1.118,-0.554,-1.069,-13.31,138.34,-188.06,1785092096782.376
-1.147,-0.685,-1.106,-33.17,143.53,-192.27,1785092096793.1763
-1.137,-0.699,-1.067,-40.1,148.87,-190.22,1785092096804.039
-1.14,-0.665,-1.02,-36.62,145.21,-173.86,1785092096817.1301
-1.099,-0.644,-0.946,-22.98,143.8,-156.59,1785092096823.114
-1.033,-0.637,-0.904,-4.06,143.5,-146.37,1785092096833.7222
-0.978,-0.619,-0.933,7.6,142.09,-141.0,1785092096847.004
-0.941,-0.601,-0.967,6.47,141.21,-137.09,1785092096852.9092
-0.917,-0.632,-0.978,-5.04,142.03,-133.3,1785092096863.6213
-0.854,-0.652,-0.948,-22.64,146.21,-129.76,1785092096876.717
-0.828,-0.717,-0.906,-37.78,146.95,-120.82,1785092096882.876
-0.802,-0.792,-0.839,-41.72,150.21,-112.61,1785092096893.466
-0.758,-0.825,-0.794,-35.4,154.15,-107.3,1785092096906.729
-0.723,-0.79,-0.779,-28.53,153.51,-101.23,1785092096912.775
-0.713,-0.714,-0.809,-29.15,150.03,-92.38,1785092096923.361
-0.679,-0.646,-0.822,-38.03,148.26,-83.5,1785092096936.604
-0.628,-0.588,-0.828,-55.15,144.87,-74.89,1785092096942.519
-0.591,-0.56,-0.794,-73.21,143.5,-68.54,1785092096952.9941
-0.563,-0.549,-0.722,-85.54,145.36,-66.23,1785092096963.763
-0.525,-0.554,-0.668,-87.92,147.89,-63.36,1785092096976.9312
-0.525,-0.554,-0.668,-81.82,147.07,-58.32,1785092096982.804
-0.463,-0.578,-0.696,-76.97,145.09,-53.38,1785092096993.3218
-0.422,-0.566,-0.735,-77.88,145.24,-48.95,1785092097006.5862
-0.414,-0.525,-0.733,-81.97,148.63,-43.67,1785092097012.49
-0.41,-0.509,-0.719,-88.29,153.57,-38.64,1785092097023.0798
-0.397,-0.513,-0.753,-88.29,153.57,-38.64,1785092097033.673
-0.386,-0.53,-0.811,-96.41,158.27,-35.62,1785092097046.9749
-0.415,-0.55,-0.803,-105.69,160.74,-33.91,1785092097052.887
-0.444,-0.564,-0.708,-108.34,162.24,-33.08,1785092097063.7068
-0.427,-0.52,-0.673,-101.44,163.21,-31.37,1785092097076.7842
-0.38,-0.43,-0.775,-88.29,165.5,-28.6,1785092097082.7688
-0.328,-0.316,-0.77,-76.17,170.38,-25.67,1785092097093.3481
-0.254,-0.212,-0.778,-68.06,173.07,-21.91,1785092097106.621
-0.229,-0.166,-0.725,-65.22,175.88,-18.46,1785092097112.5122
-0.228,-0.181,-0.64,-64.39,175.15,-18.34,1785092097123.086
-0.219,-0.206,-0.634,-64.33,172.64,-20.36,1785092097133.692
-0.2,-0.209,-0.649,-65.89,170.51,-21.67,1785092097146.952
-0.161,-0.173,-0.64,-70.07,169.44,-19.68,1785092097152.884
-0.138,-0.113,-0.62,-74.01,170.69,-13.79,1785092097163.453
-0.103,-0.067,-0.609,-75.14,172.61,-4.03,1785092097176.645
-0.065,-0.031,-0.599,-76.39,173.04,5.65,1785092097182.5762
-0.058,-0.01,-0.585,-81.18,172.25,14.13,1785092097192.974
-0.056,-0.053,-0.58,-89.3,170.42,21.76,1785092097203.802
-0.034,-0.117,-0.551,-101.47,167.55,25.64,1785092097217.28
-0.021,-0.13,-0.491,-115.45,165.14,26.92,1785092097223.0752
-0.012,-0.102,-0.494,-126.74,164.01,32.26,1785092097233.597
0.027,-0.083,-0.544,-134.74,164.68,42.7,1785092097246.824
0.089,-0.124,-0.602,-136.97,166.2,52.25,1785092097252.734
0.11,-0.15,-0.576,-136.2,168.31,55.18,1785092097263.616
0.119,-0.097,-0.526,-133.24,170.75,53.32,1785092097276.798
0.135,-0.038,-0.48,-126.83,174.17,52.98,1785092097282.7368
0.147,-0.028,-0.408,-119.91,174.81,55.73,1785092097293.511
0.173,-0.051,-0.321,-110.81,172.61,61.59,1785092097306.9119
0.209,-0.039,-0.25,-99.12,169.68,67.81,1785092097312.6973
0.247,-0.014,-0.245,-86.03,166.88,72.94,1785092097323.3381
0.264,0.017,-0.305,-79.41,164.65,73.98,1785092097336.532
0.296,0.047,-0.352,-84.26,163.43,73.95,1785092097342.4858
0.356,0.028,-0.335,-96.96,161.69,76.66,1785092097353.002
0.376,-0.031,-0.28,-107.18,159.15,78.74,1785092097363.873
0.362,-0.074,-0.228,-108.68,156.59,78.4,1785092097377.114
0.355,-0.094,-0.178,-101.47,155.28,78.28,1785092097382.907
0.364,-0.108,-0.14,-88.75,152.38,80.11,1785092097393.598
0.39,-0.105,-0.114,-75.08,148.69,81.3,1785092097406.967
0.407,-0.087,-0.1,-64.79,144.54,79.71,1785092097412.7932
0.417,-0.075,-0.086,-61.89,139.99,76.2,1785092097423.396
0.409,-0.07,-0.058,-68.45,135.53,71.93,1785092097436.5598
0.382,-0.088,-0.044,-80.29,130.71,69.28,1785092097442.54
0.383,-0.115,-0.045,-93.11,126.56,69.52,1785092097453.002
0.39,-0.136,-0.048,-105.26,122.62,70.44,1785092097463.9011
0.424,-0.164,-0.034,-115.94,119.79,74.68,1785092097477.3738
0.47,-0.209,-0.023,-122.32,115.27,76.57,1785092097483.0332
0.464,-0.213,-0.011,-126.71,110.32,75.62,1785092097493.7449
0.45,-0.233,0.007,-127.57,106.6,78.37,1785092097507.02
0.43,-0.265,0.034,-124.33,103.18,82.37,1785092097512.9019
0.41,-0.29,0.047,-118.78,99.28,87.71,1785092097523.7178
0.417,-0.292,0.034,-115.27,95.19,94.12,1785092097536.854
0.416,-0.273,0.026,-117.8,92.93,100.34,1785092097542.809
0.419,-0.28,0.024,-126.9,91.22,106.27,1785092097553.489
0.434,-0.299,0.053,-140.84,89.79,109.96,1785092097566.725
0.407,-0.376,0.13,-147.89,87.28,110.23,1785092097572.814
0.375,-0.438,0.16,-142.89,82.37,109.78,1785092097583.603
0.396,-0.441,0.15,-127.38,77.33,113.86,1785092097596.679
0.415,-0.427,0.126,-108.89,73.31,118.9,1785092097602.607
0.403,-0.415,0.075,-98.48,70.07,120.0,1785092097613.282
0.362,-0.422,0.041,-100.25,68.15,118.56,1785092097626.5862
0.325,-0.467,0.035,-111.06,65.83,117.13,1785092097632.473
0.299,-0.526,0.052,-123.05,63.63,117.47,1785092097643.273
0.264,-0.548,0.065,-127.26,62.32,120.91,1785092097656.579
0.282,-0.568,0.046,-117.07,62.11,127.66,1785092097662.543
0.344,-0.553,0.036,-100.04,63.3,135.32,1785092097673.406
0.38,-0.539,0.045,-79.56,64.39,142.46,1785092097683.949
0.399,-0.562,0.067,-59.82,64.61,148.23,1785092097697.1729
0.412,-0.545,0.129,-51.97,64.15,150.43,1785092097703.188
0.392,-0.55,0.152,-54.87,57.92,156.16,1785092097713.6208
0.35,-0.606,0.168,-64.58,52.03,163.52,1785092097726.885
0.336,-0.658,0.166,-76.6,46.88,170.35,1785092097732.7712
0.333,-0.699,0.108,-81.42,42.15,177.62,1785092097743.3027
0.372,-0.739,0.043,-75.62,40.16,184.21,1785092097756.615
0.409,-0.773,0.066,-67.14,38.39,188.97,1785092097762.485
0.338,-0.766,0.139,-63.78,33.14,190.13,1785092097773.122
0.227,-0.803,0.202,-66.04,25.06,196.02,1785092097783.747
0.148,-0.846,0.207,-72.3,15.87,204.02,1785092097797.041
0.086,-0.9,0.211,-76.39,8.94,210.76,1785092097802.849
0.041,-0.951,0.195,-76.91,1.8,215.19,1785092097813.18
0.035,-0.943,0.081,-75.17,-5.16,215.67,1785092097823.8662
0.048,-0.902,-0.022,-71.9,-8.06,216.65,1785092097836.983
0.074,-0.931,-0.044,-68.33,-13.0,218.57,1785092097843.093
0.079,-0.982,-0.028,-71.41,-22.55,218.85,1785092097853.3562
0.021,-1.039,0.002,-79.87,-33.51,219.82,1785092097866.612
-0.075,-1.101,0.007,-89.63,-44.4,222.39,1785092097872.705
-0.175,-1.112,-0.014,-98.97,-53.19,222.66,1785092097883.0718
-0.259,-1.107,-0.011,-105.75,-60.34,220.98,1785092097893.8071
-0.296,-1.105,-0.08,-113.99,-70.62,218.82,1785092097907.0872
-0.253,-1.091,-0.25,-126.62,-79.01,218.27,1785092097913.068
-0.212,-1.09,-0.359,-138.68,-83.35,217.9,1785092097923.917
-0.225,-1.108,-0.428,-146.92,-88.6,214.82,1785092097936.9832
-0.283,-1.189,-0.394,-147.01,-92.26,211.28,1785092097942.969
-0.367,-1.268,-0.234,-135.62,-95.83,206.92,1785092097953.692
-0.479,-1.285,-0.072,-110.45,-103.92,200.78,1785092097966.9321
-0.577,-1.25,-0.069,-78.55,-116.86,193.82,1785092097972.904
-0.628,-1.209,-0.214,-55.39,-129.12,187.23,1785092097983.838
-0.655,-1.143,-0.441,-48.52,-136.27,180.12,1785092097996.9639
-0.632,-1.076,-0.702,-53.71,-133.06,174.66,1785092098002.926
-0.573,-1.05,-0.775,-59.27,-119.27,171.79,1785092098013.715
-0.536,-1.046,-0.621,-53.56,-105.99,169.74,1785092098027.061
-0.578,-1.08,-0.332,-33.14,-101.35,167.09,1785092098032.959
-0.66,-1.096,-0.13,-9.16,-108.95,163.24,1785092098043.7651
-0.688,-1.082,-0.115,6.47,-121.07,160.65,1785092098056.8809
-0.743,-1.058,-0.216,5.77,-132.3,158.6,1785092098062.872
-0.828,-1.074,-0.417,-6.26,-141.09,156.9,1785092098073.3308
-0.89,-1.134,-0.59,-23.83,-142.74,153.78,1785092098086.582
-0.93,-1.126,-0.667,-43.58,-139.9,147.31,1785092098092.511
-0.95,-1.059,-0.65,-55.88,-134.95,140.54,1785092098103.301
-0.993,-1.03,-0.511,-57.53,-131.41,135.53,1785092098116.508
-1.035,-1.039,-0.405,-55.85,-135.47,131.29,1785092098122.585
-1.044,-1.033,-0.36,-56.37,-142.28,129.4,1785092098133.2668
-1.018,-1.019,-0.337,-57.07,-146.7,130.01,1785092098146.477
-1.011,-1.033,-0.322,-55.7,-152.41,128.61,1785092098152.425
-1.026,-1.051,-0.322,-53.68,-163.0,124.06,1785092098163.208
-1.046,-1.029,-0.457,-51.15,-173.53,116.76,1785092098176.548
-1.077,-0.954,-0.671,-49.53,-175.02,108.68,1785092098182.416
-1.127,-0.883,-0.727,-52.06,-169.23,103.0,1785092098193.2239
-1.14,-0.863,-0.623,-58.69,-165.26,101.08,1785092098206.532
-1.118,-0.895,-0.471,-66.07,-164.31,100.99,1785092098212.523
-1.122,-0.936,-0.32,-69.46,-165.5,100.96,1785092098223.144
-1.112,-1.021,-0.2,-66.68,-172.4,105.96,1785092098233.9321
-1.081,-1.13,-0.126,-62.41,-183.94,108.52,1785092098247.157
-1.099,-1.154,-0.23,-59.85,-197.03,100.86,1785092098253.071
-1.141,-1.073,-0.6,-55.85,-201.15,91.43,1785092098264.0012
-1.141,-1.073,-0.6,-54.66,-189.89,85.88,1785092098277.0132
-1.173,-0.924,-0.938,-64.73,-174.81,79.59,1785092098283.0178
-1.189,-0.766,-1.0,-85.18,-165.68,71.38,1785092098293.4622
-1.155,-0.679,-0.827,-106.78,-160.59,61.46,1785092098306.8318
-1.077,-0.714,-0.533,-106.78,-160.59,61.46,1785092098312.675
-1.019,-0.825,-0.198,-115.94,-159.7,51.45,1785092098323.743
-1.035,-0.97,0.045,-102.05,-165.81,44.1,1785092098336.675
-1.08,-1.127,0.081,-69.06,-177.19,40.77,1785092098342.659
-1.158,-1.189,-0.123,-26.8,-185.61,38.91,1785092098353.2002
-1.214,-1.053,-0.375,10.56,-183.02,36.68,1785092098363.928
-1.231,-0.78,-0.637,18.98,-175.08,30.92,1785092098377.1
-1.172,-0.627,-0.788,-6.41,-167.33,27.16,1785092098383.042
-1.134,-0.543,-0.655,-52.77,-157.41,11.93,1785092098393.493
-1.064,-0.454,-0.369,-92.84,-147.56,-2.32,1785092098406.812
-1.047,-0.417,-0.202,-115.12,-147.95,-10.77,1785092098412.677
-1.063,-0.437,-0.102,-127.72,-153.6,-11.78,1785092098423.3977
-1.023,-0.546,-0.103,-131.44,-157.84,-8.09,1785092098436.503
-1.067,-0.586,-0.139,-138.52,-161.9,-14.89,1785092098442.569
-1.119,-0.639,-0.229,-147.89,-172.83,-11.26,1785092098453.1519
-1.025,-0.649,-0.399,-159.31,-169.56,-11.08,1785092098463.918
-0.996,-0.453,-0.741,-207.8,-166.81,-31.13,1785092098477.161
-1.143,-0.097,-0.911,-330.64,-192.24,-37.66,1785092098483.0862
-1.141,0.172,-0.786,-444.44,-178.38,-33.02,1785092098493.893
-1.094,-0.016,-0.679,-494.52,-146.92,-25.21,1785092098507.19
-0.981,-0.377,-0.53,-482.1,-115.21,-23.1,1785092098513.0298
-0.845,-0.529,-0.302,-419.66,-88.72,-35.62,1785092098523.894
-0.81,-0.59,-0.137,-341.41,-78.46,-55.06,1785092098536.959
-0.82,-0.703,-0.016,-276.13,-73.73,-70.1,1785092098543.004
-0.876,-0.764,0.056,-221.17,-66.77,-76.97,1785092098553.432
-0.961,-0.72,0.051,-168.4,-64.24,-68.82,1785092098566.656
-0.966,-0.648,0.02,-124.42,-63.42,-48.71,1785092098572.685
-0.964,-0.521,-0.039,-92.01,-59.88,-34.33,1785092098583.0122
-0.909,-0.446,-0.095,-66.56,-53.68,-23.74,1785092098593.614
-0.887,-0.427,-0.127,-41.75,-45.17,-17.88,1785092098607.0059
-0.853,-0.391,-0.145,-18.22,-35.77,-14.16,1785092098612.7622
-0.825,-0.351,-0.132,-1.31,-25.76,-12.51,1785092098622.9802
-0.81,-0.336,-0.089,9.55,-16.33,-8.7,1785092098633.3389
-0.767,-0.336,-0.081,18.28,-9.52,-6.47,1785092098643.9722
-0.758,-0.304,-0.077,20.51,-3.81,-9.34,1785092098656.996
-0.744,-0.289,-0.051,16.63,2.14,-10.22,1785092098662.7258
-0.732,-0.312,-0.024,11.78,8.88,-8.7,1785092098672.748
-0.754,-0.349,0.006,7.54,15.14,-6.62,1785092098683.1191
-0.765,-0.409,0.029,7.57,20.17,-2.93,1785092098693.485
-0.786,-0.436,0.045,11.51,24.45,0.31,1785092098706.79
-0.799,-0.44,0.057,18.25,28.75,5.01,1785092098712.5493
-0.814,-0.45,0.062,26.73,32.23,9.61,1785092098722.749
-0.82,-0.458,0.05,36.16,34.94,13.4,1785092098733.2302
-0.838,-0.442,0.04,44.56,36.93,16.88,1785092098743.881
-0.848,-0.43,0.033,51.7,37.97,21.27,1785092098757.067
-0.853,-0.43,0.028,57.77,38.85,24.69,1785092098763.008
-0.864,-0.433,0.028,62.75,40.16,26.4,1785092098773.328
-0.873,-0.431,0.026,66.84,40.86,27.77,1785092098783.843
-0.889,-0.425,0.019,69.77,41.05,29.54,1785092098797.032
-0.88,-0.409,0.009,70.04,40.5,31.83,1785092098802.9958
-0.898,-0.37,0.001,66.16,40.01,31.1,1785092098813.2532
-0.916,-0.359,0.007,59.54,40.04,31.56,1785092098823.8562
-0.914,-0.36,0.014,52.03,39.77,31.62,1785092098837.002
-0.931,-0.346,0.021,44.43,39.34,30.82,1785092098843.0562
-0.95,-0.338,0.025,37.26,38.7,32.32,1785092098853.2742
-0.932,-0.353,0.019,30.09,37.26,34.27,1785092098863.901
-0.928,-0.352,0.001,20.75,34.85,31.68,1785092098877.04
-0.957,-0.335,-0.01,8.03,30.67,29.27,1785092098882.9492
-0.942,-0.362,-0.016,-4.06,27.62,31.92,1785092098893.0518
-0.932,-0.365,-0.029,-15.66,25.54,32.38,1785092098903.703
-0.965,-0.34,-0.029,-28.14,23.59,33.2,1785092098916.845
-0.938,-0.346,-0.039,-39.34,20.51,37.17,1785092098923.127
-0.959,-0.337,-0.04,-51.36,17.61,38.7,1785092098933.048
-0.957,-0.359,-0.035,-61.04,13.92,43.09,1785092098943.805
-0.916,-0.376,-0.035,-67.45,9.64,45.26,1785092098956.909
-0.93,-0.338,-0.04,-70.83,7.69,41.2,1785092098962.6519
-0.944,-0.332,-0.058,-72.63,6.84,40.71,1785092098972.8682
-0.938,-0.363,-0.072,-75.9,5.22,42.21,1785092098983.2927
-0.945,-0.384,-0.08,-79.23,3.51,42.48,1785092098993.6982
-0.953,-0.402,-0.09,-79.38,2.81,43.31,1785092099006.958
-0.953,-0.414,-0.097,-77.49,2.32,44.65,1785092099012.768
-0.954,-0.412,-0.097,-75.08,2.01,44.92,1785092099022.925
-0.947,-0.411,-0.096,-71.96,2.23,44.83,1785092099033.33
-0.936,-0.418,-0.089,-67.6,2.69,44.22,1785092099043.858
-0.934,-0.422,-0.078,-61.89,2.99,43.73,1785092099057.052
-0.925,-0.418,-0.064,-54.6,2.75,43.76,1785092099062.898
-0.911,-0.408,-0.058,-45.59,2.59,44.13,1785092099073.018
-0.896,-0.405,-0.076,-35.13,2.84,44.19,1785092099083.5828
-0.891,-0.409,-0.098,-24.6,3.6,43.55,1785092099096.7512
-0.898,-0.417,-0.105,-14.95,4.49,42.02,1785092099102.55
-0.907,-0.429,-0.106,-5.28,5.49,40.38,1785092099112.558
-0.913,-0.442,-0.109,4.85,6.68,38.88,1785092099123.0469
-0.918,-0.454,-0.113,15.66,8.39,37.48,1785092099133.124
-0.922,-0.455,-0.116,26.95,9.95,36.07,1785092099146.6592
-0.924,-0.447,-0.12,37.29,11.35,35.34,1785092099152.587
-0.925,-0.435,-0.128,45.59,12.7,35.19,1785092099162.7651
-0.923,-0.416,-0.133,51.33,14.22,35.55,1785092099173.343
-0.921,-0.408,-0.136,54.81,15.59,35.55,1785092099186.626
-0.922,-0.404,-0.133,56.46,16.39,34.94,1785092099192.6501
-0.921,-0.403,-0.134,57.01,16.82,34.3,1785092099202.833
-0.921,-0.398,-0.133,56.58,17.21,33.54,1785092099213.4348
-0.921,-0.39,-0.13,54.9,17.21,32.78,1785092099226.7441
-0.92,-0.385,-0.13,52.58,16.88,32.04,1785092099232.1548
-0.92,-0.376,-0.131,49.47,16.66,31.25,1785092099242.8538
-0.923,-0.371,-0.132,46.02,16.39,30.55,1785092099253.406
-0.923,-0.369,-0.136,42.12,15.96,29.3,1785092099266.644
-0.928,-0.371,-0.138,38.09,15.75,27.53,1785092099272.7627
-0.93,-0.373,-0.136,34.09,15.14,25.54,1785092099282.757
-0.93,-0.375,-0.134,29.54,14.19,23.32,1785092099293.3901
-0.925,-0.376,-0.137,24.9,13.52,21.06,1785092099306.71
-0.92,-0.37,-0.138,19.75,12.97,19.41,1785092099312.5068
-0.914,-0.367,-0.13,15.23,12.73,17.73,1785092099322.644
-0.912,-0.366,-0.14,11.11,12.18,15.87,1785092099333.39
-0.917,-0.343,-0.139,4.94,10.8,13.12,1785092099343.8872
-0.91,-0.346,-0.132,0.61,10.93,12.05,1785092099357.16
-0.905,-0.354,-0.14,-2.69,10.83,10.04,1785092099363.005
-0.911,-0.348,-0.137,-6.26,10.28,7.66,1785092099373.002
-0.91,-0.349,-0.141,-8.39,9.52,6.29,1785092099383.261
-0.909,-0.345,-0.15,-10.68,8.7,4.24,1785092099393.586
-0.908,-0.338,-0.161,-13.0,8.21,2.2,1785092099406.989
-0.911,-0.335,-0.165,-15.2,8.03,0.21,1785092099412.4658
-0.914,-0.33,-0.164,-17.03,7.9,-1.19,1785092099422.6282
-0.912,-0.329,-0.163,-18.1,7.84,-2.17,1785092099432.9001
-0.914,-0.331,-0.162,-18.31,7.97,-3.33,1785092099443.276
-0.911,-0.334,-0.158,-17.79,8.12,-4.55,1785092099453.6262
-0.907,-0.34,-0.157,-16.39,8.3,-6.13,1785092099466.881
-0.904,-0.341,-0.167,-14.4,8.67,-7.93,1785092099472.695
-0.904,-0.333,-0.177,-11.9,9.06,-9.25,1785092099482.6082
-0.906,-0.327,-0.187,-9.16,9.74,-10.56,1785092099493.0
-0.916,-0.324,-0.188,-6.01,10.59,-12.24,1785092099503.6401
-0.923,-0.321,-0.182,-2.32,11.35,-13.86,1785092099516.828
-0.927,-0.32,-0.171,2.53,12.02,-15.05,1785092099522.904
-0.929,-0.321,-0.159,8.21,12.27,-16.08,1785092099532.5032
-0.926,-0.321,-0.159,13.55,11.75,-17.27,1785092099543.236
-0.926,-0.321,-0.159,17.64,11.29,-18.59,1785092099554.0679
-0.92,-0.319,-0.168,21.12,11.2,-19.87,1785092099567.012
-0.918,-0.316,-0.183,24.26,11.6,-20.66,1785092099573.049
-0.923,-0.306,-0.2,26.31,11.87,-21.09,1785092099583.237
-0.919,-0.294,-0.217,27.34,12.45,-21.82,1785092099593.796
-0.915,-0.284,-0.224,27.34,12.45,-21.82,1785092099607.046
-0.913,-0.285,-0.225,27.68,12.7,-22.64,1785092099612.9092
-0.912,-0.281,-0.221,27.25,12.51,-23.62,1785092099623.2908
-0.918,-0.266,-0.216,25.7,12.36,-23.93,1785092099633.754
-0.919,-0.262,-0.217,23.22,12.18,-23.44,1785092099646.981
-0.91,-0.267,-0.229,19.04,11.87,-23.41,1785092099652.8608
-0.918,-0.257,-0.242,12.57,10.93,-24.93,1785092099663.2021
-0.931,-0.255,-0.227,7.63,11.23,-24.51,1785092099673.6582
-0.924,-0.269,-0.235,5.92,11.32,-22.98,1785092099686.978
-0.923,-0.25,-0.237,2.84,11.32,-23.5,1785092099692.832
-0.926,-0.239,-0.234,-0.43,11.57,-23.32,1785092099702.888
-0.923,-0.245,-0.23,-3.66,11.05,-21.82,1785092099713.325
-0.908,-0.245,-0.214,-6.5,11.02,-21.15,1785092099723.835
-0.922,-0.258,-0.204,-6.1,11.54,-20.33,1785092099737.036
-0.916,-0.277,-0.213,-5.01,10.74,-19.14,1785092099742.977
-0.907,-0.267,-0.214,-4.82,10.19,-18.83,1785092099752.9358
-0.911,-0.253,-0.21,-3.14,10.41,-18.07,1785092099763.742
-0.91,-0.254,-0.208,-1.19,10.53,-16.42,1785092099773.9148
-0.907,-0.257,-0.205,0.09,10.41,-15.29,1785092099787.144
-0.911,-0.258,-0.199,1.4,10.13,-13.86,1785092099793.052
-0.907,-0.261,-0.198,3.72,10.01,-11.63,1785092099803.118
