ax,ay,az,gx,gy,gz,timestamp_ms
0.138,-0.203,-0.61,-69.31,153.97,-21.82,1785103631286.704
0.141,-0.189,-0.568,-83.41,150.4,-17.7,1785103631287.269
0.171,-0.201,-0.522,-89.18,142.92,-15.56,1785103631287.75
0.198,-0.207,-0.543,-97.81,138.07,-11.26,1785103631288.236
0.232,-0.147,-0.519,-97.81,138.07,-11.26,1785103631288.731
0.287,-0.111,-0.52,-103.79,133.43,-6.16,1785103631289.217
0.328,-0.096,-0.536,-109.84,129.0,-1.31,1785103631289.6829
0.363,-0.078,-0.575,-116.09,125.4,3.88,1785103631290.081
0.369,-0.022,-0.6,-123.63,125.74,7.32,1785103631290.4849
0.4,-0.013,-0.631,-135.44,126.56,14.28,1785103631290.889
0.431,-0.028,-0.637,-149.17,128.42,22.13,1785103631291.2842
0.436,-0.03,-0.616,-161.63,132.51,30.0,1785103631291.687
0.417,-0.051,-0.599,-170.69,135.87,38.94,1785103631292.0598
0.394,-0.083,-0.578,-175.82,138.1,45.96,1785103631292.402
0.381,-0.114,-0.567,-177.74,138.8,51.52,1785103631292.741
0.382,-0.127,-0.51,-176.73,139.07,58.02,1785103631293.143
0.395,-0.151,-0.459,-169.93,137.91,63.57,1785103631293.548
0.397,-0.174,-0.44,-159.52,134.25,69.46,1785103631293.947
0.426,-0.162,-0.451,-147.53,130.62,76.36,1785103631294.345
0.445,-0.178,-0.503,-137.82,130.47,80.66,1785103631294.7422
0.407,-0.195,-0.514,-136.66,131.08,82.64,1785103631295.1392
0.389,-0.201,-0.506,-139.71,132.82,85.33,1785103631295.5278
0.391,-0.219,-0.492,-144.32,134.98,88.32,1785103631295.868
0.395,-0.233,-0.457,-150.46,137.03,90.85,1785103631296.2173
0.412,-0.266,-0.404,-154.85,138.52,92.68,1785103631296.559
0.424,-0.28,-0.348,-157.14,139.56,93.05,1785103631296.9038
0.437,-0.279,-0.333,-156.93,139.81,93.42,1785103631297.256
0.427,-0.277,-0.33,-156.19,138.86,92.81,1785103631297.62
0.427,-0.269,-0.301,-156.53,137.49,93.57,1785103631297.977
0.441,-0.265,-0.28,-156.56,135.72,95.25,1785103631298.337
0.421,-0.284,-0.257,-158.54,133.67,98.57,1785103631298.7112
0.415,-0.318,-0.232,-160.56,130.28,102.51,1785103631299.0908
0.435,-0.336,-0.19,-160.37,127.17,105.96,1785103631299.452
0.459,-0.353,-0.16,-156.41,124.12,109.2,1785103631299.812
0.454,-0.372,-0.118,-151.62,121.1,110.75,1785103631300.1511
0.416,-0.392,-0.069,-147.8,116.86,112.37,1785103631300.5068
0.388,-0.421,-0.019,-142.98,112.0,115.05,1785103631300.904
0.385,-0.458,0.04,-136.17,105.14,116.86,1785103631301.261
0.402,-0.477,0.096,-127.2,97.84,117.59,1785103631301.602
0.401,-0.493,0.132,-117.68,90.24,118.66,1785103631301.971
0.401,-0.502,0.107,-109.99,82.58,117.83,1785103631302.326
0.385,-0.5,0.079,-108.95,76.57,114.11,1785103631302.6711
0.374,-0.502,0.069,-114.51,72.18,109.16,1785103631303.008
0.382,-0.526,0.038,-123.17,67.93,103.76,1785103631303.3608
0.41,-0.552,0.029,-134.04,63.33,98.79,1785103631303.6821
0.44,-0.571,0.021,-143.68,58.53,94.82,1785103631304.0
0.433,-0.596,-0.015,-150.27,53.87,92.2,1785103631304.2878
0.376,-0.582,-0.021,-155.77,50.14,90.37,1785103631304.602
0.296,-0.533,0.016,-156.5,47.15,90.46,1785103631304.9128
0.224,-0.459,0.096,-149.33,44.4,92.17,1785103631305.2212
0.185,-0.353,0.171,-130.8,39.19,93.84,1785103631305.519
0.199,-0.23,0.25,-98.45,27.95,97.42,1785103631305.871
0.384,-0.214,0.254,-55.09,13.31,100.71,1785103631306.21
0.666,-0.353,0.133,-9.49,-0.4,97.02,1785103631306.498
0.829,-0.478,0.05,17.55,-12.24,90.95,1785103631306.792
0.737,-0.481,-0.032,17.85,-21.97,92.26,1785103631307.083
0.438,-0.417,-0.145,-10.35,-23.68,103.24,1785103631307.38
0.219,-0.333,-0.281,-66.71,-17.67,112.67,1785103631307.673
0.156,-0.28,-0.423,-138.4,-8.82,115.6,1785103631307.979
0.174,-0.257,-0.482,-215.8,1.13,121.1,1785103631308.2822
0.25,-0.393,-0.496,-276.8,8.67,131.78,1785103631308.645
0.282,-0.651,-0.44,-304.3,12.82,139.16,1785103631308.9558
0.245,-0.896,-0.281,-291.57,9.4,144.54,1785103631309.262
0.233,-1.068,-0.124,-239.84,-1.71,152.5,1785103631309.572
0.242,-1.137,-0.097,-161.87,-15.93,159.98,1785103631309.867
0.229,-1.066,-0.167,-83.32,-25.85,164.59,1785103631310.166
0.25,-0.934,-0.276,-27.13,-29.33,169.5,1785103631310.4739
0.241,-0.863,-0.351,-1.46,-24.38,174.9,1785103631310.771
0.161,-0.837,-0.352,-3.27,-14.86,179.54,1785103631311.059
0.116,-0.86,-0.404,-14.86,-4.79,183.32,1785103631311.34
0.098,-0.862,-0.428,-25.3,5.43,183.72,1785103631311.604
0.081,-0.839,-0.374,-30.58,12.3,183.84,1785103631311.876
0.08,-0.826,-0.271,-27.77,13.09,185.89,1785103631312.14
0.087,-0.843,-0.174,-14.56,7.72,189.89,1785103631312.4102
0.068,-0.851,-0.133,3.72,-0.37,195.17,1785103631312.671
0.015,-0.852,-0.185,17.24,-7.78,200.35,1785103631312.9238
-0.051,-0.834,-0.295,14.53,-12.42,204.87,1785103631313.186
-0.096,-0.858,-0.413,-4.27,-12.97,209.63,1785103631313.46
-0.164,-0.887,-0.441,-35.28,-9.77,211.31,1785103631313.723
-0.205,-0.927,-0.411,-69.25,-8.67,212.99,1785103631313.9783
-0.153,-1.012,-0.375,-94.18,-10.83,212.9,1785103631314.2441
-0.212,-1.046,-0.252,-111.67,-11.78,207.68,1785103631314.511
-0.324,-1.106,-0.111,-118.08,-20.14,207.37,1785103631314.786
-0.349,-1.185,-0.063,-110.84,-37.35,210.24,1785103631315.051
-0.329,-1.199,-0.168,-97.51,-55.27,208.2,1785103631315.3113
-0.375,-1.125,-0.356,-93.78,-66.19,202.03,1785103631315.574
-0.467,-1.008,-0.517,-110.51,-69.64,196.05,1785103631315.867
-0.561,-0.968,-0.604,-135.9,-69.86,189.18,1785103631316.128
-0.62,-1.054,-0.589,-155.46,-68.82,178.75,1785103631316.397
-0.682,-1.132,-0.456,-165.17,-70.99,167.82,1785103631316.713
-0.663,-1.174,-0.312,-157.02,-80.63,162.33,1785103631316.992
-0.641,-1.175,-0.267,-130.56,-95.28,154.79,1785103631317.251
-0.631,-1.091,-0.354,-99.89,-112.31,145.33,1785103631317.5261
-0.62,-0.972,-0.5,-77.39,-126.53,136.85,1785103631317.795
-0.65,-0.869,-0.641,-73.34,-134.22,128.45,1785103631318.054
-0.668,-0.808,-0.8,-84.48,-135.62,122.17,1785103631318.323
-0.714,-0.78,-0.812,-104.46,-133.18,117.74,1785103631318.5999
-0.779,-0.784,-0.676,-127.14,-131.32,113.47,1785103631318.896
-0.771,-0.804,-0.552,-143.71,-134.62,110.42,1785103631319.158
-0.748,-0.832,-0.497,-149.51,-143.1,106.69,1785103631319.41
-0.792,-0.83,-0.46,-147.04,-154.42,99.83,1785103631319.6611
-0.813,-0.802,-0.539,-139.13,-169.38,91.8,1785103631319.9082
-0.847,-0.743,-0.697,-134.07,-183.81,83.71,1785103631320.148
-0.918,-0.702,-0.871,-139.44,-190.47,75.38,1785103631320.4119
-0.949,-0.697,-0.951,-156.56,-190.5,65.8,1785103631320.658
-0.941,-0.774,-0.995,-178.32,-188.63,52.4,1785103631320.916
-0.911,-0.792,-1.013,-197.49,-181.65,37.63,1785103631321.169
-0.906,-0.796,-0.867,-202.03,-173.41,21.85,1785103631321.433
-0.958,-0.877,-0.653,-188.02,-170.6,4.61,1785103631321.7258
-1.034,-0.913,-0.456,-151.95,-174.72,-4.3,1785103631321.9731
-1.089,-0.86,-0.4,-96.41,-183.39,-7.75,1785103631322.206
-1.131,-0.808,-0.483,-36.23,-191.99,-10.96,1785103631322.445
-1.143,-0.689,-0.649,3.08,-200.99,-11.51,1785103631322.6821
-1.1,-0.51,-0.927,14.92,-202.19,-6.47,1785103631322.9172
-1.075,-0.394,-1.143,0.82,-198.13,1.1,1785103631323.154
-1.022,-0.339,-1.191,-39.31,-192.69,2.78,1785103631323.393
-0.994,-0.347,-1.262,-90.18,-184.03,-5.68,1785103631323.6301
-0.924,-0.411,-1.151,-144.2,-165.99,-7.51,1785103631323.867
-0.913,-0.554,-0.845,-177.28,-152.78,-10.62,1785103631324.1091
-0.996,-0.653,-0.7,-166.23,-144.17,-18.25,1785103631324.351
-0.943,-0.577,-0.566,-144.47,-145.27,-15.32,1785103631324.595
-0.957,-0.521,-0.556,-109.96,-148.32,-14.71,1785103631324.835
-1.076,-0.426,-0.563,-84.05,-148.53,-11.26,1785103631325.0781
-1.121,-0.346,-0.604,-65.61,-143.62,-3.14,1785103631325.3022
-1.098,-0.305,-0.709,-60.12,-143.59,2.99,1785103631325.5198
-1.105,-0.275,-0.792,-70.28,-139.9,3.48,1785103631325.7449
-1.124,-0.284,-0.861,-84.54,-134.13,-2.35,1785103631326.028
-1.135,-0.286,-0.808,-101.05,-128.21,-13.52,1785103631326.278
-1.135,-0.286,-0.808,-114.96,-121.86,-24.57,1785103631326.504
-1.154,-0.306,-0.68,-121.89,-116.76,-34.0,1785103631326.732
-1.169,-0.345,-0.578,-122.59,-112.92,-41.2,1785103631326.9639
-1.177,-0.357,-0.499,-115.42,-111.55,-44.86,1785103631327.1912
-1.165,-0.337,-0.442,-101.93,-112.83,-45.96,1785103631327.411
-1.142,-0.273,-0.42,-101.93,-112.83,-45.96,1785103631327.6519
-1.113,-0.199,-0.428,-86.89,-113.93,-45.56,1785103631327.877
-1.08,-0.116,-0.453,-76.82,-114.32,-44.89,1785103631328.1128
-1.053,-0.067,-0.515,-73.64,-112.13,-43.52,1785103631328.332
-1.042,-0.028,-0.587,-80.23,-105.69,-43.0,1785103631328.5571
-1.03,0.007,-0.612,-91.92,-97.51,-42.12,1785103631328.786
-1.02,0.004,-0.575,-99.92,-88.53,-39.4,1785103631329.0032
-1.008,-0.03,-0.523,-98.27,-80.78,-37.02,1785103631329.244
-0.996,-0.08,-0.49,-87.31,-76.78,-33.57,1785103631329.466
-0.99,-0.137,-0.488,-72.51,-73.12,-30.85,1785103631329.692
-0.986,-0.119,-0.535,-60.55,-69.37,-29.66,1785103631329.907
-0.981,-0.075,-0.568,-55.45,-64.91,-26.18,1785103631330.1382
-0.99,-0.08,-0.607,-53.13,-61.74,-23.41,1785103631330.365
-0.982,-0.051,-0.622,-58.38,-58.44,-23.41,1785103631330.581
-0.951,-0.034,-0.621,-70.07,-52.98,-24.78,1785103631330.816
-0.948,-0.043,-0.578,-83.35,-48.31,-26.95,1785103631331.043
-0.951,-0.078,-0.534,-93.33,-45.47,-28.81,1785103631331.258
-0.96,-0.114,-0.495,-97.81,-43.55,-30.95,1785103631331.466
-0.962,-0.126,-0.428,-99.09,-40.47,-31.56,1785103631331.679
-0.964,-0.133,-0.352,-97.2,-37.9,-31.89,1785103631331.908
-0.952,-0.175,-0.269,-90.09,-36.56,-30.0,1785103631332.119
-0.955,-0.173,-0.232,-79.41,-35.62,-26.8,1785103631332.339
-0.935,-0.156,-0.25,-68.15,-32.38,-22.06,1785103631332.556
-0.907,-0.143,-0.268,-63.48,-27.62,-17.37,1785103631332.7688
-0.884,-0.15,-0.262,-62.14,-20.75,-13.18,1785103631332.9722
-0.874,-0.173,-0.227,-59.72,-13.58,-9.92,1785103631333.18
-0.88,-0.21,-0.189,-52.98,-8.27,-7.93,1785103631333.3892
-0.903,-0.253,-0.165,-42.33,-5.28,-7.45,1785103631333.625
-0.924,-0.293,-0.148,-30.03,-2.9,-6.84,1785103631333.8262
-0.942,-0.309,-0.151,-16.54,0.06,-6.07,1785103631334.036
-0.956,-0.306,-0.159,-5.68,1.19,-5.1,1785103631334.241
-0.956,-0.288,-0.151,2.29,1.25,-4.33,1785103631334.441
-0.968,-0.3,-0.138,15.87,-0.34,-3.14,1785103631334.8533
-0.968,-0.295,-0.141,20.84,-1.86,-2.99,1785103631335.0588
-0.924,-0.208,-0.279,-0.89,2.04,0.0,1785103631335.5022
-0.923,-0.209,-0.279,-1.53,2.08,-0.12,1785103631335.7087
-0.924,-0.212,-0.284,-2.08,2.08,-0.34,1785103631335.912
-0.925,-0.213,-0.282,-2.84,2.11,-0.46,1785103631345.412
-0.923,-0.214,-0.281,-3.54,2.04,-0.43,1785103631350.819
-0.918,-0.212,-0.281,-3.81,1.98,-0.7,1785103631361.144
-0.917,-0.214,-0.281,-3.85,1.8,-1.13,1785103631371.505
-0.918,-0.217,-0.282,-4.12,1.8,-1.5,1785103631381.907
-0.918,-0.22,-0.284,-4.06,1.86,-1.92,1785103631392.298
-0.917,-0.218,-0.284,-3.72,1.86,-2.38,1785103631405.476
-0.917,-0.216,-0.287,-3.02,1.77,-2.59,1785103631415.362
-0.916,-0.215,-0.288,-2.5,1.65,-2.78,1785103631421.126
-0.917,-0.215,-0.294,-2.01,1.62,-3.11,1785103631431.5159
-0.919,-0.214,-0.292,-1.98,1.59,-3.17,1785103631441.948
-0.917,-0.21,-0.292,-2.53,1.8,-3.14,1785103631452.357
-0.913,-0.213,-0.292,-2.9,2.32,-3.27,1785103631465.7158
-0.911,-0.215,-0.289,-2.81,2.56,-3.39,1785103631471.133
-0.912,-0.217,-0.286,-2.08,2.66,-3.51,1785103631481.3562
-0.913,-0.213,-0.288,-0.95,2.69,-3.33,1785103631491.822
-0.914,-0.211,-0.287,0.12,2.69,-3.3,1785103631502.1592
-0.916,-0.207,-0.287,0.43,2.78,-3.23,1785103631512.65
-0.916,-0.202,-0.286,0.24,2.87,-2.99,1785103631526.001
-0.917,-0.206,-0.288,0.09,2.99,-2.99,1785103631531.5552
-0.917,-0.212,-0.287,0.31,3.14,-3.33,1785103631541.691
-0.917,-0.215,-0.287,1.22,3.23,-3.11,1785103631551.896
-0.917,-0.212,-0.288,2.41,3.11,-2.93,1785103631562.345
-0.914,-0.205,-0.289,3.11,2.96,-2.9,1785103631572.719
-0.913,-0.197,-0.288,3.11,2.93,-2.81,1785103631585.946
-0.911,-0.194,-0.288,2.62,3.11,-2.69,1785103631591.6272
-0.91,-0.195,-0.287,1.77,3.08,-2.56,1785103631601.622
-0.91,-0.2,-0.285,1.34,3.11,-2.47,1785103631611.984
-0.911,-0.201,-0.282,1.65,3.14,-2.29,1785103631622.377
-0.912,-0.199,-0.28,2.62,2.93,-2.01,1785103631635.632
-0.912,-0.198,-0.281,3.48,2.78,-1.68,1785103631641.3372
-0.912,-0.196,-0.284,4.18,2.62,-1.01,1785103631651.291
-0.915,-0.197,-0.288,4.58,2.41,-0.46,1785103631661.74
-0.919,-0.194,-0.288,4.24,2.2,-0.09,1785103631672.108
-0.921,-0.19,-0.286,3.42,2.04,0.7,1785103631682.432
-0.919,-0.194,-0.292,2.72,1.83,1.4,1785103631695.7222
-0.918,-0.193,-0.297,1.59,1.62,1.77,1785103631701.3801
-0.916,-0.2,-0.3,0.55,1.59,1.86,1785103631711.404
-0.916,-0.203,-0.297,-0.43,1.89,1.86,1785103631721.8271
-0.917,-0.206,-0.296,-0.7,1.71,1.8,1785103631732.1191
-0.917,-0.211,-0.296,-0.52,1.65,1.68,1785103631742.522
-0.913,-0.212,-0.295,-0.46,1.43,1.71,1785103631755.865
-0.909,-0.21,-0.295,-0.12,1.34,1.74,1785103631761.4321
-0.907,-0.208,-0.297,0.82,1.25,1.62,1785103631771.4072
-0.909,-0.204,-0.295,1.31,1.13,1.53,1785103631781.8171
-0.907,-0.204,-0.295,1.37,1.25,1.92,1785103631792.181
-0.903,-0.209,-0.297,1.59,1.4,2.17,1785103631802.5688
-0.901,-0.211,-0.295,1.86,1.56,2.5,1785103631815.848
-0.897,-0.212,-0.297,2.2,1.68,2.87,1785103631821.46
-0.892,-0.212,-0.295,2.41,1.74,3.27,1785103631831.484
-0.894,-0.212,-0.293,2.56,1.92,3.42,1785103631841.9211
-0.9,-0.215,-0.291,2.53,2.08,3.2,1785103631852.2407
-0.903,-0.219,-0.289,2.78,2.26,3.14,1785103631862.647
-0.907,-0.222,-0.292,3.57,2.17,3.05,1785103631875.9702
-0.908,-0.218,-0.292,4.36,1.86,2.99,1785103631881.5251
-0.909,-0.217,-0.295,4.85,1.62,3.14,1785103631891.745
-0.908,-0.216,-0.296,5.01,1.34,3.05,1785103631901.977
-0.906,-0.215,-0.298,4.88,0.85,2.96,1785103631912.3762
-0.902,-0.212,-0.296,4.21,0.61,2.78,1785103631922.7341
-0.903,-0.212,-0.297,3.3,0.49,2.5,1785103631936.011
-0.902,-0.218,-0.296,2.59,0.4,2.08,1785103631941.8271
-0.903,-0.217,-0.295,1.98,0.46,1.62,1785103631951.647
-0.904,-0.218,-0.294,2.08,0.24,1.43,1785103631961.835
-0.905,-0.22,-0.294,2.47,0.12,1.4,1785103631972.4749
-0.905,-0.217,-0.294,2.59,0.15,1.43,1785103631985.692
-0.904,-0.214,-0.291,2.75,-0.12,1.56,1785103631991.4749
-0.904,-0.211,-0.293,3.2,-0.4,1.56,1785103632001.358
-0.907,-0.211,-0.297,3.33,-0.82,1.53,1785103632011.7021
-0.907,-0.214,-0.298,2.75,-0.98,1.53,1785103632022.12
-0.908,-0.214,-0.296,1.98,-1.1,1.71,1785103632032.5178
-0.908,-0.212,-0.296,1.31,-1.16,1.92,1785103632045.742
-0.906,-0.209,-0.296,0.52,-1.16,1.95,1785103632051.3489
-0.909,-0.212,-0.295,-0.34,-1.13,1.77,1785103632061.455
-0.91,-0.218,-0.296,-0.58,-1.04,1.53,1785103632071.786
-0.91,-0.218,-0.296,-0.4,-1.13,1.28,1785103632082.1829
-0.91,-0.218,-0.3,0.12,-1.43,1.19,1785103632092.576
-0.907,-0.213,-0.302,0.24,-1.59,1.01,1785103632105.8418
-0.908,-0.209,-0.3,0.03,-1.4,0.85,1785103632111.506
-0.908,-0.21,-0.298,-0.12,-1.28,0.61,1785103632121.5042
-0.909,-0.214,-0.297,0.06,-1.4,0.4,1785103632131.906
-0.907,-0.215,-0.297,0.85,-1.46,0.31,1785103632142.3381
-0.906,-0.211,-0.3,1.74,-1.68,0.18,1785103632152.624
-0.909,-0.206,-0.303,2.17,-1.77,0.09,1785103632165.893
-0.908,-0.204,-0.302,2.08,-1.62,-0.15,1785103632171.1519
-0.908,-0.204,-0.302,1.86,-1.62,-0.4,1785103632181.584
-0.909,-0.203,-0.304,1.25,-1.46,-0.31,1785103632191.9849
-0.912,-0.201,-0.304,0.52,-1.16,-0.06,1785103632202.2888
-0.915,-0.201,-0.301,0.06,-0.98,0.06,1785103632212.7559
-0.915,-0.199,-0.298,0.52,-1.13,0.21,1785103632226.037
-0.916,-0.198,-0.298,0.52,-1.13,0.21,1785103632231.6392
-0.917,-0.197,-0.296,1.16,-1.19,0.27,1785103632241.7368
-0.917,-0.197,-0.293,1.77,-1.34,0.34,1785103632251.9941
-0.918,-0.197,-0.294,1.98,-1.25,0.46,1785103632262.439
-0.919,-0.197,-0.295,2.23,-1.13,0.73,1785103632275.882
-0.922,-0.199,-0.295,2.56,-0.98,0.85,1785103632281.312
-0.922,-0.2,-0.294,2.99,-0.95,1.07,1785103632291.46
-0.919,-0.199,-0.293,3.42,-1.04,1.43,1785103632301.7092
-0.919,-0.195,-0.298,3.54,-0.85,1.65,1785103632312.0972
-0.918,-0.192,-0.302,3.23,-0.49,1.8,1785103632322.487
-0.914,-0.193,-0.301,2.69,-0.24,1.89,1785103632335.698
-0.912,-0.194,-0.294,2.44,-0.12,1.83,1785103632341.3818
-0.912,-0.192,-0.286,2.87,-0.4,1.89,1785103632351.388
-0.913,-0.194,-0.289,3.75,-0.64,1.83,1785103632361.836
-0.915,-0.193,-0.293,4.18,-0.73,1.62,1785103632372.136
-0.913,-0.19,-0.297,4.06,-0.67,1.86,1785103632382.5122
-0.912,-0.192,-0.301,3.88,-0.46,2.26,1785103632395.8381
-0.912,-0.193,-0.297,3.66,-0.46,2.62,1785103632401.417
-0.914,-0.193,-0.297,3.51,-0.49,2.99,1785103632411.479
-0.914,-0.191,-0.299,3.27,-0.34,3.33,1785103632421.702
-0.918,-0.187,-0.302,2.84,-0.15,3.91,1785103632432.095
-0.92,-0.187,-0.303,1.83,0.21,4.55,1785103632442.604
-0.92,-0.19,-0.303,0.98,0.49,5.1,1785103632455.851
-0.919,-0.195,-0.3,0.73,0.64,5.58,1785103632461.549
-0.917,-0.199,-0.299,1.07,0.61,5.83,1785103632471.4949
-0.916,-0.198,-0.301,1.68,0.52,5.89,1785103632481.907
-0.916,-0.2,-0.3,2.01,0.73,5.65,1785103632492.374
-0.917,-0.203,-0.299,1.83,0.95,5.28,1785103632502.6838
-0.918,-0.206,-0.306,1.5,1.16,5.1,1785103632515.928
-0.919,-0.214,-0.288,1.22,0.89,4.64,1785103632521.5417
-0.91,-0.22,-0.295,0.55,0.49,3.54,1785103632531.6072
-0.905,-0.213,-0.296,1.07,1.53,3.94,1785103632542.02
-0.906,-0.211,-0.299,3.14,1.53,3.97,1785103632552.3389
-0.907,-0.201,-0.306,3.72,1.4,2.87,1785103632562.8801
-0.905,-0.198,-0.305,2.69,1.74,2.5,1785103632576.051
-0.907,-0.201,-0.297,1.37,1.98,2.35,1785103632581.64
-0.913,-0.206,-0.292,0.79,1.98,2.11,1785103632591.699
-0.915,-0.208,-0.292,0.58,2.04,2.01,1785103632602.034
-0.915,-0.21,-0.292,0.55,1.89,2.2,1785103632612.4092
-0.915,-0.208,-0.296,0.4,1.62,2.14,1785103632625.762
-0.916,-0.207,-0.297,-0.09,1.43,2.14,1785103632631.306
-0.915,-0.208,-0.298,-0.79,1.04,2.08,1785103632641.4211
-0.916,-0.207,-0.303,-1.07,0.95,1.5,1785103632651.71
-0.917,-0.21,-0.311,-1.31,0.85,1.1,1785103632662.088
-0.917,-0.21,-0.313,-2.23,0.89,0.89,1785103632672.4941
-0.916,-0.213,-0.314,-3.3,0.82,0.82,1785103632685.7158
-0.912,-0.215,-0.313,-3.94,0.92,0.58,1785103632691.3918
-0.912,-0.217,-0.316,-4.18,0.79,0.03,1785103632701.3882
-0.907,-0.213,-0.316,-4.67,0.79,-0.4,1785103632711.835
-0.903,-0.212,-0.314,-5.22,0.95,-0.73,1785103632722.183
-0.899,-0.212,-0.313,-5.71,1.22,-1.22,1785103632732.5708
-0.898,-0.214,-0.315,-5.89,1.31,-1.43,1785103632745.834
-0.896,-0.212,-0.316,-6.29,1.31,-1.86,1785103632751.457
-0.895,-0.211,-0.319,-7.02,1.62,-2.2,1785103632761.559
-0.899,-0.217,-0.319,-7.66,2.04,-2.56,1785103632771.8342
-0.9,-0.219,-0.315,-8.3,2.32,-2.44,1785103632782.227
-0.9,-0.218,-0.315,-8.15,2.53,-2.56,1785103632792.701
-0.901,-0.215,-0.311,-7.75,2.62,-2.9,1785103632805.85
-0.905,-0.213,-0.311,-7.63,2.81,-3.23,1785103632811.5671
-0.91,-0.213,-0.309,-7.81,2.96,-3.69,1785103632821.529
-0.913,-0.209,-0.304,-8.03,2.93,-3.94,1785103632831.933
-0.914,-0.206,-0.301,-8.33,3.02,-4.21,1785103632842.35
-0.918,-0.206,-0.298,-8.42,3.05,-4.67,1785103632852.68
-0.921,-0.204,-0.296,-8.67,2.96,-5.19,1785103632865.919
-0.921,-0.201,-0.294,-9.09,2.62,-5.83,1785103632871.598
-0.919,-0.198,-0.294,-9.43,2.47,-6.1,1785103632881.622
-0.918,-0.196,-0.294,-9.95,2.29,-6.16,1785103632892.1333
-0.914,-0.19,-0.292,-10.59,2.11,-6.23,1785103632902.504
-0.909,-0.186,-0.294,-11.23,1.98,-6.65,1785103632915.7668
-0.907,-0.183,-0.293,-12.09,1.8,-6.99,1785103632921.508
-0.909,-0.181,-0.29,-13.0,1.59,-7.26,1785103632931.654
-0.907,-0.181,-0.292,-13.25,1.53,-7.32,1785103632942.2268
-0.907,-0.183,-0.293,-13.49,1.37,-7.45,1785103632952.5938
-0.908,-0.182,-0.291,-13.37,1.31,-7.63,1785103632965.8591
-0.905,-0.183,-0.289,-12.6,0.89,-7.45,1785103632971.693
-0.902,-0.178,-0.288,-11.63,0.24,-7.23,1785103632981.848
-0.904,-0.172,-0.293,-10.62,-0.21,-6.84,1785103632992.3389
-0.908,-0.173,-0.297,-10.04,-0.52,-6.59,1785103633002.688
-0.914,-0.174,-0.302,-9.37,-0.92,-6.23,1785103633015.9731
-0.917,-0.172,-0.308,-8.55,-1.46,-5.58,1785103633021.582
-0.917,-0.17,-0.316,-8.15,-1.77,-4.7,1785103633031.652
-0.911,-0.169,-0.322,-8.33,-1.95,-3.85,1785103633042.072
-0.908,-0.169,-0.323,-8.97,-2.04,-3.14,1785103633052.413
-0.905,-0.169,-0.326,-9.64,-1.89,-2.53,1785103633065.65
-0.904,-0.171,-0.329,-10.59,-1.71,-1.92,1785103633071.3909
-0.901,-0.174,-0.331,-11.54,-1.62,-1.31,1785103633081.5417
-0.901,-0.177,-0.333,-12.12,-1.34,-0.79,1785103633092.122
-0.901,-0.181,-0.333,-12.21,-1.13,-0.61,1785103633102.45
-0.902,-0.186,-0.33,-11.6,-1.01,-0.24,1785103633115.7178
-0.903,-0.19,-0.329,-10.19,-0.92,0.09,1785103633121.497
-0.905,-0.192,-0.328,-8.61,-0.79,0.58,1785103633131.546
-0.907,-0.193,-0.329,-6.81,-0.73,0.98,1785103633142.005
-0.906,-0.195,-0.331,-5.1,-0.64,1.4,1785103633152.3252
-0.908,-0.195,-0.33,-3.66,-0.34,1.74,1785103633162.7268
-0.912,-0.193,-0.328,-2.53,0.03,1.89,1785103633176.0828
-0.922,-0.194,-0.329,-1.86,0.27,2.26,1785103633181.5723
-0.933,-0.195,-0.333,-1.25,0.64,2.62,1785103633191.759
-0.935,-0.197,-0.338,-0.85,1.1,2.87,1785103633201.969
-0.933,-0.197,-0.348,-0.52,1.62,2.78,1785103633212.3608
-0.929,-0.197,-0.346,-1.53,1.92,3.57,1785103633222.799
-0.917,-0.184,-0.341,-3.2,2.04,4.09,1785103633236.0078
-0.905,-0.172,-0.339,-5.62,2.56,3.75,1785103633241.827
-0.889,-0.167,-0.331,-9.16,3.27,3.08,1785103633251.6538
-0.882,-0.169,-0.318,-12.09,3.91,2.32,1785103633262.1838
-0.877,-0.179,-0.31,-14.04,4.49,1.19,1785103633272.619
-0.874,-0.195,-0.297,-14.8,5.19,0.4,1785103633285.917
-0.872,-0.21,-0.287,-13.34,5.4,-0.09,1785103633291.865
-0.878,-0.219,-0.283,-9.09,4.91,-0.79,1785103633301.734
-0.885,-0.215,-0.283,-3.27,3.75,-1.01,1785103633312.198
-0.895,-0.207,-0.289,2.66,2.59,-0.46,1785103633322.505
-0.898,-0.193,-0.302,7.32,1.43,-0.03,1785103633335.7551
-0.899,-0.178,-0.315,9.77,0.82,0.21,1785103633341.867
-0.904,-0.173,-0.326,9.46,0.92,0.52,1785103633351.4219
-0.911,-0.175,-0.324,7.11,1.22,0.55,1785103633361.849
-0.918,-0.179,-0.317,4.91,1.13,0.46,1785103633372.191
-0.923,-0.182,-0.31,3.57,1.01,0.34,1785103633382.5623
-0.923,-0.184,-0.312,2.9,0.92,0.18,1785103633395.942
-0.927,-0.185,-0.314,2.72,0.76,0.09,1785103633401.4841
-0.93,-0.185,-0.314,2.69,0.34,0.12,1785103633411.556
-0.93,-0.181,-0.313,2.99,-0.18,0.21,1785103633421.8318
-0.933,-0.178,-0.317,3.17,-0.64,0.12,1785103633432.358
-0.929,-0.176,-0.321,2.78,-1.07,0.03,1785103633442.7678
-0.924,-0.174,-0.325,1.92,-1.37,0.03,1785103633455.864
-0.919,-0.175,-0.326,0.58,-1.5,-0.15,1785103633461.636
-0.919,-0.175,-0.326,-0.7,-1.59,-0.12,1785103633471.566
-0.915,-0.174,-0.325,-1.65,-1.86,-0.09,1785103633481.951
-0.913,-0.176,-0.326,-2.69,-2.23,0.06,1785103633492.438
-0.912,-0.176,-0.324,-3.48,-2.5,0.7,1785103633502.6838
-0.907,-0.173,-0.324,-3.48,-2.5,0.7,1785103633515.9768
-0.9,-0.173,-0.326,-3.88,-2.47,0.98,1785103633521.58
-0.9,-0.175,-0.326,-3.94,-2.41,1.34,1785103633531.615
-0.896,-0.175,-0.325,-4.21,-2.44,2.08,1785103633542.14
-0.891,-0.175,-0.329,-4.06,-2.38,2.72,1785103633552.379
-0.89,-0.179,-0.329,-3.78,-2.04,2.84,1785103633562.874
-0.892,-0.184,-0.327,-3.51,-1.8,3.23,1785103633576.123
-0.896,-0.187,-0.328,-2.44,-1.68,3.57,1785103633581.67
-0.901,-0.185,-0.33,-0.85,-1.83,3.94,1785103633591.764
-0.902,-0.181,-0.336,0.52,-1.95,4.55,1785103633602.057
-0.904,-0.18,-0.339,0.92,-1.83,4.91,1785103633612.4978
-0.904,-0.178,-0.341,0.76,-1.83,5.07,1785103633625.791
-0.905,-0.179,-0.343,-0.06,-1.62,5.04,1785103633631.364
-0.904,-0.178,-0.342,-1.34,-1.43,4.97,1785103633641.567
-0.908,-0.182,-0.342,-2.59,-1.04,4.58,1785103633651.816
-0.907,-0.182,-0.336,-3.85,-0.64,4.3,1785103633662.1912
-0.904,-0.182,-0.329,-4.12,-0.61,4.43,1785103633672.534
-0.907,-0.183,-0.325,-3.63,-0.64,4.33,1785103633685.853
-0.91,-0.183,-0.325,-2.9,-0.76,4.18,1785103633691.561
-0.915,-0.187,-0.325,-2.23,-0.7,3.91,1785103633701.4512
-0.919,-0.191,-0.325,-1.53,-0.76,3.94,1785103633711.851
-0.924,-0.186,-0.324,-0.76,-1.04,4.03,1785103633722.2668
-0.923,-0.182,-0.33,0.0,-1.1,3.94,1785103633732.612
-0.923,-0.183,-0.342,-0.27,-0.89,3.45,1785103633745.857
-0.922,-0.188,-0.351,-1.65,-0.37,2.78,1785103633751.481
-0.925,-0.192,-0.354,-2.93,0.37,2.41,1785103633761.565
-0.923,-0.188,-0.349,-4.33,0.79,2.2,1785103633771.903
-0.922,-0.179,-0.339,-5.86,0.98,1.8,1785103633782.348
-0.921,-0.179,-0.333,-7.39,1.04,1.07,1785103633792.733
-0.917,-0.182,-0.33,-8.3,1.19,0.55,1785103633805.957
-0.912,-0.184,-0.327,-8.55,1.16,0.0,1785103633811.6548
-0.909,-0.191,-0.328,-7.48,1.16,-0.43,1785103633821.6208
-0.901,-0.188,-0.328,-6.01,0.98,-0.76,1785103633831.9968
-0.896,-0.185,-0.327,-4.0,0.7,-1.07,1785103633842.482
-0.89,-0.184,-0.327,-1.86,0.58,-1.4,1785103633852.8792
-0.885,-0.182,-0.328,-0.03,0.46,-1.77,1785103633866.027
-0.885,-0.179,-0.329,1.4,0.7,-2.2,1785103633871.649
-0.883,-0.176,-0.332,2.35,0.79,-2.2,1785103633881.6772
-0.882,-0.175,-0.331,2.75,1.28,-2.08,1785103633892.248
-0.88,-0.171,-0.331,3.05,1.46,-2.26,1785103633902.471
-0.883,-0.17,-0.327,3.08,1.53,-2.2,1785103633915.709
-0.889,-0.167,-0.324,2.41,1.5,-1.74,1785103633921.3079
-0.895,-0.166,-0.327,1.68,1.5,-1.28,1785103633931.3547
-0.898,-0.168,-0.333,0.82,1.62,-0.79,1785103633941.895
-0.894,-0.168,-0.332,0.03,1.56,-0.37,1785103633952.115
-0.894,-0.169,-0.329,-0.7,1.8,-0.21,1785103633962.526
-0.899,-0.167,-0.325,-1.19,1.8,0.0,1785103633975.869
-0.904,-0.169,-0.318,-1.46,1.56,-0.03,1785103633981.01
-0.913,-0.171,-0.319,-1.59,1.5,-0.27,1785103633991.383
-0.917,-0.171,-0.327,-1.77,1.22,-0.24,1785103634001.7761
-0.918,-0.17,-0.335,-2.08,0.89,-0.34,1785103634012.234
-0.919,-0.168,-0.34,-2.5,0.82,-0.58,1785103634022.5261
-0.913,-0.169,-0.339,-2.99,0.82,-0.95,1785103634035.914
-0.912,-0.171,-0.331,-3.42,0.79,-1.5,1785103634041.8079
-0.91,-0.167,-0.323,-3.63,0.49,-1.89,1785103634051.486
-0.907,-0.165,-0.318,-3.48,0.49,-2.26,1785103634061.9167
-0.907,-0.163,-0.319,-3.48,0.58,-2.47,1785103634072.328
-0.906,-0.162,-0.317,-2.87,0.21,-2.81,1785103634082.6602
-0.905,-0.16,-0.317,-1.89,-0.12,-2.99,1785103634095.988
-0.906,-0.159,-0.316,-0.95,-0.61,-2.81,1785103634101.513
-0.903,-0.16,-0.317,-0.37,-1.07,-2.47,1785103634111.574
-0.898,-0.158,-0.321,0.0,-1.53,-2.29,1785103634121.9531
-0.898,-0.155,-0.326,-0.21,-1.71,-1.89,1785103634132.3298
-0.897,-0.152,-0.326,-1.16,-1.98,-1.31,1785103634142.823
-0.897,-0.151,-0.325,-2.11,-2.08,-0.73,1785103634155.932
-0.898,-0.154,-0.329,-2.75,-2.23,-0.24,1785103634161.7349
-0.899,-0.157,-0.331,-3.33,-2.11,0.12,1785103634171.446
-0.9,-0.157,-0.331,-3.94,-2.26,0.76,1785103634182.028
-0.9,-0.157,-0.333,-4.06,-2.53,0.98,1785103634192.674
-0.904,-0.162,-0.337,-3.97,-2.35,1.16,1785103634202.844
-0.907,-0.168,-0.34,-4.12,-2.32,1.43,1785103634215.953
-0.91,-0.167,-0.344,-3.97,-2.44,1.59,1785103634221.334
-0.909,-0.169,-0.346,-3.81,-2.29,1.5,1785103634231.685
-0.91,-0.168,-0.348,-3.97,-2.04,1.71,1785103634242.2112
-0.912,-0.17,-0.349,-3.97,-1.8,1.68,1785103634252.446
-0.909,-0.17,-0.348,-3.39,-1.74,1.31,1785103634265.728
-0.91,-0.171,-0.349,-2.72,-1.4,0.98,1785103634271.3699
-0.912,-0.173,-0.349,-2.23,-1.13,0.73,1785103634281.2341
-0.912,-0.177,-0.346,-1.77,-0.85,0.52,1785103634291.6592
-0.913,-0.178,-0.344,-0.79,-0.73,0.4,1785103634301.883
-0.911,-0.173,-0.346,0.12,-0.61,0.27,1785103634312.587
-0.907,-0.172,-0.342,0.37,-0.49,0.34,1785103634326.049
-0.905,-0.172,-0.341,0.43,-0.27,0.43,1785103634331.46
-0.904,-0.172,-0.339,0.37,-0.12,0.49,1785103634341.6907
-0.903,-0.173,-0.34,0.27,0.15,0.49,1785103634351.8423
-0.905,-0.174,-0.337,0.15,0.4,0.55,1785103634362.2761
-0.906,-0.174,-0.333,0.21,0.58,0.67,1785103634372.583
-0.904,-0.172,-0.33,0.55,0.43,0.79,1785103634385.921
-0.904,-0.172,-0.331,0.85,0.24,0.64,1785103634391.7598
-0.903,-0.173,-0.332,0.73,0.15,0.64,1785103634401.546
-0.901,-0.172,-0.331,0.21,0.18,0.73,1785103634411.798
-0.903,-0.175,-0.332,0.03,0.21,0.49,1785103634422.34
-0.904,-0.177,-0.33,-0.21,0.34,0.34,1785103634432.7258
-0.903,-0.174,-0.329,-0.43,0.21,0.06,1785103634446.016
-0.902,-0.171,-0.33,-0.58,0.03,0.0,1785103634451.573
-0.902,-0.172,-0.331,-0.98,-0.09,-0.06,1785103634461.618
-0.905,-0.175,-0.331,-1.4,0.0,-0.24,1785103634471.998
-0.907,-0.176,-0.333,-1.53,0.03,-0.43,1785103634482.375
-0.91,-0.176,-0.333,-1.62,-0.24,-0.43,1785103634492.845
-0.91,-0.173,-0.332,-1.74,-0.4,-0.43,1785103634505.986
-0.91,-0.172,-0.331,-2.11,-0.55,-0.43,1785103634511.788
-0.909,-0.169,-0.33,-2.66,-0.55,-0.46,1785103634521.6738
-0.909,-0.171,-0.333,-2.99,-0.67,-0.67,1785103634532.0881
-0.911,-0.169,-0.333,-3.39,-0.67,-0.7,1785103634542.52
-0.909,-0.169,-0.334,-3.85,-0.73,-0.7,1785103634555.716
-0.911,-0.17,-0.332,-3.97,-0.61,-0.52,1785103634561.457
-0.909,-0.17,-0.329,-3.97,-0.64,-0.67,1785103634571.355
-0.908,-0.169,-0.329,-4.06,-0.7,-0.89,1785103634581.801
-0.909,-0.167,-0.329,-3.97,-0.76,-0.79,1785103634592.175
-0.906,-0.165,-0.328,-3.78,-0.79,-0.79,1785103634602.493
-0.906,-0.166,-0.329,-4.09,-0.76,-0.79,1785103634615.759
-0.906,-0.168,-0.329,-4.0,-0.82,-0.95,1785103634621.4248
-0.907,-0.166,-0.325,-4.03,-0.95,-1.04,1785103634631.498
-0.906,-0.162,-0.323,-4.06,-1.07,-0.92,1785103634641.9001
-0.906,-0.16,-0.322,-3.97,-1.19,-0.85,1785103634652.1853
-0.907,-0.162,-0.321,-4.06,-1.28,-0.98,1785103634662.5652
-0.908,-0.162,-0.321,-4.15,-1.4,-0.98,1785103634675.921
-0.907,-0.163,-0.322,-3.91,-1.53,-0.92,1785103634681.466
-0.906,-0.163,-0.319,-3.63,-1.74,-0.85,1785103634691.9941
-0.907,-0.162,-0.32,-3.2,-1.83,-0.7,1785103634701.901
-0.909,-0.16,-0.322,-3.11,-2.08,-0.46,1785103634712.3232
-0.909,-0.158,-0.323,-3.17,-2.32,-0.43,1785103634722.636
-0.912,-0.156,-0.323,-3.23,-2.44,-0.31,1785103634736.022
-0.914,-0.156,-0.322,-3.54,-2.56,-0.18,1785103634741.7622
-0.914,-0.156,-0.322,-3.63,-2.72,-0.06,1785103634751.6
-0.914,-0.155,-0.324,-3.88,-2.84,0.06,1785103634762.399
-0.915,-0.154,-0.326,-4.27,-3.02,0.06,1785103634772.327
-0.914,-0.155,-0.329,-4.7,-2.96,-0.03,1785103634782.82
-0.913,-0.159,-0.331,-5.07,-2.75,-0.03,1785103634796.0068
-0.913,-0.162,-0.332,-5.07,-2.75,-0.03,1785103634801.604
-0.913,-0.161,-0.331,-4.94,-2.66,0.21,1785103634811.678
-0.914,-0.161,-0.333,-4.36,-2.38,0.18,1785103634822.018
-0.911,-0.159,-0.333,-3.94,-2.23,0.31,1785103634832.437
-0.911,-0.157,-0.333,-3.51,-2.23,0.24,1785103634842.868
-0.909,-0.159,-0.33,-2.84,-2.08,0.06,1785103634856.024
-0.91,-0.159,-0.328,-2.41,-1.83,0.12,1785103634861.802
-0.911,-0.16,-0.328,-1.77,-1.89,0.24,1785103634871.69
-0.911,-0.161,-0.33,-0.98,-1.74,0.4,1785103634882.087
-0.91,-0.159,-0.33,-0.49,-1.56,0.52,1785103634892.5938
-0.908,-0.161,-0.33,-0.09,-1.16,0.76,1785103634905.829
-0.908,-0.163,-0.33,0.15,-1.1,0.82,1785103634911.4282
-0.907,-0.162,-0.332,0.61,-1.13,0.73,1785103634921.3818
-0.91,-0.162,-0.332,0.89,-1.01,0.67,1785103634931.825
-0.91,-0.159,-0.332,0.64,-1.04,0.85,1785103634942.26
-0.911,-0.158,-0.33,0.55,-0.82,0.85,1785103634952.544
-0.913,-0.157,-0.328,0.52,-0.49,0.92,1785103634965.8662
-0.913,-0.157,-0.327,0.64,-0.52,1.13,1785103634971.499
-0.914,-0.162,-0.329,0.58,-0.24,1.25,1785103634981.455
-0.913,-0.162,-0.327,0.58,-0.06,1.28,1785103634991.991
-0.912,-0.163,-0.326,0.89,0.03,1.16,1785103635002.2048
-0.91,-0.163,-0.323,1.46,0.12,1.19,1785103635012.635
-0.909,-0.161,-0.318,2.11,-0.24,1.04,1785103635025.967
-0.91,-0.156,-0.322,2.53,-0.43,1.1,1785103635031.562
-0.909,-0.158,-0.327,2.17,-0.34,0.92,1785103635041.6262
-0.91,-0.162,-0.325,1.37,-0.21,0.64,1785103635051.91
-0.91,-0.167,-0.327,0.64,-0.09,0.34,1785103635062.3628
-0.911,-0.167,-0.325,0.37,0.18,0.21,1785103635072.6973
-0.912,-0.167,-0.323,0.61,0.12,0.15,1785103635085.9849
-0.911,-0.167,-0.322,0.67,-0.15,0.52,1785103635091.82
-0.91,-0.162,-0.322,0.52,-0.15,0.7,1785103635101.582
-0.908,-0.16,-0.323,0.18,-0.09,0.55,1785103635112.0652
-0.909,-0.165,-0.323,-0.37,0.03,0.31,1785103635122.4312
-0.911,-0.165,-0.323,-0.85,0.24,0.09,1785103635132.7988
-0.912,-0.168,-0.324,-0.82,0.18,0.06,1785103635146.058
-0.912,-0.168,-0.322,-0.52,0.06,0.21,1785103635151.648
-0.912,-0.166,-0.321,-0.09,0.0,0.24,1785103635161.728
-0.912,-0.167,-0.322,-0.03,-0.12,0.15,1785103635171.901
-0.912,-0.167,-0.32,-0.24,-0.37,0.27,1785103635182.473
-0.909,-0.165,-0.316,-0.55,-0.58,0.31,1785103635195.789
-0.907,-0.162,-0.317,-0.92,-0.64,0.24,1785103635201.3591
-0.911,-0.157,-0.319,-1.56,-0.73,-0.03,1785103635211.431
-0.914,-0.158,-0.316,-2.44,-0.85,-0.15,1785103635221.7952
-0.915,-0.158,-0.315,-3.23,-1.01,-0.27,1785103635232.209
-0.915,-0.159,-0.315,-3.81,-1.19,-0.15,1785103635242.45
-0.914,-0.164,-0.314,-4.18,-1.22,-0.15,1785103635255.637
-0.914,-0.167,-0.316,-4.18,-1.4,-0.31,1785103635261.243
-0.914,-0.166,-0.317,-3.72,-1.59,-0.46,1785103635271.307
-0.919,-0.162,-0.317,-3.66,-2.01,-0.55,1785103635281.666
-0.92,-0.156,-0.319,-4.03,-2.53,-0.37,1785103635292.079
-0.926,-0.153,-0.318,-4.67,-2.87,-0.18,1785103635302.583
-0.937,-0.153,-0.314,-5.74,-3.27,0.0,1785103635315.896
-0.95,-0.154,-0.309,-6.81,-4.0,0.7,1785103635321.522
-0.964,-0.153,-0.308,-7.75,-5.01,1.43,1785103635331.5781
-0.973,-0.152,-0.312,-8.73,-6.13,2.32,1785103635342.06
-0.969,-0.152,-0.318,-9.67,-7.66,3.81,1785103635352.349
-0.966,-0.164,-0.314,-11.54,-9.98,5.77,1785103635362.897
-0.985,-0.197,-0.302,-15.02,-12.88,7.69,1785103635376.124
-0.99,-0.275,-0.281,-18.71,-16.42,8.39,1785103635381.9258
-0.972,-0.37,-0.272,-18.16,-19.87,7.75,1785103635392.318
-0.946,-0.442,-0.252,-12.42,-24.6,7.35,1785103635402.736
-0.929,-0.504,-0.3,-3.94,-30.24,5.07,1785103635416.028
-0.899,-0.499,-0.368,0.06,-33.54,3.11,1785103635421.8152
-0.875,-0.495,-0.435,-1.62,-33.42,-3.3,1785103635431.958
-0.857,-0.483,-0.44,-12.6,-30.55,-14.47,1785103635442.7002
-0.843,-0.503,-0.398,-29.51,-26.18,-25.15,1785103635455.8599
-0.852,-0.54,-0.346,-46.54,-21.73,-34.15,1785103635461.8982
-0.864,-0.606,-0.316,-58.6,-19.53,-39.34,1785103635472.285
-0.868,-0.684,-0.319,-64.46,-19.29,-41.08,1785103635485.517
-0.854,-0.732,-0.353,-66.99,-18.68,-40.44,1785103635491.925
-0.84,-0.763,-0.402,-70.1,-16.69,-39.77,1785103635501.986
-0.823,-0.781,-0.428,-77.03,-13.64,-40.19,1785103635512.697
-0.812,-0.782,-0.411,-88.05,-10.5,-42.36,1785103635525.9731
-0.81,-0.759,-0.374,-101.72,-7.32,-46.21,1785103635531.831
-0.818,-0.755,-0.365,-114.75,-3.57,-52.86,1785103635542.4958
-0.85,-0.772,-0.364,-128.09,0.31,-62.84,1785103635555.74
-0.891,-0.814,-0.374,-140.39,4.58,-71.54,1785103635561.6792
-0.947,-0.875,-0.395,-147.77,9.67,-77.76,1785103635572.0918
-0.987,-0.932,-0.407,-148.66,14.28,-82.74,1785103635582.906
-1.011,-0.954,-0.386,-143.56,17.67,-87.22,1785103635596.107
-1.055,-0.959,-0.352,-131.96,20.57,-90.98,1785103635602.022
-1.138,-0.94,-0.324,-116.82,22.37,-95.46,1785103635612.802
-1.211,-0.912,-0.34,-102.88,23.74,-101.11,1785103635626.313
-1.268,-0.861,-0.376,-95.55,26.12,-109.16,1785103635632.2717
-1.32,-0.786,-0.391,-98.03,30.06,-120.37,1785103635643.96
-1.376,-0.754,-0.396,-106.91,33.54,-134.71,1785103635656.3452
-1.427,-0.819,-0.394,-117.74,37.42,-146.34,1785103635662.164
-1.447,-0.926,-0.335,-121.8,41.87,-155.58,1785103635675.585
-1.435,-1.005,-0.269,-111.33,43.28,-165.41,1785103635681.468
-1.416,-1.005,-0.198,-89.69,41.14,-176.95,1785103635692.482
-1.404,-0.937,-0.172,-64.36,36.07,-189.28,1785103635705.683
-1.379,-0.847,-0.218,-42.7,29.88,-201.39,1785103635711.6821
-1.357,-0.742,-0.267,-31.56,25.64,-213.23,1785103635722.376
-1.328,-0.688,-0.325,-31.77,23.07,-222.42,1785103635735.5862
-1.319,-0.669,-0.366,-40.62,23.68,-230.9,1785103635741.833
-1.317,-0.652,-0.374,-53.41,25.3,-237.74,1785103635752.269
-1.285,-0.676,-0.402,-67.32,26.95,-240.85,1785103635765.5981
-1.253,-0.703,-0.416,-79.01,29.51,-244.06,1785103635771.4749
-1.185,-0.745,-0.483,-81.55,29.24,-247.51,1785103635782.2778
-1.168,-0.703,-0.554,-88.5,30.88,-252.63,1785103635795.585
-1.121,-0.765,-0.592,-94.67,35.31,-253.52,1785103635801.467
-1.099,-0.738,-0.587,-105.69,37.75,-257.03,1785103635812.33
-1.051,-0.747,-0.591,-114.47,42.3,-256.81,1785103635825.6277
-1.028,-0.702,-0.627,-119.57,47.88,-255.68,1785103635831.531
-1.006,-0.662,-0.675,-118.96,54.63,-249.06,1785103635842.655
-0.996,-0.656,-0.759,-113.22,60.88,-242.99,1785103635855.8718
-1.003,-0.662,-0.817,-105.66,68.15,-236.98,1785103635861.8328
-1.028,-0.706,-0.804,-88.96,73.67,-228.4,1785103635872.687
-0.999,-0.734,-0.831,-64.82,73.46,-218.54,1785103635885.925
-1.025,-0.723,-0.768,-43.52,74.92,-210.46,1785103635892.274
-1.001,-0.757,-0.803,-18.34,72.94,-202.43,1785103635902.653
-0.979,-0.645,-0.828,-8.97,72.6,-197.3,1785103635915.946
-0.935,-0.604,-0.843,-2.56,73.09,-186.77,1785103635921.865
-0.881,-0.572,-0.869,-2.59,71.32,-179.75,1785103635932.338
-0.831,-0.529,-0.902,-7.9,71.2,-175.54,1785103635945.6372
-0.771,-0.502,-0.917,-16.3,71.78,-170.87,1785103635951.584
-0.68,-0.467,-0.969,-24.23,74.25,-167.24,1785103635962.2788
-0.632,-0.435,-1.011,-41.47,79.74,-162.24,1785103635975.591
-0.574,-0.456,-1.04,-64.97,87.37,-155.67,1785103635981.405
-0.538,-0.507,-1.04,-87.65,94.76,-150.0,1785103635992.306
-0.528,-0.55,-0.975,-102.73,103.73,-142.86,1785103636005.628
-0.495,-0.587,-0.909,-106.63,109.38,-134.19,1785103636011.5718
-0.46,-0.584,-0.879,-101.5,113.41,-125.86,1785103636022.686
-0.431,-0.556,-0.86,-93.87,117.5,-117.86,1785103636035.969
-0.431,-0.556,-0.86,-86.83,120.46,-110.63,1785103636042.1409
-0.418,-0.552,-0.868,-81.21,123.97,-103.15,1785103636055.403
-0.414,-0.561,-0.892,-74.95,127.38,-95.13,1785103636061.423
-0.4,-0.602,-0.901,-67.48,129.89,-87.95,1785103636072.179
-0.372,-0.626,-0.879,-67.48,129.89,-87.95,1785103636085.4558
-0.325,-0.617,-0.869,-59.42,131.26,-81.55,1785103636091.561
-0.288,-0.579,-0.869,-54.51,132.18,-75.78,1785103636102.083
-0.256,-0.542,-0.859,-55.33,133.37,-70.38,1785103636112.8618
-0.228,-0.51,-0.847,-60.67,137.09,-66.5,1785103636126.359
-0.2,-0.496,-0.792,-64.88,140.93,-61.77,1785103636132.0388
-0.157,-0.511,-0.725,-64.06,142.34,-55.45,1785103636142.9607
-0.111,-0.513,-0.654,-58.66,141.39,-49.17,1785103636156.049
-0.052,-0.491,-0.62,-49.71,138.71,-42.18,1785103636162.158
-0.016,-0.493,-0.604,-38.94,137.27,-35.43,1785103636172.8152
0.006,-0.49,-0.588,-29.3,136.27,-28.47,1785103636186.2122
0.031,-0.461,-0.567,-20.36,135.41,-22.0,1785103636192.279
0.06,-0.438,-0.57,-11.96,134.92,-17.03,1785103636202.7112
0.09,-0.386,-0.585,-9.95,135.75,-13.34,1785103636215.986
0.121,-0.329,-0.637,-15.63,138.13,-9.7,1785103636222.2688
0.129,-0.306,-0.685,-29.91,142.7,-5.55,1785103636232.482
0.126,-0.317,-0.704,-49.9,149.72,-2.35,1785103636245.7449
0.116,-0.372,-0.71,-68.85,157.84,-0.55,1785103636251.657
0.14,-0.427,-0.723,-78.62,165.07,-0.64,1785103636262.199
0.159,-0.446,-0.689,-87.25,170.69,-0.37,1785103636273.4849
