ax,ay,az,gx,gy,gz,timestamp_ms
-0.912,-0.262,-0.169,36.07,-3.23,-7.39,1785103550714.872
-0.909,-0.234,-0.181,42.18,-4.85,-8.0,1785103550728.128
-0.902,-0.2,-0.206,45.41,-6.5,-7.54,1785103550728.6882
-0.893,-0.175,-0.228,43.95,-7.26,-6.9,1785103550729.2202
-0.884,-0.167,-0.242,37.78,-6.96,-6.68,1785103550729.818
-0.88,-0.175,-0.24,29.02,-6.41,-6.68,1785103550730.377
-0.868,-0.179,-0.227,18.71,-6.04,-6.44,1785103550730.851
-0.861,-0.167,-0.216,7.51,-5.92,-6.5,1785103550731.322
-0.862,-0.155,-0.218,-4.64,-5.25,-7.32,1785103550731.7852
-0.877,-0.164,-0.235,-17.82,-2.87,-9.8,1785103550732.2722
-0.897,-0.183,-0.226,-30.43,0.21,-12.57,1785103550732.7412
-0.916,-0.208,-0.206,-37.81,2.35,-13.7,1785103550733.238
-0.934,-0.246,-0.185,-37.14,3.85,-13.67,1785103550733.707
-0.946,-0.297,-0.159,-29.42,4.55,-13.25,1785103550734.219
-0.958,-0.339,-0.131,-16.05,4.03,-11.93,1785103550734.6921
-0.973,-0.364,-0.106,1.98,2.23,-9.67,1785103550735.1501
-0.983,-0.362,-0.091,22.0,-1.04,-7.35,1785103550735.595
-0.98,-0.337,-0.113,40.5,-4.91,-5.52,1785103550735.9822
-0.965,-0.304,-0.154,52.89,-7.93,-4.06,1785103550736.38
-0.948,-0.271,-0.184,56.73,-9.77,-2.75,1785103550736.768
-0.924,-0.233,-0.208,52.77,-10.47,-1.83,1785103550737.16
-0.904,-0.2,-0.24,41.38,-10.35,-2.04,1785103550737.54
-0.896,-0.182,-0.275,22.43,-8.7,-3.69,1785103550737.925
-0.903,-0.177,-0.283,-2.41,-5.52,-5.83,1785103550738.308
-0.912,-0.193,-0.27,-28.26,-1.83,-7.81,1785103550738.697
-0.916,-0.215,-0.246,-52.1,1.65,-10.07,1785103550739.1008
-0.918,-0.26,-0.214,-70.35,4.36,-12.54,1785103550739.499
-0.924,-0.327,-0.175,-80.08,5.4,-14.4,1785103550739.887
-0.921,-0.377,-0.15,-79.65,4.0,-14.74,1785103550740.268
-0.912,-0.391,-0.164,-70.99,1.22,-15.26,1785103550740.6562
-0.9,-0.386,-0.18,-59.72,-1.71,-17.06,1785103550741.063
-0.897,-0.409,-0.18,-48.71,-4.0,-20.08,1785103550741.463
-0.909,-0.46,-0.192,-36.13,-6.5,-22.95,1785103550741.7942
-0.92,-0.488,-0.213,-21.85,-10.01,-23.5,1785103550742.1382
-0.923,-0.458,-0.211,-7.93,-13.67,-22.61,1785103550742.493
-0.932,-0.365,-0.188,3.63,-19.17,-19.93,1785103550742.827
-0.927,-0.215,-0.132,9.52,-25.91,-16.72,1785103550743.157
-0.915,-0.052,-0.119,6.23,-30.52,-13.15,1785103550743.4858
-0.886,0.03,-0.168,-12.27,-26.83,-11.23,1785103550743.823
-0.896,0.018,-0.22,-48.68,-17.94,-16.33,1785103550744.1511
-0.922,-0.097,-0.216,-89.82,-6.62,-22.4,1785103550744.4912
-0.956,-0.236,-0.146,-118.56,3.45,-27.77,1785103550744.838
-0.988,-0.334,-0.078,-125.8,6.9,-30.34,1785103550745.169
-0.992,-0.384,-0.045,-114.17,4.94,-28.6,1785103550745.501
-0.987,-0.409,-0.038,-89.94,0.52,-24.72,1785103550745.8298
-0.978,-0.398,-0.05,-59.88,-5.19,-19.68,1785103550746.1682
-0.958,-0.349,-0.08,-29.24,-11.26,-14.1,1785103550746.4968
-0.938,-0.294,-0.13,-3.81,-15.38,-9.25,1785103550746.826
-0.918,-0.248,-0.164,10.25,-17.06,-6.26,1785103550747.16
-0.892,-0.218,-0.176,13.46,-16.11,-4.76,1785103550747.494
-0.871,-0.219,-0.192,10.07,-12.97,-4.12,1785103550747.8171
-0.867,-0.243,-0.215,2.84,-8.3,-4.06,1785103550748.1448
-0.878,-0.29,-0.231,-4.82,-3.81,-4.58,1785103550748.488
-0.889,-0.336,-0.241,-8.09,-0.64,-4.82,1785103550748.81
-0.9,-0.35,-0.247,-5.65,-0.24,-4.79,1785103550749.144
-0.908,-0.343,-0.259,-1.1,-1.5,-4.64,1785103550749.554
-0.92,-0.327,-0.278,0.89,-2.5,-4.58,1785103550749.883
-0.925,-0.323,-0.297,-0.95,-2.87,-3.66,1785103550750.1702
-0.922,-0.33,-0.307,-4.82,-2.53,-3.3,1785103550750.46
-0.917,-0.335,-0.302,-9.67,-1.68,-4.0,1785103550750.747
-0.918,-0.336,-0.29,-14.22,-1.16,-5.89,1785103550751.028
-0.9,-0.361,-0.274,-17.21,0.24,-5.25,1785103550751.323
-0.912,-0.352,-0.267,-16.54,2.01,-7.6,1785103550751.6128
-0.908,-0.351,-0.27,-15.69,2.47,-9.16,1785103550751.8962
-0.904,-0.345,-0.268,-16.51,3.6,-10.65,1785103550752.1921
-0.91,-0.334,-0.27,-17.55,4.64,-12.02,1785103550752.486
-0.913,-0.325,-0.256,-19.65,5.34,-12.54,1785103550752.7822
-0.912,-0.317,-0.248,-21.97,5.86,-13.49,1785103550753.071
-0.907,-0.307,-0.242,-24.29,6.07,-14.74,1785103550753.366
-0.906,-0.291,-0.233,-27.41,6.38,-16.08,1785103550753.668
-0.908,-0.279,-0.216,-30.52,6.44,-17.73,1785103550753.9622
-0.907,-0.275,-0.202,-32.87,5.89,-19.38,1785103550754.2488
-0.911,-0.279,-0.193,-33.97,5.28,-20.63,1785103550754.5369
-0.909,-0.281,-0.181,-34.09,4.33,-20.72,1785103550754.8218
-0.904,-0.279,-0.176,-32.5,3.23,-21.0,1785103550755.106
-0.9,-0.274,-0.174,-30.12,1.89,-21.58,1785103550755.392
-0.897,-0.269,-0.168,-27.53,0.43,-21.7,1785103550755.685
-0.898,-0.262,-0.172,-24.84,-1.34,-21.42,1785103550755.976
-0.888,-0.259,-0.198,-22.06,-2.66,-21.18,1785103550756.259
-0.875,-0.249,-0.218,-20.26,-1.53,-21.76,1785103550756.542
-0.881,-0.256,-0.216,-19.07,0.82,-22.8,1785103550756.835
-0.886,-0.272,-0.2,-16.45,2.04,-22.16,1785103550757.1467
-0.89,-0.287,-0.187,-10.44,3.63,-20.81,1785103550757.4148
-0.905,-0.301,-0.175,-2.14,4.61,-18.98,1785103550757.671
-0.927,-0.312,-0.165,5.95,5.01,-16.82,1785103550757.9219
-0.942,-0.321,-0.168,13.92,4.97,-14.65,1785103550758.1738
-0.947,-0.326,-0.185,21.24,4.94,-12.91,1785103550758.431
-0.956,-0.325,-0.2,26.95,4.43,-11.63,1785103550758.686
-0.956,-0.325,-0.2,30.79,3.33,-11.23,1785103550758.9363
-0.974,-0.325,-0.198,33.2,2.23,-11.38,1785103550759.188
-0.988,-0.333,-0.205,33.23,1.62,-11.57,1785103550759.443
-1.001,-0.338,-0.22,30.27,1.43,-11.63,1785103550759.697
-1.02,-0.34,-0.233,30.27,1.43,-11.63,1785103550759.947
-1.03,-0.34,-0.242,24.48,1.74,-11.29,1785103550760.206
-1.027,-0.348,-0.244,16.72,2.47,-11.17,1785103550760.4648
-1.019,-0.35,-0.237,7.9,3.02,-11.08,1785103550760.725
-1.007,-0.344,-0.231,-0.79,3.17,-10.74,1785103550760.9758
-0.998,-0.348,-0.218,-9.16,3.3,-11.17,1785103550761.229
-0.99,-0.36,-0.204,-16.17,2.96,-12.09,1785103550761.483
-0.981,-0.373,-0.197,-19.9,2.2,-12.91,1785103550761.729
-0.973,-0.377,-0.192,-20.94,0.92,-13.55,1785103550761.983
-0.962,-0.384,-0.18,-20.05,-0.82,-13.79,1785103550762.239
-0.948,-0.382,-0.172,-17.55,-3.02,-13.73,1785103550762.494
-0.934,-0.372,-0.167,-14.77,-5.52,-13.52,1785103550762.742
-0.918,-0.36,-0.163,-13.95,-7.63,-13.61,1785103550762.9968
-0.905,-0.351,-0.175,-15.23,-8.76,-13.79,1785103550763.242
-0.898,-0.348,-0.184,-18.68,-9.13,-14.04,1785103550763.469
-0.894,-0.355,-0.188,-23.9,-9.28,-13.98,1785103550763.701
-0.893,-0.375,-0.197,-29.79,-9.4,-13.67,1785103550763.9392
-0.894,-0.386,-0.206,-37.48,-9.77,-13.73,1785103550764.1768
-0.883,-0.386,-0.21,-46.21,-9.86,-13.52,1785103550764.4119
-0.873,-0.383,-0.207,-53.87,-9.52,-13.37,1785103550764.673
-0.866,-0.38,-0.207,-60.49,-9.06,-12.91,1785103550764.926
-0.858,-0.375,-0.224,-66.29,-7.23,-12.6,1785103550765.17
-0.859,-0.371,-0.241,-72.08,-4.85,-12.33,1785103550765.416
-0.856,-0.374,-0.228,-76.33,-3.81,-12.15,1785103550765.6519
-0.847,-0.392,-0.216,-75.62,-3.48,-11.84,1785103550765.889
-0.845,-0.418,-0.209,-69.58,-2.87,-11.78,1785103550766.123
-0.85,-0.445,-0.188,-60.37,-3.33,-12.15,1785103550766.3638
-0.837,-0.469,-0.164,-48.92,-4.55,-12.15,1785103550766.6108
-0.791,-0.511,-0.174,-34.06,-6.65,-10.74,1785103550766.8428
-0.679,-0.596,-0.223,-19.41,-13.34,-6.23,1785103550767.082
-0.587,-0.722,-0.283,-3.27,-23.96,-1.13,1785103550767.318
-0.633,-0.816,-0.322,22.34,-38.24,8.0,1785103550767.5562
-0.77,-0.808,-0.441,58.57,-59.27,20.91,1785103550767.7878
-0.901,-0.549,-0.593,87.44,-56.34,14.62,1785103550768.0269
-0.964,-0.343,-0.67,98.97,-33.6,2.66,1785103550768.279
-0.841,-0.331,-0.622,96.04,-3.48,-4.27,1785103550768.5251
-0.652,-0.394,-0.536,85.85,22.06,-8.27,1785103550768.7622
-0.61,-0.432,-0.485,70.47,37.9,-12.05,1785103550769.022
-0.647,-0.428,-0.469,53.16,51.09,-15.53,1785103550769.313
-0.688,-0.449,-0.429,38.24,65.71,-20.39,1785103550769.578
-0.758,-0.45,-0.392,26.83,76.78,-22.37,1785103550769.823
-0.771,-0.464,-0.329,20.84,82.19,-21.15,1785103550770.064
-0.788,-0.465,-0.265,22.58,82.95,-19.17,1785103550770.304
-0.753,-0.446,-0.219,28.66,79.81,-17.37,1785103550770.5432
-0.742,-0.4,-0.168,34.82,74.5,-14.98,1785103550770.784
-0.733,-0.397,-0.128,41.14,65.65,-7.48,1785103550771.024
-0.688,-0.426,-0.102,49.29,56.22,0.12,1785103550771.2432
-0.645,-0.464,-0.077,59.69,47.09,6.5,1785103550771.4692
-0.632,-0.466,-0.079,72.45,37.9,12.45,1785103550771.71
-0.697,-0.381,-0.112,82.16,28.44,14.71,1785103550771.938
-0.776,-0.304,-0.175,82.34,20.08,16.94,1785103550772.157
-0.803,-0.271,-0.217,69.98,14.98,19.04,1785103550772.385
-0.793,-0.288,-0.227,51.91,13.73,21.39,1785103550772.617
-0.79,-0.325,-0.234,34.82,13.73,24.78,1785103550772.834
-0.814,-0.351,-0.229,20.36,13.0,26.98,1785103550773.0579
-0.846,-0.364,-0.217,8.33,11.66,28.41,1785103550773.276
-0.871,-0.363,-0.203,-1.77,9.77,29.63,1785103550773.4932
-0.888,-0.352,-0.198,-9.55,6.71,30.58,1785103550773.704
-0.907,-0.345,-0.201,-15.63,3.6,31.43,1785103550773.9258
-0.929,-0.332,-0.211,-21.21,0.15,32.35,1785103550774.146
-0.952,-0.327,-0.239,-26.89,-3.3,33.27,1785103550774.3628
-0.977,-0.344,-0.269,-32.78,-6.96,34.49,1785103550774.582
-0.997,-0.398,-0.293,-38.0,-12.42,38.09,1785103550774.806
-1.017,-0.441,-0.324,-38.85,-18.28,42.39,1785103550775.0298
-1.034,-0.476,-0.368,-34.73,-23.71,46.05,1785103550775.246
-1.045,-0.476,-0.389,-28.93,-28.57,47.76,1785103550775.4712
-1.009,-0.461,-0.392,-21.33,-32.47,48.49,1785103550775.697
-0.97,-0.442,-0.398,-11.93,-33.6,45.78,1785103550775.932
-0.947,-0.439,-0.394,-3.97,-31.77,41.26,1785103550776.155
-0.913,-0.443,-0.378,1.56,-29.08,35.34,1785103550776.3928
-0.893,-0.422,-0.373,4.79,-25.24,26.03,1785103550776.636
-0.899,-0.419,-0.363,5.83,-20.02,18.98,1785103550776.854
-0.874,-0.412,-0.359,6.29,-14.92,13.12,1785103550777.076
-0.844,-0.373,-0.375,5.98,-9.61,4.55,1785103550777.282
-0.839,-0.339,-0.377,1.34,-4.15,-4.15,1785103550777.48
-0.845,-0.307,-0.349,-8.58,0.7,-9.92,1785103550777.6902
-0.84,-0.295,-0.313,-18.77,3.57,-10.83,1785103550777.896
-0.83,-0.306,-0.278,-26.58,4.46,-9.77,1785103550778.097
-0.796,-0.291,-0.238,-38.76,4.49,-6.68,1785103550778.5
-0.793,-0.289,-0.217,-43.34,4.82,-5.01,1785103550778.699
-0.909,-0.212,-0.323,-5.07,-1.95,6.13,1785103550779.0781
-0.909,-0.211,-0.317,-5.25,-1.74,5.92,1785103550779.325
-0.909,-0.213,-0.315,-5.43,-1.43,5.49,1785103550779.5269
-0.912,-0.215,-0.315,-5.95,-1.16,5.07,1785103550779.726
-0.912,-0.218,-0.31,-5.8,-0.7,4.58,1785103550789.712
-0.913,-0.224,-0.308,-4.94,-0.52,4.12,1785103550800.173
-0.91,-0.224,-0.308,-4.06,-0.31,3.97,1785103550810.501
-0.906,-0.222,-0.306,-3.2,-0.4,3.88,1785103550820.91
-0.904,-0.217,-0.305,-2.59,-0.31,3.63,1785103550834.1638
-0.904,-0.214,-0.3,-2.69,-0.21,3.36,1785103550839.585
-0.907,-0.217,-0.296,-2.72,-0.21,3.11,1785103550849.8618
-0.911,-0.218,-0.292,-2.32,-0.18,2.93,1785103550860.304
-0.911,-0.216,-0.295,-1.8,-0.27,2.75,1785103550870.6711
-0.912,-0.213,-0.296,-1.4,-0.27,2.53,1785103550881.064
-0.91,-0.212,-0.294,-1.65,-0.18,2.17,1785103550894.446
-0.909,-0.212,-0.295,-1.95,-0.34,1.92,1785103550899.79
-0.907,-0.213,-0.294,-2.53,-0.46,1.56,1785103550909.999
-0.911,-0.212,-0.293,-3.11,-0.49,1.16,1785103550920.372
-0.909,-0.21,-0.294,-3.97,-0.7,0.98,1785103550930.804
-0.908,-0.207,-0.296,-5.43,-0.98,0.73,1785103550941.267
-0.909,-0.204,-0.302,-7.39,-0.82,0.24,1785103550954.582
-0.91,-0.203,-0.304,-9.49,-0.58,-0.12,1785103550960.303
-0.911,-0.208,-0.304,-11.29,-0.49,-0.55,1785103550970.318
-0.912,-0.207,-0.306,-12.63,-0.61,-1.13,1785103550980.8782
-0.911,-0.206,-0.303,-13.92,-0.61,-1.43,1785103550991.323
-0.911,-0.209,-0.3,-14.68,-0.52,-1.95,1785103551004.535
-0.911,-0.21,-0.298,-14.74,-0.7,-2.26,1785103551010.3792
-0.909,-0.209,-0.299,-14.16,-1.07,-2.59,1785103551020.442
-0.907,-0.208,-0.306,-13.34,-1.22,-2.87,1785103551030.96
-0.907,-0.208,-0.308,-12.42,-1.13,-3.3,1785103551041.418
-0.905,-0.211,-0.309,-11.2,-1.1,-3.85,1785103551054.699
-0.908,-0.214,-0.31,-9.86,-1.01,-3.97,1785103551060.511
-0.909,-0.208,-0.31,-8.03,-1.07,-3.91,1785103551070.179
-0.91,-0.205,-0.311,-6.32,-1.07,-3.97,1785103551080.59
-0.908,-0.204,-0.313,-5.07,-1.07,-3.94,1785103551091.24
-0.905,-0.201,-0.315,-4.27,-0.92,-3.85,1785103551104.417
-0.903,-0.2,-0.319,-3.69,-0.64,-3.85,1785103551110.2522
-0.902,-0.201,-0.321,-2.99,-0.49,-3.91,1785103551120.0981
-0.899,-0.2,-0.322,-2.35,-0.12,-3.81,1785103551130.4487
-0.899,-0.199,-0.322,-1.71,0.15,-3.78,1785103551140.8232
-0.899,-0.2,-0.321,-0.95,0.27,-3.88,1785103551151.212
-0.899,-0.199,-0.323,0.34,0.27,-3.88,1785103551164.5
-0.901,-0.202,-0.325,1.53,0.4,-3.69,1785103551170.316
-0.907,-0.2,-0.323,2.17,0.58,-3.36,1785103551180.22
-0.906,-0.196,-0.324,2.5,0.76,-2.84,1785103551190.552
-0.907,-0.198,-0.328,2.75,1.25,-2.47,1785103551200.9631
-0.91,-0.197,-0.326,2.59,1.4,-2.23,1785103551211.339
-0.91,-0.197,-0.326,2.26,1.62,-1.89,1785103551224.565
-0.909,-0.194,-0.325,2.01,1.89,-1.59,1785103551230.2751
-0.911,-0.197,-0.32,1.8,2.08,-1.4,1785103551240.1072
-0.912,-0.198,-0.316,1.83,2.04,-1.34,1785103551250.6309
-0.914,-0.2,-0.314,1.8,2.01,-1.25,1785103551261.042
-0.919,-0.198,-0.309,1.8,2.01,-1.25,1785103551271.359
-0.919,-0.2,-0.309,2.01,1.98,-1.28,1785103551284.701
-0.922,-0.202,-0.308,2.62,1.83,-1.37,1785103551290.349
-0.923,-0.204,-0.306,3.05,1.74,-1.43,1785103551300.321
-0.921,-0.204,-0.306,3.45,1.4,-1.37,1785103551310.7231
-0.916,-0.203,-0.306,3.72,1.1,-1.19,1785103551321.0208
-0.91,-0.201,-0.305,3.72,0.82,-1.07,1785103551334.2788
-0.909,-0.202,-0.303,3.75,0.58,-1.01,1785103551339.937
-0.906,-0.198,-0.299,3.57,0.24,-0.85,1785103551350.015
-0.904,-0.195,-0.299,3.02,-0.09,-0.64,1785103551360.493
-0.901,-0.191,-0.302,2.11,-0.21,-0.27,1785103551370.777
-0.902,-0.194,-0.304,0.95,-0.34,0.21,1785103551381.737
-0.898,-0.2,-0.303,-0.21,-0.46,0.92,1785103551394.371
-0.895,-0.202,-0.297,-1.16,-0.73,1.5,1785103551399.773
-0.893,-0.207,-0.298,-1.62,-1.04,2.17,1785103551409.952
-0.889,-0.209,-0.299,-2.04,-1.1,2.53,1785103551420.4219
-0.89,-0.207,-0.296,-2.53,-1.31,2.75,1785103551430.8118
-0.894,-0.208,-0.296,-3.02,-1.65,2.96,1785103551441.325
-0.897,-0.209,-0.292,-3.63,-2.11,3.17,1785103551454.4128
-0.901,-0.209,-0.293,-4.06,-2.56,3.6,1785103551460.179
-0.902,-0.212,-0.293,-4.61,-2.9,3.66,1785103551470.218
-0.901,-0.22,-0.291,-5.22,-3.27,3.78,1785103551480.5078
-0.901,-0.226,-0.289,-5.4,-3.69,3.88,1785103551490.936
-0.904,-0.224,-0.291,-5.4,-4.27,3.75,1785103551501.275
-0.904,-0.221,-0.293,-5.8,-4.58,3.75,1785103551514.528
-0.904,-0.221,-0.294,-6.35,-4.76,3.42,1785103551520.125
-0.898,-0.22,-0.297,-7.29,-5.1,3.11,1785103551530.216
-0.869,-0.216,-0.308,-8.91,-5.28,2.75,1785103551540.5781
-0.884,-0.222,-0.312,-11.29,-5.46,2.75,1785103551551.032
-0.922,-0.241,-0.315,-12.3,-5.25,2.56,1785103551564.3132
-0.906,-0.268,-0.311,-10.96,-5.4,3.08,1785103551570.2642
-0.887,-0.277,-0.304,-8.67,-5.49,4.7,1785103551580.228
-0.896,-0.246,-0.308,-6.13,-4.76,4.33,1785103551590.551
-0.901,-0.217,-0.309,-5.62,-4.52,2.04,1785103551600.919
-0.899,-0.23,-0.317,-6.47,-4.64,-0.12,1785103551611.28
-0.901,-0.25,-0.318,-7.35,-4.24,-0.82,1785103551624.585
-0.902,-0.269,-0.312,-6.04,-3.69,-0.95,1785103551630.1838
-0.908,-0.271,-0.307,-3.91,-3.6,-1.71,1785103551640.1812
-0.906,-0.253,-0.303,-2.72,-4.03,-2.17,1785103551650.5952
-0.901,-0.246,-0.302,-2.59,-4.0,-2.96,1785103551660.9822
-0.907,-0.24,-0.302,-3.63,-3.51,-3.94,1785103551671.336
-0.917,-0.231,-0.308,-5.31,-3.11,-4.88,1785103551684.568
-0.921,-0.225,-0.313,-7.02,-2.78,-5.98,1785103551690.284
-0.934,-0.221,-0.307,-8.58,-2.9,-6.81,1785103551700.265
-0.945,-0.218,-0.298,-9.8,-3.27,-7.14,1785103551710.6838
-0.96,-0.217,-0.284,-10.5,-3.6,-7.42,1785103551721.092
-0.987,-0.214,-0.262,-9.64,-4.55,-7.23,1785103551734.354
-1.003,-0.207,-0.25,-7.17,-6.44,-6.44,1785103551740.0051
-1.002,-0.191,-0.265,-3.94,-8.88,-4.7,1785103551750.018
-0.994,-0.169,-0.293,-3.3,-10.47,-2.59,1785103551760.546
-0.981,-0.155,-0.308,-6.5,-10.74,-0.18,1785103551770.972
-0.959,-0.152,-0.303,-11.14,-10.22,2.23,1785103551784.3298
-0.944,-0.163,-0.292,-14.8,-9.49,3.91,1785103551790.386
-0.94,-0.175,-0.292,-16.48,-8.67,4.85,1785103551800.243
-0.946,-0.18,-0.286,-15.93,-7.72,5.37,1785103551810.7478
-0.949,-0.186,-0.276,-13.15,-7.51,6.04,1785103551821.17
-0.941,-0.193,-0.281,-8.51,-7.63,6.59,1785103551834.4263
-0.936,-0.199,-0.284,-2.93,-7.51,6.53,1785103551840.0698
-0.925,-0.191,-0.286,1.59,-7.75,5.68,1785103551850.1702
-0.906,-0.196,-0.292,5.07,-7.57,4.7,1785103551860.506
-0.888,-0.201,-0.299,7.78,-6.71,3.05,1785103551870.89
-0.879,-0.207,-0.3,11.05,-6.04,1.04,1785103551881.387
-0.87,-0.197,-0.297,13.46,-6.29,-1.04,1785103551894.7031
-0.857,-0.172,-0.306,14.37,-6.44,-2.38,1785103551900.197
-0.856,-0.158,-0.327,12.33,-5.95,-3.48,1785103551910.327
-0.858,-0.157,-0.336,6.29,-4.49,-4.79,1785103551920.964
-0.864,-0.16,-0.325,-0.61,-2.72,-5.37,1785103551931.266
-0.865,-0.174,-0.312,-5.52,-1.98,-5.62,1785103551944.4128
-0.866,-0.181,-0.313,-8.48,-1.01,-6.01,1785103551949.823
-0.874,-0.177,-0.316,-9.43,0.0,-6.13,1785103551959.9868
-0.883,-0.164,-0.311,-10.59,0.4,-6.5,1785103551970.57
-0.885,-0.152,-0.301,-13.15,0.98,-6.81,1785103551981.2942
-0.883,-0.155,-0.299,-15.75,2.01,-7.17,1785103551994.998
-0.889,-0.168,-0.297,-18.25,3.05,-7.75,1785103552000.959
-0.9,-0.185,-0.29,-19.44,3.78,-7.87,1785103552010.419
-0.904,-0.192,-0.283,-18.52,4.12,-7.51,1785103552020.797
-0.909,-0.183,-0.28,-16.82,4.18,-7.11,1785103552031.325
-0.916,-0.176,-0.278,-15.35,4.46,-6.74,1785103552044.564
-0.924,-0.175,-0.271,-14.22,4.58,-6.56,1785103552050.361
-0.929,-0.179,-0.269,-13.21,4.49,-6.1,1785103552060.5068
-0.934,-0.177,-0.27,-12.27,4.24,-5.52,1785103552070.928
-0.937,-0.172,-0.276,-11.57,3.94,-5.1,1785103552081.219
-0.937,-0.175,-0.28,-11.44,3.94,-4.64,1785103552094.5781
-0.94,-0.18,-0.28,-11.26,4.03,-4.46,1785103552100.576
-0.943,-0.184,-0.279,-10.9,4.18,-4.3,1785103552110.6018
-0.943,-0.181,-0.272,-10.07,3.85,-4.12,1785103552121.047
-0.938,-0.178,-0.269,-8.85,3.27,-3.57,1785103552131.4648
-0.935,-0.18,-0.271,-7.57,2.81,-2.99,1785103552144.727
-0.934,-0.183,-0.274,-6.29,2.56,-2.38,1785103552150.354
-0.933,-0.185,-0.28,-4.82,2.26,-2.01,1785103552160.4102
-0.932,-0.186,-0.28,-3.39,1.83,-1.8,1785103552170.7861
-0.934,-0.187,-0.283,-1.98,1.56,-1.89,1785103552181.192
-0.937,-0.184,-0.284,-1.07,1.25,-1.8,1785103552194.5168
-0.932,-0.177,-0.288,-0.52,0.73,-1.68,1785103552200.043
-0.925,-0.172,-0.294,-0.52,0.27,-1.68,1785103552210.0798
-0.924,-0.166,-0.292,-1.4,-0.15,-1.28,1785103552220.4138
-0.923,-0.162,-0.295,-3.02,-0.55,-0.95,1785103552230.914
-0.919,-0.164,-0.302,-4.97,-0.76,-0.73,1785103552241.261
-0.913,-0.169,-0.305,-7.08,-1.07,-0.52,1785103552254.534
-0.91,-0.172,-0.304,-9.13,-1.25,-0.46,1785103552260.132
-0.907,-0.175,-0.301,-11.05,-1.65,-0.27,1785103552270.2148
-0.902,-0.175,-0.298,-12.7,-1.86,-0.15,1785103552280.7468
-0.898,-0.177,-0.297,-14.65,-2.17,0.06,1785103552291.252
-0.901,-0.181,-0.295,-16.85,-2.56,0.58,1785103552304.4102
-0.906,-0.194,-0.294,-18.8,-3.27,1.28,1785103552310.3008
-0.916,-0.205,-0.29,-20.42,-3.94,2.78,1785103552320.348
-0.916,-0.213,-0.285,-21.3,-4.3,5.13,1785103552330.847
-0.899,-0.226,-0.273,-22.28,-4.55,7.87,1785103552341.388
-0.878,-0.24,-0.268,-22.95,-5.04,11.11,1785103552354.573
-0.87,-0.262,-0.26,-23.32,-5.55,14.28,1785103552360.5928
-0.863,-0.301,-0.24,-23.35,-6.47,17.24,1785103552370.771
-0.85,-0.339,-0.227,-20.6,-7.87,19.38,1785103552381.31
-0.844,-0.364,-0.216,-15.02,-10.22,21.06,1785103552394.686
-0.842,-0.358,-0.229,-10.41,-12.76,22.43,1785103552400.491
-0.835,-0.346,-0.259,-8.61,-13.95,23.04,1785103552410.76
-0.832,-0.329,-0.288,-11.93,-13.25,21.94,1785103552424.143
-0.833,-0.325,-0.302,-20.78,-11.26,19.65,1785103552430.2888
-0.833,-0.344,-0.296,-32.41,-8.64,16.6,1785103552440.5151
-0.834,-0.372,-0.275,-43.4,-5.92,12.33,1785103552451.076
-0.841,-0.4,-0.245,-51.52,-3.94,6.87,1785103552464.359
-0.861,-0.425,-0.219,-55.6,-3.05,0.85,1785103552470.182
-0.882,-0.434,-0.2,-56.12,-4.43,-4.3,1785103552480.253
-0.908,-0.427,-0.193,-54.17,-6.56,-9.09,1785103552490.752
-0.908,-0.427,-0.193,-51.94,-8.97,-13.12,1785103552501.2878
-0.937,-0.413,-0.192,-51.09,-10.93,-16.39,1785103552514.552
-0.964,-0.407,-0.186,-53.1,-12.6,-19.26,1785103552520.513
-0.98,-0.397,-0.18,-56.83,-13.79,-22.16,1785103552531.046
-0.988,-0.396,-0.172,-62.26,-15.59,-24.96,1785103552544.269
-0.994,-0.391,-0.168,-62.26,-15.59,-24.96,1785103552550.263
-1.007,-0.387,-0.186,-68.79,-17.33,-28.38,1785103552560.7441
-1.038,-0.403,-0.212,-77.76,-16.79,-32.78,1785103552571.342
-1.074,-0.428,-0.217,-88.93,-15.5,-37.35,1785103552584.591
-1.092,-0.456,-0.216,-100.07,-14.65,-41.23,1785103552590.501
-1.099,-0.486,-0.21,-110.66,-14.25,-44.83,1785103552601.2612
-1.09,-0.519,-0.214,-121.01,-14.62,-49.38,1785103552614.506
-1.072,-0.549,-0.238,-130.65,-15.26,-56.12,1785103552620.408
-1.055,-0.574,-0.264,-138.49,-14.8,-65.46,1785103552631.235
-1.044,-0.581,-0.267,-145.33,-13.46,-76.42,1785103552644.458
-1.048,-0.571,-0.272,-152.68,-11.9,-87.59,1785103552650.4363
-1.075,-0.564,-0.294,-160.31,-9.16,-97.93,1785103552660.927
-1.099,-0.572,-0.344,-167.76,-5.62,-106.14,1785103552674.4111
-1.087,-0.595,-0.411,-172.15,-0.92,-113.68,1785103552679.944
-1.075,-0.602,-0.437,-171.58,4.76,-120.79,1785103552691.1091
-1.111,-0.634,-0.454,-166.36,10.9,-124.15,1785103552704.061
-1.107,-0.684,-0.525,-159.92,15.96,-126.65,1785103552710.4377
-1.077,-0.696,-0.554,-152.56,23.53,-131.53,1785103552720.9868
-1.069,-0.709,-0.534,-141.09,28.87,-134.19,1785103552734.5159
-1.087,-0.707,-0.537,-125.68,32.44,-137.64,1785103552740.464
-1.101,-0.675,-0.563,-111.42,37.75,-144.29,1785103552753.9412
-1.145,-0.655,-0.57,-100.53,43.7,-150.43,1785103552759.9768
-1.208,-0.628,-0.555,-91.1,48.13,-154.55,1785103552770.8481
-1.233,-0.588,-0.578,-83.53,51.15,-156.87,1785103552783.833
-1.278,-0.562,-0.594,-82.67,55.7,-160.34,1785103552789.695
-1.319,-0.567,-0.569,-86.03,61.04,-162.76,1785103552800.844
-1.332,-0.651,-0.522,-82.95,63.84,-162.91,1785103552814.045
-1.347,-0.681,-0.525,-73.24,63.97,-165.23,1785103552819.6008
-1.351,-0.723,-0.504,-59.66,65.03,-164.92,1785103552831.1392
-1.349,-0.786,-0.499,-39.16,64.36,-166.05,1785103552841.5518
-1.381,-0.838,-0.475,-16.08,62.56,-167.76,1785103552854.767
-1.439,-0.936,-0.449,11.69,59.79,-168.61,1785103552860.737
-1.496,-1.077,-0.396,44.59,55.73,-170.26,1785103552871.463
-1.5,-1.284,-0.349,88.02,49.01,-173.77,1785103552884.7417
-1.466,-1.349,-0.302,135.38,37.17,-181.71,1785103552890.698
-1.43,-1.197,-0.316,177.16,20.14,-193.61,1785103552904.109
-1.37,-0.916,-0.472,198.07,1.71,-206.85,1785103552909.9277
-1.338,-0.589,-0.638,176.31,-9.61,-224.77,1785103552920.799
-1.244,-0.447,-0.754,117.44,-14.44,-239.45,1785103552934.109
-1.147,-0.415,-0.737,29.97,-10.86,-255.01,1785103552940.1082
-1.036,-0.526,-0.653,-52.22,-2.56,-261.85,1785103552950.798
-0.951,-0.572,-0.628,-116.18,6.35,-265.05,1785103552964.0852
-0.918,-0.647,-0.511,-165.81,20.57,-263.31,1785103552970.1472
-0.834,-0.839,-0.464,-181.52,27.13,-260.05,1785103552981.006
-0.769,-0.842,-0.455,-179.27,28.63,-256.72,1785103552994.2998
-0.731,-0.819,-0.459,-157.84,32.84,-244.91,1785103553000.156
-0.699,-0.779,-0.532,-124.12,31.34,-234.96,1785103553011.263
-0.68,-0.7,-0.593,-95.1,29.48,-225.99,1785103553024.4492
-0.648,-0.678,-0.67,-71.35,30.09,-215.86,1785103553030.3582
-0.594,-0.663,-0.728,-55.64,31.74,-206.37,1785103553041.2312
-0.527,-0.65,-0.771,-47.88,35.4,-197.55,1785103553054.3628
-0.493,-0.636,-0.798,-46.69,40.93,-189.98,1785103553060.39
-0.476,-0.629,-0.805,-48.31,45.38,-181.04,1785103553071.084
-0.467,-0.627,-0.807,-48.68,50.72,-173.28,1785103553084.3809
-0.454,-0.621,-0.793,-48.62,55.79,-166.14,1785103553090.404
-0.431,-0.646,-0.771,-41.41,60.15,-160.1,1785103553101.1191
-0.418,-0.612,-0.848,-33.27,64.24,-158.39,1785103553114.321
-0.391,-0.545,-0.88,-38.76,72.79,-151.8,1785103553120.226
-0.314,-0.543,-0.928,-49.23,80.54,-143.83,1785103553131.057
-0.27,-0.516,-0.96,-64.03,88.69,-137.33,1785103553144.286
-0.237,-0.494,-0.97,-81.36,99.25,-128.82,1785103553150.239
-0.233,-0.467,-0.969,-100.56,110.84,-121.8,1785103553161.243
-0.227,-0.458,-0.942,-117.74,122.2,-113.77,1785103553174.4548
-0.211,-0.488,-0.9,-126.62,132.24,-104.77,1785103553180.411
-0.215,-0.512,-0.82,-125.34,140.32,-95.13,1785103553194.1099
-0.211,-0.534,-0.727,-114.87,145.79,-83.01,1785103553199.991
-0.212,-0.546,-0.64,-96.65,148.11,-71.35,1785103553210.936
-0.197,-0.541,-0.596,-73.76,146.64,-60.73,1785103553224.127
-0.176,-0.536,-0.629,-49.62,142.7,-52.64,1785103553230.303
-0.171,-0.512,-0.723,-33.17,138.13,-45.93,1785103553240.9011
-0.178,-0.477,-0.782,-31.16,136.3,-38.76,1785103553254.0579
-0.145,-0.463,-0.762,-37.93,136.27,-35.55,1785103553260.105
-0.117,-0.459,-0.725,-44.07,137.12,-38.51,1785103553270.805
-0.086,-0.476,-0.69,-47.64,136.2,-41.2,1785103553284.085
-0.068,-0.483,-0.661,-46.75,136.05,-43.82,1785103553290.163
-0.06,-0.475,-0.645,-42.7,136.14,-45.81,1785103553300.766
-0.049,-0.454,-0.624,-38.61,135.75,-45.93,1785103553314.045
-0.021,-0.428,-0.595,-34.3,135.29,-43.0,1785103553319.9412
0.023,-0.411,-0.583,-28.23,134.13,-38.09,1785103553330.751
0.074,-0.383,-0.585,-23.77,133.46,-34.06,1785103553341.603
0.129,-0.362,-0.609,-24.63,132.76,-29.94,1785103553354.702
0.176,-0.342,-0.644,-32.23,133.03,-26.06,1785103553360.759
0.2,-0.328,-0.665,-44.13,133.88,-22.8,1785103553371.426
0.226,-0.322,-0.669,-58.02,136.14,-20.08,1785103553384.6663
0.258,-0.351,-0.688,-70.65,138.19,-16.72,1785103553390.6162
0.29,-0.392,-0.671,-79.04,138.68,-11.66,1785103553401.407
0.318,-0.402,-0.661,-82.58,141.85,-9.46,1785103553414.6711
0.336,-0.404,-0.646,-86.03,146.4,-7.14,1785103553421.107
0.348,-0.393,-0.61,-89.85,148.9,-1.68,1785103553431.124
0.348,-0.384,-0.572,-92.04,152.71,4.79,1785103553444.38
0.335,-0.392,-0.559,-94.45,154.91,11.29,1785103553450.3271
0.323,-0.387,-0.548,-98.85,155.55,17.21,1785103553461.018
0.34,-0.365,-0.538,-104.1,156.5,22.0,1785103553474.2651
0.361,-0.343,-0.515,-112.22,158.15,25.64,1785103553480.2393
0.363,-0.317,-0.47,-123.63,160.04,29.73,1785103553491.3079
0.353,-0.343,-0.445,-131.23,160.44,33.54,1785103553504.4492
0.364,-0.365,-0.412,-134.56,161.26,36.23,1785103553510.47
0.357,-0.373,-0.396,-133.92,160.34,38.91,1785103553521.445
0.351,-0.368,-0.388,-128.82,158.67,41.32,1785103553534.7012
0.352,-0.367,-0.376,-121.1,157.66,44.53,1785103553540.642
0.367,-0.373,-0.351,-110.35,156.93,47.55,1785103553554.1
0.403,-0.372,-0.338,-98.76,155.46,49.87,1785103553560.0881
0.437,-0.345,-0.336,-90.24,153.72,51.09,1785103553570.89
0.453,-0.315,-0.352,-86.86,151.98,52.31,1785103553584.1702
0.463,-0.3,-0.356,-89.75,151.37,54.48,1785103553590.239
0.476,-0.303,-0.368,-98.61,151.98,55.06,1785103553600.905
0.494,-0.304,-0.374,-112.52,152.78,55.02,1785103553614.1628
0.513,-0.329,-0.368,-127.35,152.75,54.63,1785103553620.0818
0.493,-0.324,-0.354,-144.2,151.98,53.96,1785103553631.1208
0.516,-0.35,-0.332,-159.15,149.05,56.86,1785103553644.358
0.521,-0.381,-0.28,-169.68,147.68,56.79,1785103553650.265
0.528,-0.443,-0.246,-170.11,144.02,58.75,1785103553661.309
0.507,-0.473,-0.226,-161.05,139.59,61.22,1785103553674.607
0.511,-0.49,-0.239,-146.89,133.88,63.45,1785103553680.523
0.527,-0.473,-0.241,-135.11,130.65,64.39,1785103553694.097
0.538,-0.448,-0.228,-128.64,128.88,65.98,1785103553699.862
0.542,-0.43,-0.236,-127.38,127.99,68.48,1785103553710.759
0.53,-0.41,-0.235,-130.86,127.23,71.81,1785103553724.275
0.532,-0.391,-0.24,-137.7,126.65,75.59,1785103553730.221
0.553,-0.415,-0.244,-146.15,126.22,78.8,1785103553741.349
0.562,-0.439,-0.226,-156.68,125.83,80.87,1785103553754.465
0.567,-0.453,-0.215,-164.98,125.37,82.77,1785103553760.4248
0.552,-0.483,-0.217,-170.42,124.64,83.99,1785103553771.4373
0.525,-0.505,-0.22,-174.75,123.75,85.24,1785103553784.681
0.525,-0.505,-0.22,-176.98,121.95,86.86,1785103553791.5498
0.511,-0.532,-0.203,-175.3,119.05,88.35,1785103553804.0728
0.498,-0.557,-0.17,-167.67,114.57,91.01,1785103553810.26
0.496,-0.586,-0.155,-156.47,109.87,92.81,1785103553821.0208
0.517,-0.591,-0.151,-145.91,106.3,94.21,1785103553834.2888
0.511,-0.578,-0.146,-145.91,106.3,94.21,1785103553840.2751
0.475,-0.569,-0.163,-140.05,103.15,96.29,1785103553851.2522
0.461,-0.559,-0.18,-139.41,101.11,98.54,1785103553864.4868
0.464,-0.56,-0.19,-141.82,99.86,101.47,1785103553870.473
0.466,-0.592,-0.239,-144.35,98.64,104.59,1785103553881.512
0.461,-0.63,-0.26,-146.61,98.97,107.46,1785103553894.889
0.45,-0.66,-0.21,-147.56,99.89,108.22,1785103553900.47
0.429,-0.726,-0.129,-142.0,99.22,109.1,1785103553913.915
0.399,-0.775,-0.035,-128.09,95.98,111.18,1785103553920.1138
0.399,-0.794,0.016,-105.44,91.65,112.89,1785103553931.1528
0.433,-0.8,-0.007,-81.27,86.58,112.89,1785103553944.4192
0.443,-0.791,-0.041,-63.3,82.09,112.8,1785103553950.305
0.448,-0.761,-0.06,-54.75,78.34,112.34,1785103553961.105
0.455,-0.722,-0.1,-56.0,74.92,111.09,1785103553974.393
0.451,-0.678,-0.125,-67.17,71.93,110.35,1785103553980.34
0.42,-0.65,-0.117,-86.83,70.22,109.01,1785103553991.201
0.42,-0.635,-0.12,-111.42,68.54,107.27,1785103554004.3572
0.409,-0.649,-0.102,-135.84,66.04,105.23,1785103554010.3008
0.371,-0.682,-0.071,-157.17,62.65,104.28,1785103554021.2969
0.33,-0.721,-0.064,-172.67,58.63,104.5,1785103554034.575
0.297,-0.747,-0.074,-182.38,54.72,105.75,1785103554040.4658
0.29,-0.769,-0.061,-185.46,50.69,107.49,1785103554051.568
0.287,-0.808,-0.011,-180.97,45.87,109.13,1785103554064.796
0.299,-0.854,0.029,-167.33,39.43,110.87,1785103554070.7688
0.299,-0.865,0.05,-145.05,31.8,111.18,1785103554084.075
0.291,-0.859,0.049,-120.06,21.7,112.64,1785103554090.292
0.294,-0.834,-0.006,-97.84,10.68,114.96,1785103554101.101
0.314,-0.761,-0.142,-83.25,4.09,115.39,1785103554114.362
0.335,-0.689,-0.19,-81.21,2.29,116.31,1785103554120.221
0.295,-0.662,-0.194,-93.08,2.23,118.78,1785103554130.766
0.201,-0.668,-0.131,-111.58,3.85,123.29,1785103554141.658
0.151,-0.753,-0.003,-122.5,3.2,127.84,1785103554154.7441
0.174,-0.881,0.063,-117.07,-3.54,130.99,1785103554160.746
0.226,-0.955,-0.012,-96.65,-14.5,133.03,1785103554171.478
0.222,-0.948,-0.153,-74.01,-22.34,133.73,1785103554184.716
0.114,-0.942,-0.285,-65.16,-24.84,133.24,1785103554190.71
0.034,-0.966,-0.287,-71.93,-23.93,132.97,1785103554201.505
0.021,-1.011,-0.181,-82.34,-23.38,133.82,1785103554214.677
0.096,-1.029,-0.124,-81.09,-27.13,131.17,1785103554220.602
0.102,-0.964,-0.147,-68.45,-27.41,119.08,1785103554231.41
0.004,-0.888,-0.216,-54.6,-28.57,105.29,1785103554244.69
-0.023,-0.897,-0.267,-42.21,-36.74,102.08,1785103554250.627
-0.001,-0.877,-0.262,-27.53,-43.06,100.19,1785103554261.389
0.015,-0.854,-0.294,-8.94,-49.87,100.56,1785103554274.7048
0.015,-0.771,-0.353,4.7,-55.48,103.85,1785103554280.649
0.016,-0.649,-0.453,7.69,-58.72,109.81,1785103554291.105
-0.014,-0.547,-0.588,-7.63,-58.17,116.31,1785103554304.2651
-0.042,-0.507,-0.672,-42.33,-53.96,123.05,1785103554310.298
-0.087,-0.574,-0.654,-81.27,-47.15,127.14,1785103554321.023
-0.141,-0.702,-0.569,-108.65,-43.89,128.15,1785103554334.2778
-0.194,-0.843,-0.464,-111.33,-46.02,127.11,1785103554340.183
-0.242,-0.924,-0.433,-91.86,-53.53,123.6,1785103554351.1118
-0.264,-0.898,-0.499,-65.86,-63.57,120.52,1785103554364.342
-0.265,-0.808,-0.597,-48.65,-71.14,117.98,1785103554370.2522
-0.275,-0.727,-0.68,-47.91,-73.12,114.93,1785103554381.101
-0.296,-0.665,-0.699,-61.74,-70.5,112.67,1785103554394.402
-0.322,-0.664,-0.653,-77.91,-66.9,111.18,1785103554400.251
-0.362,-0.705,-0.562,-88.9,-64.33,109.81,1785103554411.062
-0.39,-0.739,-0.482,-90.67,-66.59,110.26,1785103554424.2703
-0.413,-0.77,-0.454,-82.03,-72.05,111.76,1785103554430.249
-0.432,-0.771,-0.551,-71.47,-79.35,112.52,1785103554441.119
-0.455,-0.745,-0.672,-68.42,-84.75,112.55,1785103554454.2861
-0.506,-0.742,-0.711,-75.69,-86.37,112.43,1785103554460.2727
-0.533,-0.761,-0.717,-90.67,-86.55,111.7,1785103554470.9492
-0.524,-0.79,-0.677,-103.15,-86.55,109.78,1785103554484.273
-0.538,-0.833,-0.567,-109.59,-87.56,105.38,1785103554490.251
-0.564,-0.844,-0.451,-109.41,-92.14,100.44,1785103554501.254
-0.573,-0.881,-0.42,-99.86,-100.83,96.65,1785103554514.417
-0.59,-0.95,-0.414,-86.18,-110.17,90.88,1785103554520.3892
-0.65,-1.017,-0.401,-73.06,-119.48,84.32,1785103554531.225
-0.751,-1.032,-0.437,-62.38,-128.06,79.07,1785103554544.4282
-0.793,-1.0,-0.537,-51.42,-133.92,75.01,1785103554550.3289
-0.729,-0.956,-0.616,-42.57,-136.17,70.38,1785103554561.004
-0.653,-0.931,-0.612,-41.2,-135.29,63.66,1785103554574.36
-0.639,-0.9,-0.54,-46.33,-133.95,55.73,1785103554580.41
-0.693,-0.865,-0.455,-55.85,-132.66,46.33,1785103554591.1802
-0.813,-0.86,-0.424,-67.93,-130.44,33.57,1785103554604.362
-0.956,-0.845,-0.381,-76.27,-130.19,22.43,1785103554610.2112
-1.034,-0.802,-0.379,-69.86,-135.04,14.5,1785103554621.021
-1.106,-0.735,-0.395,-51.91,-141.48,9.61,1785103554634.266
-1.156,-0.675,-0.485,-37.6,-150.18,11.84,1785103554640.268
-1.103,-0.62,-0.576,-33.88,-156.16,18.04,1785103554650.895
-1.004,-0.559,-0.62,-41.26,-159.06,22.74,1785103554664.1592
-0.943,-0.509,-0.668,-59.51,-160.31,24.51,1785103554670.135
-0.928,-0.501,-0.723,-83.99,-159.03,22.77,1785103554680.8628
-0.927,-0.524,-0.728,-106.81,-156.71,19.14,1785103554694.18
-0.933,-0.555,-0.697,-121.01,-154.39,13.06,1785103554700.058
-1.002,-0.569,-0.71,-126.53,-152.84,4.64,1785103554711.025
-1.099,-0.553,-0.771,-124.15,-152.1,-3.42,1785103554724.353
-1.174,-0.521,-0.827,-116.34,-151.49,-10.25,1785103554730.71
-1.192,-0.496,-0.849,-107.06,-150.18,-15.56,1785103554742.107
-1.168,-0.431,-0.846,-96.32,-150.18,-18.28,1785103554754.4949
-1.136,-0.342,-0.855,-84.78,-150.33,-18.49,1785103554760.632
-1.097,-0.276,-0.874,-74.68,-149.45,-16.6,1785103554771.183
-1.042,-0.244,-0.848,-62.75,-147.22,-12.7,1785103554784.405
-1.021,-0.221,-0.796,-47.79,-145.02,-8.91,1785103554790.333
-1.0,-0.224,-0.765,-32.17,-143.71,-3.63,1785103554800.883
-0.959,-0.26,-0.725,-13.03,-144.23,4.27,1785103554814.2212
-0.984,-0.265,-0.675,7.29,-147.95,13.18,1785103554820.12
-0.976,-0.345,-0.719,35.65,-148.17,26.64,1785103554830.7048
-1.004,-0.253,-0.733,51.3,-147.16,25.51,1785103554841.45
-1.05,-0.299,-0.782,53.04,-143.71,35.83,1785103554854.634
-1.076,-0.244,-0.826,38.85,-136.33,37.54,1785103554860.6838
-1.091,-0.272,-0.818,14.77,-127.26,38.45,1785103554871.423
-1.118,-0.272,-0.774,-16.33,-114.96,33.27,1785103554884.621
-1.133,-0.289,-0.763,-50.6,-107.36,25.61,1785103554890.668
-1.132,-0.305,-0.811,-82.58,-98.82,15.59,1785103554901.252
-1.105,-0.309,-0.8,-110.17,-90.88,4.18,1785103554914.526
-1.094,-0.332,-0.704,-129.55,-85.39,-6.07,1785103554920.46
-1.089,-0.364,-0.611,-140.32,-83.74,-13.55,1785103554931.0981
-1.076,-0.378,-0.579,-141.79,-85.39,-16.57,1785103554944.37
-1.051,-0.315,-0.598,-141.94,-88.32,-18.13,1785103554950.282
-0.978,-0.229,-0.668,-149.69,-90.24,-18.86,1785103554961.0398
-1.011,-0.185,-0.672,-170.69,-89.39,-20.63,1785103554974.2742
-0.975,-0.247,-0.688,-196.17,-83.8,-19.29,1785103554980.254
-0.943,-0.23,-0.707,-225.17,-79.96,-22.77,1785103554991.057
-0.939,-0.241,-0.715,-254.55,-72.45,-24.2,1785103555004.21
-0.954,-0.277,-0.66,-277.54,-63.81,-26.37,1785103555010.251
-0.958,-0.387,-0.536,-287.48,-58.05,-29.27,1785103555021.0261
-0.96,-0.539,-0.366,-278.97,-55.64,-28.53,1785103555034.2458
-0.948,-0.69,-0.256,-245.25,-54.6,-23.41,1785103555040.117
-0.979,-0.655,-0.248,-201.33,-48.77,-24.23,1785103555050.992
-1.061,-0.496,-0.335,-171.54,-48.4,-24.57,1785103555064.3562
-1.061,-0.496,-0.335,-170.93,-48.07,-27.59,1785103555070.3098
-1.033,-0.309,-0.396,-189.21,-38.58,-35.58,1785103555080.981
-0.968,-0.25,-0.406,-203.44,-27.13,-48.31,1785103555094.006
-0.905,-0.317,-0.371,-189.95,-21.82,-57.92,1785103555100.1511
-0.847,-0.349,-0.26,-148.14,-24.2,-63.66,1785103555110.8843
-0.811,-0.335,-0.236,-148.14,-24.2,-63.66,1785103555124.115
-0.814,-0.278,-0.324,-101.78,-29.21,-65.28,1785103555130.15
-0.815,-0.178,-0.414,-68.51,-31.31,-59.57,1785103555140.759
-0.811,-0.05,-0.43,-51.42,-29.69,-49.87,1785103555151.35
-0.812,0.047,-0.43,-49.44,-26.22,-41.29,1785103555164.6199
-0.806,0.094,-0.42,-59.69,-20.51,-35.16,1785103555170.5972
-0.813,0.054,-0.406,-72.21,-13.46,-32.32,1785103555181.113
-0.852,-0.032,-0.369,-81.85,-7.26,-34.33,1785103555194.415
-0.887,-0.096,-0.328,-85.6,-4.24,-37.6,1785103555200.233
-0.915,-0.139,-0.292,-79.17,-2.84,-40.22,1785103555210.597
-0.95,-0.17,-0.239,-63.78,-3.27,-42.6,1785103555221.054
-0.977,-0.225,-0.203,-40.16,-5.31,-44.4,1785103555234.3062
-1.01,-0.276,-0.185,-12.6,-8.3,-46.6,1785103555240.2383
-1.028,-0.297,-0.192,16.3,-11.93,-45.05,1785103555250.647
-1.018,-0.28,-0.232,45.41,-15.63,-40.01,1785103555261.2878
-1.004,-0.214,-0.288,69.06,-18.46,-34.42,1785103555274.543
-0.963,-0.119,-0.335,80.23,-21.52,-26.98,1785103555280.4448
-0.911,-0.024,-0.382,76.54,-20.29,-22.37,1785103555290.983
-0.89,0.009,-0.415,58.44,-14.74,-19.68,1785103555304.289
-0.882,-0.037,-0.409,32.35,-8.42,-16.33,1785103555310.195
-0.886,-0.113,-0.385,7.51,-2.9,-14.59,1785103555320.427
-0.893,-0.159,-0.365,-11.72,1.34,-12.85,1785103555331.0
-0.904,-0.17,-0.35,-25.24,4.06,-9.46,1785103555341.936
-0.909,-0.169,-0.333,-35.22,5.68,-4.82,1785103555354.6538
-0.915,-0.182,-0.313,-42.42,7.39,-0.09,1785103555360.602
-0.908,-0.218,-0.297,-46.05,8.06,4.18,1785103555370.6118
-0.894,-0.256,-0.285,-46.45,8.61,6.62,1785103555381.158
-0.893,-0.278,-0.265,-44.4,9.89,7.75,1785103555394.443
-0.899,-0.307,-0.25,-39.16,10.32,7.6,1785103555400.249
-0.903,-0.325,-0.244,-31.77,10.32,5.49,1785103555410.497
-0.904,-0.34,-0.239,-23.26,9.92,4.0,1785103555420.8699
-0.904,-0.352,-0.237,-13.73,9.22,3.91,1785103555431.356
-0.903,-0.341,-0.242,-3.69,8.39,4.61,1785103555444.624
-0.902,-0.324,-0.257,4.97,7.54,5.52,1785103555450.262
-0.895,-0.316,-0.268,9.83,7.45,6.62,1785103555460.274
-0.888,-0.315,-0.268,10.65,8.15,7.51,1785103555470.742
-0.889,-0.322,-0.256,9.86,8.76,7.93,1785103555481.225
-0.893,-0.327,-0.252,9.13,8.73,7.9,1785103555494.471
-0.89,-0.318,-0.261,8.55,8.36,7.66,1785103555500.0261
-0.881,-0.302,-0.269,6.01,7.9,7.32,1785103555510.0942
-0.879,-0.292,-0.283,0.43,8.27,6.26,1785103555520.396
-0.885,-0.278,-0.295,-8.39,9.61,5.52,1785103555530.793
-0.884,-0.263,-0.314,-19.26,11.69,5.55,1785103555541.569
-0.891,-0.252,-0.335,-28.84,14.8,5.28,1785103555554.7122
-0.904,-0.244,-0.32,-36.47,18.25,4.52,1785103555560.699
-0.906,-0.258,-0.276,-41.57,20.29,3.85,1785103555570.866
-0.908,-0.325,-0.226,-40.28,20.54,3.78,1785103555581.501
-0.919,-0.396,-0.181,-30.4,18.95,4.85,1785103555594.751
-0.924,-0.413,-0.167,-11.47,14.62,7.63,1785103555600.597
-0.917,-0.372,-0.194,10.19,8.67,10.62,1785103555610.843
-0.898,-0.306,-0.249,25.57,4.03,12.45,1785103555621.4158
-0.872,-0.233,-0.29,28.72,2.62,13.73,1785103555634.6501
-0.86,-0.185,-0.313,21.49,4.12,15.05,1785103555641.207
-0.872,-0.189,-0.298,8.39,7.42,15.69,1785103555650.722
-0.885,-0.24,-0.263,-4.73,11.2,15.53,1785103555661.2952
-0.886,-0.278,-0.244,-12.73,14.65,15.66,1785103555674.6292
-0.894,-0.272,-0.245,-17.49,16.33,16.75,1785103555680.542
-0.892,-0.241,-0.259,-26.64,15.66,17.43,1785103555691.41
-0.878,-0.226,-0.303,-41.6,15.44,17.64,1785103555704.282
-0.878,-0.26,-0.359,-60.79,18.37,16.17,1785103555710.2751
-0.886,-0.35,-0.361,-79.35,21.91,12.73,1785103555720.768
