ax,ay,az,gx,gy,gz,timestamp_ms
0.676,0.017,-0.092,21.7,-102.82,-143.01,1785095196753.7698
0.656,0.075,-0.161,20.51,-105.87,-144.72,1785095196754.1719
0.64,0.178,-0.208,23.13,-107.52,-144.2,1785095196754.542
0.634,0.229,-0.235,26.8,-108.58,-142.77,1785095196754.924
0.627,0.236,-0.247,28.11,-109.47,-142.52,1785095196755.314
0.617,0.246,-0.247,27.92,-109.59,-142.19,1785095196755.683
0.608,0.25,-0.243,29.15,-109.44,-141.12,1785095196756.0508
0.607,0.248,-0.271,29.97,-110.26,-140.02,1785095196756.418
0.601,0.301,-0.339,27.56,-110.9,-139.68,1785095196756.791
0.583,0.396,-0.454,25.03,-109.9,-137.58,1785095196757.1353
0.554,0.526,-0.541,22.95,-105.87,-132.88,1785095196757.448
0.549,0.612,-0.585,22.83,-99.89,-126.83,1785095196757.7778
0.553,0.63,-0.595,21.61,-93.05,-122.9,1785095196758.0989
0.575,0.597,-0.553,18.92,-85.67,-119.24,1785095196758.411
0.598,0.533,-0.546,17.91,-80.72,-116.89,1785095196758.7258
0.615,0.538,-0.589,19.56,-74.83,-113.04,1785095196759.0388
0.547,0.623,-0.634,26.15,-71.6,-103.06,1785095196759.3423
0.557,0.669,-0.668,37.35,-69.8,-90.21,1785095196759.6582
0.546,0.743,-0.72,44.65,-65.4,-91.49,1785095196759.9602
0.519,0.785,-0.785,45.11,-59.08,-89.91,1785095196760.266
0.55,0.821,-0.816,41.23,-51.52,-80.54,1785095196760.569
0.538,0.913,-0.844,38.82,-46.51,-72.48,1785095196760.8718
0.493,0.986,-0.864,37.81,-39.09,-64.36,1785095196761.1948
0.5,1.003,-0.876,34.49,-31.13,-53.93,1785095196761.4983
0.515,0.995,-0.863,30.79,-24.38,-44.28,1785095196761.817
0.507,0.987,-0.864,28.72,-17.33,-36.74,1785095196762.128
0.496,0.969,-0.863,28.38,-11.69,-29.24,1785095196762.441
0.502,0.951,-0.881,30.09,-7.02,-20.94,1785095196762.732
0.487,0.962,-0.888,33.91,-0.46,-13.09,1785095196763.0552
0.485,0.949,-0.89,40.5,6.35,-1.77,1785095196763.367
0.485,0.949,-0.89,46.48,12.12,9.0,1785095196763.6638
0.504,0.93,-0.885,49.59,17.55,17.52,1785095196763.979
0.516,0.938,-0.885,50.9,21.49,26.61,1785095196764.417
0.526,0.924,-0.866,49.78,25.48,34.24,1785095196764.739
0.536,0.885,-0.846,46.72,29.18,39.43,1785095196765.012
0.543,0.851,-0.836,46.72,29.18,39.43,1785095196765.289
0.548,0.847,-0.818,41.75,32.17,43.46,1785095196765.5588
0.563,0.846,-0.816,35.0,34.73,48.16,1785095196765.8198
0.578,0.848,-0.815,24.63,38.15,54.6,1785095196766.087
0.579,0.817,-0.791,14.8,41.08,61.59,1785095196766.3528
0.583,0.761,-0.762,7.66,43.55,67.02,1785095196766.6318
0.588,0.709,-0.725,2.5,45.87,71.41,1785095196766.928
0.595,0.651,-0.695,-1.1,47.27,75.17,1785095196767.193
0.595,0.595,-0.663,-3.14,48.37,79.38,1785095196767.456
0.594,0.537,-0.638,-2.99,48.92,83.62,1785095196767.7131
0.598,0.496,-0.619,-2.26,49.68,87.04,1785095196767.9731
0.609,0.475,-0.618,-1.22,51.39,90.55,1785095196768.307
0.614,0.458,-0.608,-1.01,54.29,94.85,1785095196768.5928
0.62,0.432,-0.593,-1.89,57.07,98.91,1785095196768.8699
0.633,0.404,-0.562,-4.39,59.24,101.93,1785095196769.197
0.662,0.356,-0.529,-6.2,60.15,104.22,1785095196769.4888
0.694,0.3,-0.504,-6.9,60.34,105.59,1785095196769.7542
0.707,0.26,-0.499,-7.87,60.64,106.6,1785095196770.012
0.705,0.243,-0.494,-8.67,61.46,108.13,1785095196770.2798
0.698,0.225,-0.49,-9.4,63.02,109.71,1785095196770.546
0.697,0.216,-0.49,-11.84,64.91,110.08,1785095196770.8071
0.716,0.218,-0.489,-15.78,66.87,110.05,1785095196771.0579
0.74,0.216,-0.466,-20.78,69.43,110.78,1785095196771.3289
0.76,0.189,-0.429,-25.61,72.27,111.94,1785095196771.5781
0.778,0.135,-0.396,-29.3,74.4,112.28,1785095196771.8542
0.802,0.08,-0.367,-30.82,76.39,112.09,1785095196772.1018
0.826,0.033,-0.349,-29.45,78.37,112.43,1785095196772.351
0.841,0.0,-0.351,-26.89,80.05,113.16,1785095196772.5989
0.847,-0.014,-0.35,-24.99,81.91,113.65,1785095196772.84
0.844,-0.022,-0.351,-23.47,83.9,113.53,1785095196773.0889
0.837,-0.041,-0.345,-22.25,85.91,112.61,1785095196773.3528
0.836,-0.053,-0.338,-22.31,88.32,110.84,1785095196773.6453
0.84,-0.054,-0.308,-22.46,91.25,109.71,1785095196773.945
0.858,-0.064,-0.266,-22.19,94.55,109.78,1785095196774.241
0.885,-0.091,-0.222,-23.29,97.54,109.26,1785095196774.512
0.911,-0.133,-0.19,-24.84,99.55,108.46,1785095196774.752
0.92,-0.174,-0.168,-26.15,101.08,108.22,1785095196775.001
0.913,-0.209,-0.154,-26.67,101.99,108.13,1785095196775.254
0.897,-0.226,-0.142,-27.07,102.91,107.58,1785095196775.5132
0.894,-0.242,-0.123,-26.49,103.7,106.2,1785095196775.778
0.902,-0.258,-0.099,-25.09,104.65,103.76,1785095196776.0269
0.921,-0.267,-0.068,-24.08,105.81,101.72,1785095196776.2803
0.942,-0.27,-0.05,-26.89,106.85,100.41,1785095196776.531
0.936,-0.242,-0.013,-37.14,107.79,100.92,1785095196776.775
0.923,-0.236,0.02,-53.19,107.0,102.36,1785095196777.027
0.918,-0.235,0.054,-75.78,105.11,103.21,1785095196777.276
0.905,-0.256,0.068,-102.6,102.15,103.21,1785095196777.527
0.896,-0.299,0.104,-128.76,99.22,102.45,1785095196777.7751
0.894,-0.393,0.131,-144.78,95.0,99.12,1785095196778.028
0.894,-0.495,0.153,-146.18,90.33,93.39,1785095196778.277
0.893,-0.565,0.185,-133.64,84.23,86.76,1785095196778.515
0.894,-0.595,0.212,-111.3,76.82,79.32,1785095196778.746
0.896,-0.603,0.219,-85.24,68.36,71.11,1785095196778.979
0.897,-0.596,0.217,-61.89,60.15,62.29,1785095196779.212
0.887,-0.609,0.223,-44.77,52.13,52.77,1785095196779.432
0.885,-0.641,0.245,-33.39,43.95,42.91,1785095196779.661
0.892,-0.678,0.267,-25.12,35.37,33.23,1785095196779.886
0.895,-0.69,0.281,-18.8,26.8,24.72,1785095196780.104
0.902,-0.68,0.286,-13.12,18.8,17.37,1785095196780.3352
0.913,-0.662,0.282,-7.6,11.17,9.89,1785095196780.59
0.923,-0.623,0.263,-4.15,3.94,2.56,1785095196780.8098
0.933,-0.57,0.246,-3.2,-1.8,-3.69,1785095196781.0261
0.934,-0.539,0.239,-3.23,-6.78,-9.74,1785095196781.2468
0.927,-0.531,0.232,-2.53,-11.51,-15.75,1785095196781.473
0.923,-0.512,0.219,-1.4,-15.53,-20.72,1785095196781.691
0.924,-0.482,0.215,-0.73,-18.8,-24.17,1785095196781.915
0.934,-0.457,0.198,-0.95,-22.06,-26.98,1785095196782.1418
0.944,-0.44,0.186,-2.11,-24.29,-29.18,1785095196782.37
0.945,-0.437,0.182,-2.32,-26.31,-30.95,1785095196782.5898
0.948,-0.436,0.172,-0.76,-28.29,-32.41,1785095196782.816
0.95,-0.431,0.159,2.04,-29.66,-33.57,1785095196783.041
0.947,-0.415,0.144,4.39,-30.82,-34.46,1785095196783.2583
0.943,-0.403,0.133,5.71,-31.74,-34.91,1785095196783.4849
0.939,-0.394,0.114,6.44,-32.59,-35.92,1785095196783.71
0.941,-0.375,0.106,7.97,-33.72,-37.39,1785095196783.937
0.944,-0.354,0.097,11.87,-34.91,-38.82,1785095196784.16
0.943,-0.325,0.078,16.69,-36.16,-39.86,1785095196784.3872
0.944,-0.281,0.062,19.78,-36.71,-40.28,1785095196784.611
0.946,-0.252,0.052,21.88,-37.35,-40.41,1785095196784.826
0.947,-0.236,0.041,22.68,-37.9,-40.68,1785095196785.0393
0.947,-0.212,0.021,20.57,-37.87,-40.13,1785095196785.2559
0.949,-0.183,-0.005,15.38,-37.45,-38.88,1785095196785.493
0.955,-0.157,-0.022,9.37,-36.65,-37.78,1785095196785.6992
0.958,-0.152,-0.036,5.04,-35.95,-37.6,1785095196785.917
0.958,-0.141,-0.051,2.17,-34.97,-37.6,1785095196786.1318
0.95,-0.132,-0.057,0.73,-33.63,-36.59,1785095196786.344
0.94,-0.139,-0.06,0.55,-32.65,-35.37,1785095196786.552
0.938,-0.151,-0.062,1.65,-32.11,-34.49,1785095196786.7698
0.943,-0.16,-0.07,4.3,-31.77,-33.66,1785095196787.0269
0.947,-0.15,-0.084,6.81,-31.04,-32.23,1785095196787.2363
0.954,-0.124,-0.101,7.9,-30.15,-30.09,1785095196787.456
0.955,-0.108,-0.101,7.87,-29.33,-28.05,1785095196787.6758
0.949,-0.105,-0.102,7.78,-29.08,-26.58,1785095196787.884
0.939,-0.103,-0.115,7.78,-28.75,-25.42,1785095196788.099
0.927,-0.098,-0.119,7.48,-28.26,-23.93,1785095196788.315
0.921,-0.096,-0.122,7.14,-27.95,-22.28,1785095196788.5283
0.921,-0.093,-0.125,6.59,-28.11,-20.69,1785095196788.737
0.924,-0.084,-0.128,6.29,-28.17,-19.23,1785095196788.95
0.932,-0.078,-0.126,7.45,-28.08,-17.49,1785095196789.166
0.94,-0.072,-0.125,9.13,-27.89,-15.5,1785095196789.375
0.939,-0.066,-0.133,9.64,-28.08,-13.43,1785095196789.59
0.931,-0.053,-0.15,9.09,-28.11,-11.63,1785095196789.8071
0.933,-0.036,-0.162,7.17,-27.89,-9.58,1785095196790.018
0.94,-0.028,-0.173,4.79,-27.53,-7.81,1785095196790.2239
0.944,-0.018,-0.178,1.16,-26.7,-5.95,1785095196790.434
0.944,-0.019,-0.178,-2.99,-25.82,-3.75,1785095196790.6448
0.954,-0.036,-0.169,-6.04,-25.36,-2.38,1785095196790.85
0.966,-0.05,-0.164,-7.93,-25.15,-1.95,1785095196791.062
0.971,-0.062,-0.174,-8.58,-24.96,-0.79,1785095196791.2698
0.957,-0.061,-0.177,-9.13,-24.99,0.82,1785095196791.4739
0.936,-0.071,-0.18,-8.39,-25.57,2.32,1785095196791.682
0.915,-0.087,-0.185,-6.59,-26.37,3.02,1785095196791.8953
0.91,-0.097,-0.194,-4.64,-27.22,3.45,1785095196792.1091
0.915,-0.091,-0.204,-3.88,-27.83,4.12,1785095196792.3147
0.935,-0.076,-0.214,-3.97,-28.17,5.43,1785095196792.523
0.96,-0.067,-0.223,-4.88,-27.89,6.99,1785095196792.728
0.973,-0.062,-0.226,-7.08,-27.31,8.55,1785095196792.9238
0.971,-0.072,-0.229,-9.43,-27.04,10.5,1785095196793.126
0.953,-0.082,-0.227,-11.41,-26.76,12.15,1785095196793.329
0.923,-0.089,-0.23,-12.88,-27.04,14.04,1785095196793.531
0.892,-0.104,-0.23,-13.76,-27.77,15.75,1785095196793.739
0.878,-0.122,-0.226,-14.16,-28.81,16.17,1785095196793.942
0.892,-0.144,-0.227,-13.03,-29.82,15.44,1785095196794.153
0.919,-0.159,-0.224,-10.01,-30.52,14.28,1785095196794.354
0.919,-0.159,-0.224,-4.91,-30.82,13.67,1785095196794.559
0.945,-0.167,-0.236,0.67,-30.67,14.01,1785095196794.7788
0.944,-0.172,-0.242,5.65,-31.13,14.89,1785095196794.975
0.924,-0.17,-0.243,10.47,-31.77,15.9,1785095196795.177
0.906,-0.162,-0.254,10.47,-31.77,15.9,1785095196795.382
0.88,-0.155,-0.269,12.97,-32.5,16.91,1785095196795.5872
0.859,-0.14,-0.279,11.93,-33.2,18.52,1785095196795.785
0.852,-0.13,-0.277,7.78,-33.94,20.26,1785095196795.9832
0.876,-0.142,-0.271,3.36,-34.73,20.81,1785095196796.181
0.921,-0.174,-0.269,1.89,-35.55,20.29,1785095196796.574
0.9,-0.192,-0.255,5.07,-35.95,21.3,1785095196796.77
-0.786,-0.995,-0.345,13.64,15.93,-1.16,1785095196797.1033
-0.882,-0.998,-0.316,30.0,20.91,-6.53,1785095196797.2998
-0.954,-0.965,-0.267,41.84,25.85,-9.58,1785095196797.518
-0.989,-0.968,-0.236,46.63,27.56,-9.03,1785095196797.7148
-1.009,-0.93,-0.239,41.47,29.51,-9.22,1785095196808.273
-1.033,-0.844,-0.246,40.44,34.12,-10.47,1785095196821.587
-1.046,-0.837,-0.251,54.75,38.3,-14.95,1785095196827.2969
-1.034,-0.842,-0.284,75.14,40.13,-23.35,1785095196838.084
-1.005,-0.824,-0.328,88.93,38.91,-30.27,1785095196851.2903
-0.976,-0.798,-0.359,92.1,36.84,-35.07,1785095196856.999
-0.961,-0.803,-0.373,89.66,34.27,-38.15,1785095196867.7703
-0.96,-0.822,-0.389,84.38,31.4,-40.22,1785095196878.3691
-0.969,-0.818,-0.397,77.79,29.02,-41.29,1785095196891.641
-0.972,-0.792,-0.384,72.82,28.35,-40.65,1785095196897.3298
-0.96,-0.77,-0.342,71.87,28.87,-38.85,1785095196908.136
-0.935,-0.749,-0.294,74.19,28.47,-36.87,1785095196921.4001
-0.895,-0.746,-0.256,79.17,27.16,-34.03,1785095196927.166
-0.852,-0.742,-0.235,84.75,25.67,-30.09,1785095196937.8528
-0.814,-0.721,-0.186,89.75,23.68,-24.38,1785095196948.653
-0.765,-0.721,-0.139,94.21,20.39,-18.01,1785095196961.8489
-0.725,-0.732,-0.114,95.68,17.0,-12.05,1785095196967.584
-0.692,-0.717,-0.092,90.98,13.61,-4.7,1785095196978.126
-0.655,-0.699,-0.095,82.83,9.55,4.21,1785095196991.4229
-0.613,-0.691,-0.117,73.85,5.68,13.34,1785095196997.521
-0.563,-0.696,-0.134,66.07,2.17,22.74,1785095197007.7078
-0.501,-0.73,-0.156,64.15,-0.67,30.95,1785095197018.2368
-0.436,-0.765,-0.177,69.15,-2.29,37.45,1785095197031.476
-0.388,-0.772,-0.184,76.66,-2.84,44.34,1785095197037.5093
-0.363,-0.749,-0.192,81.33,-3.05,52.77,1785095197047.641
-0.358,-0.705,-0.177,80.14,-3.42,61.98,1785095197058.2021
-0.362,-0.675,-0.147,75.05,-4.7,70.74,1785095197071.285
-0.369,-0.696,-0.12,68.42,-5.62,78.71,1785095197077.364
-0.375,-0.742,-0.098,62.17,-6.07,83.86,1785095197087.6821
-0.363,-0.787,-0.077,57.83,-5.89,87.47,1785095197098.264
-0.34,-0.852,-0.095,57.5,-4.94,89.82,1785095197111.473
-0.313,-0.902,-0.117,59.08,-3.11,91.16,1785095197117.455
-0.29,-0.934,-0.126,62.62,-1.89,91.95,1785095197127.739
-0.288,-0.956,-0.141,67.63,-0.89,92.23,1785095197138.241
-0.294,-0.978,-0.159,72.27,0.82,92.35,1785095197151.3237
-0.313,-0.968,-0.198,74.34,3.2,92.5,1785095197157.454
-0.318,-0.914,-0.227,72.39,5.49,93.17,1785095197167.657
-0.311,-0.868,-0.234,66.29,6.62,93.08,1785095197178.2432
-0.312,-0.867,-0.225,58.05,7.97,91.1,1785095197191.49
-0.335,-0.91,-0.199,50.84,10.5,86.86,1785095197197.4202
-0.362,-0.957,-0.176,48.01,12.97,80.69,1785095197207.8801
-0.379,-0.983,-0.155,48.77,15.11,74.19,1785095197218.54
-0.381,-1.012,-0.132,51.36,16.72,67.32,1785095197231.751
-0.388,-1.034,-0.112,55.48,17.67,60.06,1785095197237.7878
-0.408,-1.042,-0.08,63.39,18.59,54.35,1785095197248.2148
-0.425,-1.038,-0.08,74.62,19.56,50.26,1785095197261.445
-0.433,-1.023,-0.11,83.32,20.51,46.08,1785095197267.4858
-0.428,-1.012,-0.159,84.63,20.75,41.26,1785095197277.905
-0.432,-1.0,-0.199,79.59,22.16,36.23,1785095197288.705
-0.45,-1.008,-0.187,73.31,23.9,32.01,1785095197301.7979
-0.465,-1.014,-0.139,68.15,24.02,27.22,1785095197307.7231
-0.462,-1.005,-0.087,64.49,23.38,22.0,1785095197318.253
-0.447,-0.986,-0.041,62.44,24.96,13.73,1785095197331.491
-0.455,-0.958,-0.042,59.88,24.6,3.27,1785095197337.46
-0.541,-1.001,-0.041,55.24,21.88,0.34,1785095197347.777
-0.446,-1.133,-0.061,49.53,14.22,13.15,1785095197358.418
-0.47,-1.021,-0.073,46.66,16.72,4.18,1785095197371.702
-0.466,-0.982,-0.099,44.71,16.3,0.03,1785095197377.5842
-0.495,-0.935,-0.099,35.49,14.47,-6.23,1785095197387.923
-0.52,-0.911,-0.095,22.06,10.22,-10.28,1785095197398.494
-0.538,-0.911,-0.077,8.73,6.99,-12.7,1785095197411.759
-0.566,-0.932,-0.063,-1.1,5.49,-13.58,1785095197417.608
-0.585,-0.947,-0.063,-9.89,1.86,-12.67,1785095197427.7297
-0.56,-0.94,-0.058,-16.42,0.27,-11.96,1785095197438.2952
-0.533,-0.917,-0.037,-17.55,2.62,-13.58,1785095197451.5112
-0.529,-0.901,-0.014,-14.8,3.75,-16.17,1785095197457.4678
-0.519,-0.909,0.002,-10.04,3.97,-19.71,1785095197467.6921
-0.505,-0.928,-0.008,-1.92,5.22,-24.51,1785095197478.144
-0.508,-0.936,-0.037,7.54,7.72,-29.63,1785095197488.7878
-0.537,-0.94,-0.058,14.07,9.92,-34.49,1785095197501.892
-0.568,-0.948,-0.076,15.38,11.38,-38.54,1785095197507.831
-0.631,-0.909,-0.075,12.57,15.17,-44.8,1785095197518.272
-0.631,-0.909,-0.075,7.6,15.63,-43.12,1785095197531.4932
-0.634,-0.947,-0.085,1.19,19.93,-48.52,1785095197537.506
-0.637,-0.95,-0.061,-3.81,22.37,-53.9,1785095197547.683
-0.637,-0.989,-0.065,-7.87,23.16,-59.66,1785095197558.244
-0.653,-1.03,-0.037,-7.87,23.16,-59.66,1785095197571.531
-0.67,-1.11,-0.012,-6.56,24.51,-64.09,1785095197577.437
-0.681,-1.205,-0.007,-0.06,24.63,-69.15,1785095197587.7239
-0.667,-1.277,-0.004,11.51,24.05,-76.3,1785095197598.413
-0.622,-1.322,-0.034,28.02,25.45,-86.34,1785095197611.613
-0.59,-1.306,-0.078,43.31,28.63,-98.82,1785095197617.6829
-0.552,-1.271,-0.143,50.57,28.75,-109.32,1785095197628.196
-0.514,-1.236,-0.188,49.01,28.63,-121.01,1785095197641.393
-0.485,-1.246,-0.198,42.76,29.57,-132.76,1785095197647.307
-0.47,-1.273,-0.192,35.4,30.85,-145.7,1785095197658.156
-0.465,-1.288,-0.173,30.76,33.78,-159.4,1785095197671.332
-0.454,-1.297,-0.156,27.5,36.53,-171.12,1785095197677.299
-0.424,-1.299,-0.141,23.87,39.34,-181.71,1785095197688.282
-0.376,-1.299,-0.122,18.52,41.26,-190.5,1785095197698.8271
-0.306,-1.314,-0.097,11.81,41.57,-196.26,1785095197712.0671
-0.227,-1.348,-0.093,6.71,42.54,-199.29,1785095197718.018
-0.153,-1.411,-0.104,6.2,46.05,-200.87,1785095197728.7988
-0.1,-1.476,-0.108,10.01,51.64,-204.54,1785095197741.858
-0.07,-1.536,-0.095,15.17,57.5,-210.58,1785095197747.7917
-0.071,-1.554,-0.076,18.04,62.26,-218.88,1785095197758.563
-0.068,-1.505,-0.042,20.36,66.65,-225.84,1785095197771.901
-0.046,-1.453,-0.031,25.45,70.65,-230.02,1785095197777.7642
-0.02,-1.358,-0.015,29.21,73.43,-232.49,1785095197788.5571
0.028,-1.276,-0.018,31.31,74.59,-231.88,1785095197801.769
0.071,-1.228,-0.037,29.66,75.41,-231.39,1785095197807.6958
0.095,-1.197,-0.046,23.29,75.75,-231.64,1785095197818.5852
0.101,-1.178,-0.045,13.89,75.81,-233.1,1785095197831.739
0.115,-1.111,-0.037,2.59,76.97,-235.02,1785095197837.655
0.143,-1.047,-0.02,-7.87,78.83,-234.96,1785095197848.395
0.16,-1.01,0.024,-18.1,80.72,-235.63,1785095197861.508
0.171,-1.005,0.065,-27.31,82.46,-237.62,1785095197867.457
0.179,-0.998,0.126,-34.67,84.69,-239.57,1785095197878.245
0.203,-0.966,0.184,-38.39,86.76,-239.6,1785095197891.473
0.245,-0.952,0.21,-39.31,88.53,-237.37,1785095197897.4368
0.263,-0.956,0.234,-41.51,89.51,-234.75,1785095197908.188
0.266,-0.958,0.247,-46.02,89.79,-229.93,1785095197921.522
0.264,-0.952,0.261,-53.1,89.66,-222.33,1785095197927.4
0.258,-0.899,0.268,-64.18,88.78,-212.78,1785095197938.2751
0.267,-0.827,0.282,-79.44,87.95,-202.09,1785095197951.4602
0.293,-0.814,0.311,-95.25,86.18,-194.31,1785095197957.075
0.304,-0.87,0.359,-106.36,84.02,-190.98,1785095197968.226
0.311,-0.941,0.408,-108.19,81.67,-189.61,1785095197981.49
0.336,-0.97,0.438,-100.56,78.01,-187.6,1785095197987.514
0.36,-0.949,0.448,-89.48,72.94,-184.76,1785095197998.38
0.392,-0.892,0.449,-81.45,66.56,-181.13,1785095198011.641
0.428,-0.838,0.435,-78.04,59.51,-177.25,1785095198017.687
0.442,-0.789,0.417,-79.47,52.31,-173.28,1785095198029.158
0.456,-0.722,0.391,-85.7,45.14,-168.8,1785095198041.631
0.478,-0.678,0.393,-93.78,37.63,-164.1,1785095198047.559
0.498,-0.693,0.416,-98.91,29.97,-162.21,1785095198058.311
0.51,-0.724,0.453,-99.73,21.12,-160.89,1785095198071.5898
0.526,-0.739,0.482,-92.35,11.81,-159.95,1785095198077.5051
0.555,-0.731,0.472,-81.61,0.52,-158.27,1785095198088.195
0.573,-0.665,0.431,-75.05,-11.41,-155.16,1785095198101.551
0.574,-0.604,0.376,-73.79,-22.52,-151.68,1785095198107.428
0.571,-0.577,0.308,-77.09,-32.32,-149.78,1785095198118.143
0.565,-0.581,0.248,-82.64,-40.89,-148.9,1785095198131.386
0.551,-0.623,0.206,-86.06,-47.79,-150.0,1785095198137.495
0.548,-0.653,0.176,-86.95,-53.87,-152.41,1785095198147.9622
0.557,-0.645,0.152,-85.6,-59.66,-152.23,1785095198161.3948
0.574,-0.624,0.124,-82.49,-64.79,-151.19,1785095198167.398
0.616,-0.566,0.105,-81.21,-69.43,-151.37,1785095198178.0989
0.65,-0.503,0.063,-80.42,-73.12,-151.98,1785095198188.822
0.667,-0.442,0.026,-80.17,-75.44,-152.56,1785095198202.131
0.664,-0.385,-0.011,-79.78,-77.39,-153.84,1785095198208.079
0.665,-0.325,-0.034,-80.42,-78.68,-154.97,1785095198218.814
0.673,-0.282,-0.063,-81.55,-79.9,-156.38,1785095198232.0142
0.661,-0.266,-0.112,-82.61,-80.05,-157.05,1785095198238.032
0.639,-0.286,-0.177,-82.95,-78.86,-158.06,1785095198248.775
0.61,-0.317,-0.215,-82.58,-78.04,-162.76,1785095198261.989
0.603,-0.318,-0.231,-80.51,-77.73,-164.59,1785095198267.931
0.606,-0.258,-0.221,-77.55,-78.46,-162.57,1785095198278.73
0.621,-0.166,-0.193,-74.71,-79.93,-160.04,1785095198292.0298
0.625,-0.123,-0.187,-70.25,-82.03,-160.86,1785095198297.962
0.616,-0.072,-0.18,-67.02,-83.99,-163.58,1785095198308.715
0.601,-0.014,-0.196,-62.81,-86.43,-163.43,1785095198322.1528
0.557,0.028,-0.26,-57.8,-88.14,-162.69,1785095198327.866
0.488,0.057,-0.325,-55.06,-88.5,-162.48,1785095198338.6482
0.43,0.076,-0.375,-54.51,-88.47,-162.33,1785095198351.8772
0.398,0.079,-0.431,-55.18,-88.02,-161.93,1785095198357.846
0.375,0.082,-0.457,-56.12,-86.83,-160.92,1785095198368.808
0.379,0.131,-0.448,-55.48,-86.46,-159.18,1785095198381.8372
0.398,0.216,-0.414,-51.36,-86.31,-156.13,1785095198387.878
0.413,0.271,-0.385,-44.1,-86.4,-152.53,1785095198398.5688
0.416,0.309,-0.37,-37.78,-86.25,-151.16,1785095198411.853
0.409,0.376,-0.401,-33.66,-85.94,-151.34,1785095198417.7952
0.404,0.49,-0.445,-30.21,-85.02,-149.05,1785095198428.5737
0.383,0.618,-0.525,-26.55,-82.95,-143.74,1785095198441.8208
0.333,0.749,-0.622,-26.8,-77.91,-135.44,1785095198447.745
0.29,0.83,-0.688,-31.46,-70.28,-124.06,1785095198458.584
0.283,0.849,-0.701,-38.45,-61.22,-112.34,1785095198471.8442
0.307,0.827,-0.675,-42.7,-51.67,-100.19,1785095198477.3062
0.336,0.788,-0.632,-40.89,-43.58,-87.65,1785095198488.4238
0.349,0.768,-0.615,-32.23,-36.84,-76.2,1785095198501.625
0.341,0.801,-0.634,-17.3,-30.49,-66.04,1785095198507.561
0.334,0.871,-0.663,2.01,-23.99,-55.64,1785095198517.9907
0.33,0.929,-0.714,21.79,-17.4,-44.8,1785095198528.759
0.319,0.979,-0.764,36.35,-9.95,-32.53,1785095198541.897
0.307,1.006,-0.785,45.23,-2.04,-18.28,1785095198547.794
0.312,1.015,-0.791,50.9,5.31,-3.81,1785095198557.968
0.326,1.01,-0.788,56.4,12.27,9.77,1785095198568.801
0.337,1.0,-0.786,62.04,18.34,21.52,1785095198582.035
0.349,0.996,-0.793,67.08,24.11,31.56,1785095198587.8242
0.364,0.99,-0.79,71.23,29.73,40.53,1785095198598.24
0.382,0.956,-0.762,75.26,34.79,49.13,1785095198611.5552
0.404,0.901,-0.744,78.49,38.97,56.95,1785095198617.599
0.438,0.851,-0.736,79.71,42.66,64.21,1785095198628.0059
0.478,0.806,-0.747,80.45,45.87,71.23,1785095198638.6108
0.498,0.766,-0.771,81.42,48.98,77.61,1785095198651.9028
0.507,0.752,-0.807,79.71,51.88,83.96,1785095198657.811
0.522,0.749,-0.818,73.34,55.6,90.85,1785095198668.295
0.553,0.73,-0.805,64.97,59.11,97.14,1785095198681.522
0.589,0.689,-0.783,56.98,62.56,102.88,1785095198687.577
0.614,0.629,-0.756,48.92,66.99,109.2,1785095198698.178
0.632,0.542,-0.711,42.18,71.93,116.09,1785095198711.5012
0.648,0.441,-0.659,38.7,76.78,121.98,1785095198717.3782
0.669,0.331,-0.612,40.96,80.72,127.6,1785095198728.347
0.69,0.239,-0.6,48.89,84.05,132.24,1785095198741.415
0.697,0.196,-0.599,59.27,87.68,136.17,1785095198747.324
0.7,0.185,-0.608,67.35,91.56,139.38,1785095198758.168
0.719,0.191,-0.611,70.93,96.22,140.9,1785095198771.3909
0.745,0.201,-0.61,70.35,102.36,142.46,1785095198777.363
0.75,0.22,-0.573,64.15,109.13,146.28,1785095198788.257
0.755,0.21,-0.529,54.2,114.99,151.62,1785095198801.492
0.755,0.21,-0.529,41.57,121.07,156.22,1785095198807.4749
0.773,0.155,-0.472,28.53,125.98,158.85,1785095198818.534
0.801,0.066,-0.415,18.52,129.95,160.16,1785095198831.753
0.832,-0.025,-0.381,13.73,133.24,161.69,1785095198837.755
0.847,-0.105,-0.361,13.73,133.24,161.69,1785095198848.756
0.856,-0.165,-0.331,13.09,135.96,162.27,1785095198861.9539
0.865,-0.221,-0.3,15.35,138.65,161.44,1785095198867.954
0.859,-0.267,-0.257,17.49,142.22,160.44,1785095198881.362
0.845,-0.303,-0.176,18.52,144.69,160.59,1785095198887.317
0.845,-0.361,-0.11,20.72,145.57,160.44,1785095198898.336
0.852,-0.412,-0.051,23.1,145.7,158.57,1785095198911.634
0.874,-0.442,-0.007,24.81,145.12,156.53,1785095198917.897
0.888,-0.482,0.039,25.79,143.99,153.81,1785095198928.806
0.891,-0.541,0.081,26.55,141.82,149.27,1785095198941.679
0.883,-0.595,0.108,26.89,139.35,143.04,1785095198947.9219
0.861,-0.645,0.127,26.43,136.42,136.27,1785095198958.6912
0.844,-0.681,0.169,24.54,132.21,128.15,1785095198972.122
0.84,-0.721,0.229,22.06,125.52,118.02,1785095198978.022
0.843,-0.759,0.285,18.62,117.98,107.43,1785095198991.4902
0.845,-0.802,0.35,13.98,109.23,96.87,1785095198997.4202
0.851,-0.85,0.404,9.55,99.03,85.15,1785095199008.157
0.852,-0.886,0.443,4.43,87.89,73.43,1785095199018.7158
0.842,-0.918,0.469,-0.95,76.42,60.88,1785095199031.8552
0.853,-0.971,0.477,-5.74,64.67,46.69,1785095199037.9011
0.844,-1.013,0.49,-9.58,53.01,32.26,1785095199048.1448
0.836,-1.035,0.485,-10.59,42.05,18.52,1785095199058.764
0.841,-1.029,0.48,-10.83,31.31,3.94,1785095199072.041
0.845,-1.022,0.479,-13.06,20.08,-9.06,1785095199077.906
0.849,-1.012,0.476,-16.08,9.28,-22.03,1785095199088.226
0.853,-1.001,0.47,-18.49,-1.04,-34.88,1785095199098.701
0.863,-0.987,0.461,-18.92,-10.32,-46.78,1785095199111.9622
0.87,-0.963,0.444,-17.15,-18.74,-57.44,1785095199117.912
0.881,-0.933,0.413,-14.71,-26.86,-67.23,1785095199128.759
0.881,-0.896,0.378,-13.15,-34.33,-76.78,1785095199141.752
0.879,-0.856,0.348,-11.9,-40.5,-86.25,1785095199147.222
0.887,-0.811,0.327,-10.74,-45.56,-95.71,1785095199158.19
0.889,-0.769,0.316,-8.88,-50.63,-104.22,1785095199170.291
0.884,-0.735,0.295,-6.32,-56.09,-111.88,1785095199181.934
0.877,-0.696,0.273,-4.27,-61.77,-119.27,1785095199188.0588
0.866,-0.642,0.241,-2.75,-67.26,-126.22,1785095199198.504
0.86,-0.576,0.2,-1.5,-72.42,-132.69,1785095199211.768
0.856,-0.515,0.158,-0.31,-77.18,-138.92,1785095199217.707
0.851,-0.454,0.117,0.95,-81.27,-144.63,1785095199228.239
0.85,-0.408,0.086,2.84,-84.81,-149.02,1785095199241.468
0.845,-0.365,0.059,4.88,-88.41,-152.78,1785095199247.368
0.832,-0.315,0.034,6.47,-91.71,-155.98,1785095199257.89
0.819,-0.261,0.012,7.32,-94.79,-158.12,1785095199268.5562
0.809,-0.213,-0.01,6.96,-97.75,-160.07,1785095199281.7678
0.798,-0.175,-0.026,5.89,-100.38,-162.02,1785095199287.831
0.787,-0.16,-0.05,5.31,-102.51,-163.67,1785095199298.41
0.771,-0.153,-0.088,4.15,-104.31,-165.14,1785095199311.678
0.744,-0.138,-0.126,2.72,-106.48,-166.63,1785095199317.615
0.718,-0.094,-0.153,2.62,-108.55,-167.58,1785095199328.552
0.694,-0.052,-0.172,5.4,-110.57,-167.76,1785095199341.6472
0.671,-0.031,-0.195,9.34,-112.09,-168.83,1785095199347.5818
0.643,0.004,-0.208,11.32,-113.22,-170.32,1785095199358.4749
0.62,0.054,-0.223,13.06,-114.93,-170.63,1785095199371.752
0.607,0.115,-0.249,16.66,-116.92,-169.74,1785095199377.6682
0.597,0.189,-0.281,20.45,-118.5,-168.1,1785095199388.739
0.587,0.251,-0.322,23.01,-119.72,-166.2,1785095199401.918
0.569,0.32,-0.375,23.56,-120.27,-163.95,1785095199407.943
0.548,0.407,-0.429,22.95,-119.48,-160.07,1785095199421.406
0.531,0.486,-0.476,21.85,-117.34,-154.52,1785095199427.331
0.518,0.56,-0.541,18.43,-113.56,-147.95,1785095199438.3428
0.5,0.652,-0.618,13.25,-107.33,-139.47,1785095199451.57
0.487,0.742,-0.703,9.55,-98.82,-127.63,1785095199457.6262
0.491,0.82,-0.776,8.0,-88.38,-114.44,1785095199468.2
0.515,0.867,-0.815,10.41,-77.18,-102.02,1785095199481.413
0.549,0.87,-0.831,19.87,-67.57,-92.65,1785095199487.503
0.572,0.854,-0.874,36.41,-59.63,-87.04,1785095199497.964
0.553,0.889,-0.89,55.18,-51.79,-81.85,1785095199508.6501
0.524,0.908,-0.866,65.98,-44.56,-72.88,1785095199521.945
0.503,0.902,-0.827,55.73,-37.08,-63.54,1785095199527.8022
0.511,0.895,-0.807,31.46,-28.53,-51.61,1785095199538.386
0.51,0.895,-0.802,11.93,-19.01,-36.53,1785095199551.5361
0.481,0.872,-0.795,7.32,-9.98,-19.87,1785095199557.49
0.459,0.823,-0.792,18.25,-2.47,-5.74,1785095199567.6758
0.45,0.777,-0.791,43.15,3.91,4.39,1785095199578.103
0.448,0.716,-0.813,78.59,9.8,12.02,1785095199588.734
0.462,0.67,-0.866,115.21,16.82,17.98,1785095199601.939
0.488,0.657,-0.912,144.26,25.03,24.96,1785095199607.9092
0.521,0.661,-0.948,161.23,33.57,33.11,1785095199618.691
0.554,0.664,-0.965,163.34,41.23,40.93,1785095199631.9011
0.581,0.654,-0.961,154.09,47.43,47.33,1785095199637.9033
0.598,0.616,-0.967,140.29,52.86,52.43,1785095199648.747
0.61,0.578,-0.963,124.82,58.84,57.28,1785095199661.8792
0.623,0.546,-0.952,110.17,65.13,62.2,1785095199667.7717
0.642,0.509,-0.939,96.84,71.66,66.5,1785095199678.5002
0.668,0.467,-0.911,84.44,78.4,70.01,1785095199691.762
0.703,0.409,-0.868,73.18,84.38,72.51,1785095199697.7012
0.731,0.341,-0.831,63.97,89.42,74.4,1785095199708.202
0.745,0.286,-0.801,55.82,94.42,76.63,1785095199721.444
0.749,0.247,-0.769,48.89,99.49,78.98,1785095199727.373
0.743,0.216,-0.728,43.89,104.77,81.61,1785095199738.059
0.732,0.179,-0.699,39.09,110.14,83.65,1785095199748.728
0.735,0.159,-0.662,31.86,116.09,84.99,1785095199761.968
0.765,0.147,-0.647,23.5,122.01,86.43,1785095199767.9832
0.783,0.133,-0.616,14.37,128.97,88.41,1785095199778.688
0.793,0.1,-0.574,4.73,134.62,90.91,1785095199791.997
0.798,0.088,-0.569,-8.27,139.93,92.53,1785095199798.346
0.785,0.115,-0.503,-25.18,145.82,96.32,1785095199808.647
0.784,0.087,-0.425,-40.13,149.27,101.02,1785095199821.792
0.797,0.051,-0.371,-54.69,151.95,103.43,1785095199827.749
0.806,0.04,-0.305,-69.22,154.42,106.05,1785095199838.7358
0.817,-0.013,-0.25,-79.47,155.74,108.74,1785095199852.011
0.821,-0.077,-0.198,-86.0,156.83,109.56,1785095199857.907
0.828,-0.13,-0.153,-89.05,157.81,109.74,1785095199871.369
0.846,-0.163,-0.126,-89.97,158.94,109.81,1785095199877.3271
0.851,-0.189,-0.075,-89.14,159.92,111.0,1785095199888.4822
0.85,-0.225,-0.037,-86.12,159.95,112.83,1785095199901.849
0.841,-0.229,-0.002,-83.93,159.34,114.17,1785095199907.711
0.835,-0.231,0.039,-82.06,158.09,116.18,1785095199918.609
0.837,-0.266,0.075,-80.54,156.29,117.47,1785095199931.8452
0.842,-0.313,0.119,-80.51,154.33,116.61,1785095199938.088
0.849,-0.359,0.165,-81.55,151.62,115.21,1785095199948.907
0.855,-0.408,0.222,-82.83,148.08,113.22,1785095199962.1702
0.857,-0.471,0.27,-82.55,142.8,109.32,1785095199968.137
0.857,-0.521,0.313,-82.06,136.45,103.89,1785095199981.485
0.851,-0.563,0.369,-80.11,129.03,98.79,1785095199987.544
0.84,-0.612,0.413,-76.45,120.55,93.6,1785095199998.277
0.828,-0.677,0.434,-72.51,111.79,87.65,1785095200011.521
0.834,-0.723,0.446,-69.86,102.94,80.36,1785095200017.5537
0.844,-0.765,0.484,-67.05,93.81,71.72,1785095200028.178
0.866,-0.808,0.515,-63.05,83.62,62.29,1785095200038.831
0.891,-0.822,0.555,-58.41,72.79,53.41,1785095200052.0598
0.894,-0.839,0.587,-51.91,61.71,44.89,1785095200058.013
0.879,-0.85,0.611,-45.96,50.78,35.22,1785095200068.51
0.866,-0.866,0.616,-41.32,40.13,25.03,1785095200081.7302
0.866,-0.866,0.616,-39.03,29.24,14.65,1785095200087.716
0.864,-0.878,0.606,-38.48,18.46,4.06,1785095200098.133
0.863,-0.874,0.592,-38.18,8.45,-6.5,1785095200108.583
0.865,-0.873,0.567,-37.75,-0.49,-17.43,1785095200121.9048
0.871,-0.867,0.548,-37.23,-9.64,-27.83,1785095200127.757
0.881,-0.848,0.541,-37.23,-9.64,-27.83,1785095200138.101
0.896,-0.829,0.532,-36.26,-18.34,-37.14,1785095200148.4019
0.908,-0.818,0.52,-34.58,-26.52,-45.96,1785095200162.012
0.917,-0.8,0.503,-32.01,-34.03,-54.54,1785095200167.902
0.924,-0.781,0.484,-27.77,-40.71,-63.51,1785095200178.37
0.928,-0.762,0.455,-22.83,-47.33,-72.42,1785095200191.6147
0.928,-0.719,0.428,-18.49,-53.41,-80.23,1785095200197.518
0.919,-0.674,0.401,-14.28,-58.99,-87.25,1785095200208.437
0.907,-0.647,0.374,-10.38,-64.39,-94.33,1785095200218.741
0.9,-0.612,0.348,-7.26,-70.38,-100.83,1785095200231.947
0.905,-0.565,0.314,-3.75,-76.17,-105.93,1785095200238.006
0.904,-0.515,0.263,0.24,-80.54,-110.39,1785095200248.6301
0.897,-0.471,0.223,4.18,-84.02,-114.99,1785095200261.656
0.894,-0.431,0.197,8.06,-86.95,-119.6,1785095200267.62
0.891,-0.399,0.176,11.44,-89.69,-123.66,1785095200278.2432
0.876,-0.378,0.144,14.1,-92.2,-127.23,1785095200291.473
0.855,-0.36,0.119,15.72,-94.73,-130.56,1785095200297.405
0.84,-0.338,0.095,16.57,-97.87,-133.76,1785095200308.206
0.833,-0.296,0.06,18.22,-101.05,-136.85,1785095200321.583
0.826,-0.245,0.022,21.45,-103.4,-139.29,1785095200327.414
0.809,-0.203,-0.01,25.33,-105.04,-141.42,1785095200338.437
0.788,-0.162,-0.037,28.05,-106.81,-143.38,1785095200351.691
0.761,-0.151,-0.062,31.74,-108.68,-145.42,1785095200357.624
0.733,-0.137,-0.094,35.62,-110.6,-147.56,1785095200369.521
0.715,-0.114,-0.116,40.68,-112.43,-148.99,1785095200381.8892
0.695,-0.085,-0.147,47.43,-114.81,-150.12,1785095200387.969
0.683,-0.042,-0.166,54.14,-116.92,-150.4,1785095200401.336
0.668,-0.015,-0.18,60.7,-119.42,-150.58,1785095200407.369
0.645,0.019,-0.222,64.94,-121.98,-150.67,1785095200418.3948
0.618,0.075,-0.269,65.43,-123.36,-150.09,1785095200431.5232
0.599,0.121,-0.311,65.22,-124.3,-148.78,1785095200437.564
0.59,0.174,-0.368,66.29,-124.73,-147.62,1785095200448.718
0.594,0.231,-0.407,68.61,-124.52,-145.79,1785095200461.772
0.594,0.257,-0.452,72.21,-123.66,-144.66,1785095200467.7173
0.589,0.26,-0.471,76.02,-122.47,-143.65,1785095200478.7441
0.586,0.257,-0.5,80.75,-122.17,-142.28,1785095200491.979
0.575,0.301,-0.558,84.75,-121.77,-140.17,1785095200497.927
0.563,0.354,-0.598,87.53,-120.12,-135.26,1785095200511.392
0.549,0.378,-0.671,86.46,-117.07,-130.59,1785095200517.3518
0.54,0.458,-0.727,75.5,-110.84,-125.06,1785095200528.5042
0.532,0.541,-0.767,62.56,-104.04,-117.34,1785095200541.6692
0.531,0.591,-0.81,51.91,-96.77,-108.8,1785095200547.5671
0.53,0.61,-0.847,42.63,-88.72,-101.35,1785095200558.441
0.526,0.622,-0.897,35.89,-80.14,-93.78,1785095200571.679
0.515,0.655,-0.947,34.12,-70.59,-86.4,1785095200577.571
0.507,0.695,-0.972,37.75,-60.73,-78.1,1785095200588.132
0.509,0.712,-0.974,43.18,-51.06,-70.59,1785095200598.756
0.507,0.711,-0.963,45.41,-42.3,-63.78,1785095200611.9949
0.504,0.698,-0.949,44.07,-34.06,-56.0,1785095200617.902
0.491,0.696,-0.947,42.82,-26.12,-47.76,1785095200628.47
0.478,0.722,-0.949,45.01,-18.46,-38.7,1785095200641.697
0.467,0.734,-0.953,50.29,-11.66,-30.52,1785095200647.71
0.462,0.712,-0.967,55.94,-5.74,-24.26,1785095200658.001
0.47,0.687,-1.0,57.95,0.55,-19.65,1785095200668.632
0.472,0.7,-1.031,54.69,7.51,-13.89,1785095200681.8691
0.475,0.726,-1.044,49.75,14.31,-6.13,1785095200687.821
0.486,0.734,-1.031,46.24,20.63,1.53,1785095200698.1353
0.503,0.725,-1.003,44.07,25.51,8.33,1785095200708.616
0.525,0.713,-0.983,42.73,29.91,15.29,1785095200721.909
0.544,0.692,-0.951,41.23,33.69,22.13,1785095200727.826
0.565,0.669,-0.918,39.03,35.89,27.89,1785095200738.3572
0.578,0.648,-0.902,36.26,37.57,32.9,1785095200751.673
0.591,0.631,-0.893,33.3,39.7,38.09,1785095200757.559
0.609,0.619,-0.895,29.79,42.02,43.52,1785095200768.146
0.622,0.606,-0.9,24.45,45.14,48.68,1785095200778.689
0.631,0.595,-0.902,16.54,48.01,53.9,1785095200791.925
0.641,0.58,-0.914,7.72,50.75,59.51,1785095200797.8462
0.641,0.55,-0.895,-0.34,54.23,64.79,1785095200808.364
0.654,0.506,-0.866,-6.78,57.04,69.03,1785095200818.774
0.677,0.479,-0.846,-13.49,59.63,72.42,1785095200832.0132
0.677,0.45,-0.822,-20.17,62.75,76.94,1785095200837.965
0.661,0.413,-0.797,-25.91,65.92,81.39,1785095200848.549
0.652,0.391,-0.77,-31.62,68.82,85.3,1785095200861.729
0.659,0.376,-0.735,-36.68,71.84,88.75,1785095200867.6702
0.676,0.352,-0.694,-41.23,74.8,91.95,1785095200878.1929
0.694,0.321,-0.652,-45.78,76.85,94.76,1785095200888.8562
0.712,0.274,-0.623,-48.28,78.62,97.9,1785095200902.1042
0.733,0.242,-0.608,-49.5,80.97,101.41,1785095200907.9858
0.738,0.221,-0.587,-49.71,83.29,105.2,1785095200918.538
0.734,0.194,-0.568,-48.68,84.84,108.8,1785095200931.673
0.735,0.15,-0.542,-47.21,86.83,111.3,1785095200938.045
0.746,0.11,-0.492,-44.86,88.78,112.28,1785095200948.732
0.756,0.077,-0.452,-41.26,90.73,113.25,1785095200962.025
0.761,0.06,-0.417,-39.64,92.87,114.38,1785095200967.9138
0.779,0.038,-0.368,-39.34,94.27,115.73,1785095200978.697
0.809,0.002,-0.335,-38.54,95.28,116.7,1785095200991.9382
0.817,-0.02,-0.312,-39.34,96.22,117.31,1785095200997.839
0.801,-0.057,-0.301,-39.55,96.44,118.17,1785095201008.78
0.785,-0.091,-0.302,-39.16,96.77,117.92,1785095201021.962
0.782,-0.1,-0.281,-38.12,96.77,117.07,1785095201027.807
0.795,-0.113,-0.257,-35.31,96.22,115.42,1785095201038.556
0.807,-0.128,-0.237,-32.69,96.19,113.22,1785095201051.884
0.824,-0.129,-0.195,-31.34,96.44,111.42,1785095201057.796
0.84,-0.146,-0.169,-31.07,95.89,109.84,1785095201068.534
0.852,-0.176,-0.146,-33.78,96.29,108.22,1785095201081.7668
0.88,-0.219,-0.132,-38.09,96.07,106.85,1785095201087.905
0.891,-0.26,-0.13,-41.93,94.94,105.81,1785095201098.51
0.89,-0.278,-0.146,-45.32,95.16,105.41,1785095201111.7927
0.887,-0.275,-0.141,-49.1,95.8,106.36,1785095201117.729
0.89,-0.311,-0.136,-51.79,95.52,104.89,1785095201128.6772
0.901,-0.351,-0.117,-55.67,96.53,99.77,1785095201141.767
0.946,-0.38,-0.106,-60.73,95.98,97.29,1785095201147.286
0.832,-0.392,-0.01,-63.78,100.74,93.45,1785095201158.305
0.975,-0.423,-0.039,-66.04,95.77,90.21,1785095201171.536
0.991,-0.463,0.007,-69.19,89.27,92.29,1785095201177.43
0.882,-0.446,0.042,-69.7,94.94,88.17,1785095201188.0178
0.91,-0.496,0.076,-68.73,92.96,83.16,1785095201198.5889
0.959,-0.501,0.11,-66.59,87.65,73.79,1785095201211.862
0.97,-0.56,0.13,-63.84,83.53,72.45,1785095201217.788
0.951,-0.581,0.166,-62.32,81.3,68.03,1785095201228.3389
0.956,-0.594,0.182,-59.27,78.01,61.98,1785095201241.562
0.957,-0.618,0.211,-57.01,73.21,57.1,1785095201247.5789
0.946,-0.618,0.23,-54.99,68.06,51.45,1785095201258.0327
0.966,-0.625,0.237,-50.72,63.02,44.37,1785095201268.7139
0.965,-0.651,0.247,-46.24,57.68,38.36,1785095201281.9
0.951,-0.65,0.253,-44.19,52.0,31.59,1785095201287.932
0.958,-0.651,0.269,-43.55,45.84,24.41,1785095201298.3857
0.953,-0.673,0.292,-42.21,39.7,17.37,1785095201311.6318
0.937,-0.704,0.312,-38.88,33.33,9.25,1785095201317.66
0.931,-0.715,0.33,-34.24,26.31,1.31,1785095201327.969
0.945,-0.707,0.344,-29.36,18.52,-6.04,1785095201338.452
0.963,-0.701,0.332,-24.05,11.66,-12.88,1785095201351.701
0.959,-0.695,0.326,-19.29,5.31,-18.92,1785095201357.687
0.959,-0.695,0.326,-14.86,-1.31,-24.26,1785095201367.99
0.963,-0.67,0.315,-11.11,-7.45,-31.22,1785095201378.528
0.953,-0.632,0.3,-9.98,-12.73,-37.93,1785095201391.802
0.941,-0.6,0.284,-10.28,-17.55,-43.03,1785095201397.717
0.95,-0.58,0.272,-9.49,-22.22,-46.82,1785095201408.281
0.959,-0.568,0.262,-9.49,-22.22,-46.82,1785095201418.651
0.955,-0.55,0.249,-7.63,-26.28,-50.97,1785095201431.8398
0.95,-0.51,0.25,-6.13,-29.82,-56.09,1785095201437.855
0.945,-0.509,0.245,-3.81,-33.45,-60.15,1785095201448.273
0.94,-0.522,0.24,-0.7,-37.14,-63.51,1785095201458.642
0.937,-0.5,0.232,3.2,-41.05,-66.9,1785095201471.811
0.929,-0.482,0.222,8.85,-44.62,-69.09,1785095201477.7422
0.924,-0.469,0.21,14.95,-48.1,-72.18,1785095201488.3982
0.919,-0.454,0.192,22.13,-51.3,-75.72,1785095201498.85
0.906,-0.423,0.173,28.93,-54.38,-77.97,1785095201512.0608
0.9,-0.381,0.166,35.43,-57.89,-79.32,1785095201518.0007
0.903,-0.355,0.156,42.39,-62.23,-81.73,1785095201528.57
0.903,-0.34,0.131,46.69,-66.65,-84.75,1785095201541.771
0.894,-0.316,0.091,46.24,-70.41,-86.55,1785095201547.684
0.877,-0.276,0.054,41.9,-73.18,-87.01,1785095201558.2139
0.868,-0.254,0.03,37.39,-75.56,-87.77,1785095201569.011
0.864,-0.263,0.018,35.1,-77.76,-89.69,1785095201582.1472
0.86,-0.278,0.015,36.56,-79.62,-92.38,1785095201588.163
0.858,-0.286,0.014,41.51,-81.79,-95.13,1785095201598.604
0.854,-0.299,0.015,50.97,-84.54,-97.72,1785095201611.842
0.844,-0.321,-0.014,66.16,-87.62,-100.59,1785095201617.79
0.84,-0.312,-0.052,85.39,-90.76,-103.09,1785095201628.4739
0.831,-0.269,-0.11,104.53,-93.3,-104.1,1785095201641.694
0.816,-0.226,-0.167,116.52,-95.0,-103.61,1785095201647.686
0.801,-0.171,-0.217,117.25,-95.52,-102.42,1785095201658.716
0.79,-0.128,-0.227,110.48,-95.52,-100.8,1785095201671.9329
0.786,-0.103,-0.259,101.14,-95.52,-99.49,1785095201677.93
0.772,-0.055,-0.275,89.24,-95.19,-98.45,1785095201688.6821
0.768,-0.013,-0.297,79.68,-95.49,-97.54,1785095201701.8728
0.765,0.021,-0.331,74.1,-95.28,-97.57,1785095201707.805
0.764,0.039,-0.356,72.08,-94.12,-98.51,1785095201718.361
0.764,0.031,-0.366,74.5,-93.39,-100.04,1785095201731.572
