ax,ay,az,gx,gy,gz,timestamp_ms
0.661,0.387,-0.863,23.04,15.81,5.86,1785095212269.4321
0.668,0.382,-0.857,22.31,18.49,8.33,1785095212269.79
0.665,0.369,-0.837,22.31,21.45,11.84,1785095212270.153
0.665,0.34,-0.813,24.26,24.14,15.72,1785095212270.509
0.668,0.312,-0.797,26.86,26.52,18.95,1785095212270.856
0.668,0.295,-0.786,28.57,29.11,22.95,1785095212271.2031
0.668,0.288,-0.778,29.15,31.74,27.5,1785095212271.55
0.671,0.283,-0.773,28.35,33.91,31.71,1785095212271.897
0.683,0.28,-0.775,25.85,35.98,35.07,1785095212272.237
0.697,0.275,-0.763,22.19,38.85,38.21,1785095212272.581
0.724,0.251,-0.74,19.62,41.72,41.17,1785095212272.929
0.757,0.224,-0.724,17.85,44.83,43.46,1785095212273.309
0.762,0.198,-0.701,16.02,48.59,46.48,1785095212273.675
0.756,0.165,-0.679,14.31,52.31,50.45,1785095212274.1382
0.747,0.133,-0.66,13.43,55.36,53.93,1785095212274.517
0.741,0.11,-0.64,13.18,57.56,56.52,1785095212274.8643
0.752,0.102,-0.612,13.12,58.63,58.44,1785095212275.194
0.773,0.091,-0.595,13.76,59.3,59.66,1785095212275.506
0.785,0.072,-0.596,13.55,60.79,60.34,1785095212275.815
0.794,0.059,-0.591,12.3,63.2,60.64,1785095212276.108
0.817,0.039,-0.591,11.47,65.95,61.1,1785095212276.4102
0.837,0.022,-0.594,8.48,69.4,61.4,1785095212276.712
0.847,0.014,-0.572,2.81,73.18,63.33,1785095212277.0078
0.861,-0.011,-0.537,-2.99,76.11,65.68,1785095212277.2942
0.877,-0.042,-0.496,-8.18,78.07,66.13,1785095212277.586
0.893,-0.076,-0.451,-12.33,79.68,65.71,1785095212277.8828
0.9,-0.108,-0.428,-16.45,80.14,64.85,1785095212278.1702
0.896,-0.119,-0.415,-21.73,79.9,63.75,1785095212278.469
0.899,-0.125,-0.41,-26.89,79.47,62.17,1785095212278.767
0.902,-0.127,-0.412,-31.92,79.32,60.06,1785095212279.083
0.911,-0.121,-0.409,-38.61,80.26,57.92,1785095212279.369
0.933,-0.109,-0.384,-47.3,81.12,56.31,1785095212279.662
0.96,-0.123,-0.358,-56.34,81.33,54.75,1785095212279.978
0.967,-0.154,-0.319,-65.37,81.48,53.68,1785095212280.277
0.967,-0.19,-0.282,-73.27,80.75,53.41,1785095212280.611
0.963,-0.208,-0.263,-80.78,79.01,52.64,1785095212280.93
0.95,-0.199,-0.25,-89.94,77.03,52.1,1785095212281.224
0.951,-0.196,-0.241,-99.92,74.89,51.0,1785095212281.5098
0.961,-0.209,-0.24,-109.93,73.7,48.4,1785095212281.812
0.964,-0.232,-0.221,-118.56,73.18,45.78,1785095212282.1091
0.966,-0.271,-0.209,-122.53,72.76,43.76,1785095212282.409
0.973,-0.295,-0.184,-121.8,72.66,42.15,1785095212282.701
0.982,-0.315,-0.157,-116.18,71.96,41.26,1785095212283.0
0.982,-0.32,-0.146,-109.44,70.86,40.5,1785095212283.2808
0.97,-0.29,-0.124,-106.54,69.4,40.28,1785095212283.5698
0.963,-0.295,-0.101,-103.31,66.77,39.46,1785095212283.8281
0.966,-0.322,-0.088,-98.42,63.97,36.77,1785095212284.096
0.964,-0.323,-0.087,-92.78,61.89,34.18,1785095212284.362
0.956,-0.287,-0.079,-88.11,60.34,32.93,1785095212284.62
0.95,-0.263,-0.047,-83.71,58.53,31.59,1785095212284.8809
0.959,-0.278,-0.029,-77.33,55.76,28.9,1785095212285.141
0.972,-0.284,-0.021,-71.69,52.8,25.67,1785095212285.399
0.979,-0.274,-0.022,-67.08,50.48,24.41,1785095212285.6528
0.975,-0.26,-0.028,-63.91,48.62,24.26,1785095212285.92
0.964,-0.249,-0.033,-61.95,46.24,23.41,1785095212286.2192
0.958,-0.251,-0.03,-59.79,44.13,21.85,1785095212286.502
0.953,-0.254,-0.008,-57.31,42.39,19.96,1785095212286.762
0.957,-0.26,0.012,-54.38,40.28,18.25,1785095212287.026
0.957,-0.26,0.012,-50.54,38.36,17.15,1785095212287.3071
0.962,-0.268,0.023,-45.87,36.5,16.75,1785095212287.6292
0.958,-0.274,0.045,-40.28,33.75,16.48,1785095212287.924
0.96,-0.291,0.056,-35.92,30.67,16.11,1785095212288.1868
0.96,-0.287,0.054,-35.92,30.67,16.11,1785095212288.4932
0.955,-0.277,0.067,-31.8,27.47,15.5,1785095212288.768
0.955,-0.279,0.073,-26.52,24.02,14.22,1785095212289.032
0.952,-0.269,0.076,-22.68,20.81,12.36,1785095212289.301
0.949,-0.247,0.071,-20.08,17.7,11.08,1785095212289.566
0.946,-0.227,0.056,-18.13,14.89,10.22,1785095212289.82
0.945,-0.203,0.051,-17.27,12.45,9.28,1785095212290.0842
0.951,-0.187,0.048,-16.63,10.04,8.61,1785095212290.3428
0.957,-0.179,0.042,-16.75,7.93,8.45,1785095212290.591
0.957,-0.171,0.041,-18.22,6.26,8.58,1785095212290.85
0.961,-0.177,0.046,-20.39,4.55,8.73,1785095212291.093
0.972,-0.196,0.049,-21.67,2.32,8.18,1785095212291.321
0.977,-0.211,0.042,-21.67,0.27,7.35,1785095212291.554
0.975,-0.213,0.024,-20.94,-1.28,7.14,1785095212291.786
0.97,-0.214,0.011,-20.63,-2.41,7.08,1785095212292.021
0.975,-0.233,-0.005,-19.38,-3.45,6.35,1785095212292.255
0.981,-0.247,-0.01,-17.67,-4.24,5.28,1785095212292.492
0.985,-0.256,-0.013,-15.87,-4.79,5.22,1785095212292.753
0.989,-0.261,-0.02,-14.44,-5.22,5.55,1785095212293.025
0.991,-0.258,-0.022,-13.58,-5.58,5.86,1785095212293.308
0.998,-0.253,-0.024,-11.87,-6.1,6.29,1785095212293.5732
0.997,-0.248,-0.031,-9.4,-6.68,6.1,1785095212293.8281
0.988,-0.24,-0.038,-7.51,-6.96,5.77,1785095212294.0623
0.988,-0.236,-0.044,-6.13,-7.11,4.97,1785095212294.301
0.998,-0.221,-0.058,-6.26,-7.14,4.33,1785095212294.538
1.001,-0.202,-0.067,-8.21,-6.65,4.21,1785095212294.77
1.004,-0.201,-0.061,-10.28,-6.26,4.27,1785095212295.0288
1.005,-0.213,-0.061,-11.51,-6.13,3.72,1785095212295.275
1.006,-0.222,-0.059,-11.57,-6.07,3.27,1785095212295.51
1.002,-0.234,-0.054,-9.86,-6.32,3.11,1785095212295.745
0.998,-0.236,-0.067,-7.26,-6.56,2.66,1785095212295.9978
0.991,-0.218,-0.077,-5.37,-6.71,2.41,1785095212296.2307
0.996,-0.208,-0.082,-3.69,-6.53,2.04,1785095212296.459
1.003,-0.209,-0.089,-3.02,-6.65,1.74,1785095212296.69
0.999,-0.206,-0.089,-3.27,-6.1,2.04,1785095212296.9248
1.005,-0.193,-0.095,-4.49,-5.19,2.23,1785095212297.14
1.007,-0.19,-0.102,-7.35,-5.13,3.69,1785095212297.3608
0.992,-0.184,-0.095,-10.86,-4.24,3.66,1785095212297.583
0.999,-0.191,-0.094,-12.91,-3.66,3.2,1785095212297.796
0.998,-0.205,-0.096,-13.82,-3.57,3.08,1785095212298.017
0.984,-0.209,-0.099,-13.86,-3.33,2.59,1785095212298.24
0.983,-0.209,-0.097,-13.09,-3.14,2.04,1785095212298.458
0.981,-0.223,-0.094,-11.2,-3.42,1.37,1785095212298.675
0.976,-0.23,-0.094,-8.67,-3.6,0.95,1785095212298.888
0.973,-0.226,-0.094,-5.95,-3.3,0.92,1785095212299.1072
0.986,-0.215,-0.104,-3.48,-3.39,1.16,1785095212299.32
0.982,-0.22,-0.102,-2.2,-3.75,2.32,1785095212299.5388
0.977,-0.215,-0.106,-2.59,-3.33,1.86,1785095212299.78
0.989,-0.206,-0.105,-4.15,-3.63,1.92,1785095212299.989
0.995,-0.202,-0.104,-5.49,-3.78,1.98,1785095212300.205
0.989,-0.197,-0.108,-6.59,-3.54,1.22,1785095212300.426
0.989,-0.195,-0.107,-7.69,-3.33,0.67,1785095212300.641
0.991,-0.196,-0.107,-8.36,-3.08,0.61,1785095212300.8562
0.989,-0.196,-0.101,-8.51,-2.72,1.01,1785095212301.0713
0.99,-0.203,-0.099,-7.66,-2.56,1.04,1785095212301.285
0.994,-0.205,-0.102,-7.02,-2.47,0.82,1785095212301.496
0.993,-0.206,-0.104,-6.56,-2.29,0.79,1785095212301.712
0.99,-0.216,-0.106,-5.52,-2.2,0.52,1785095212301.928
0.984,-0.223,-0.107,-4.03,-2.08,0.24,1785095212302.1519
0.982,-0.233,-0.109,-1.43,-2.01,0.12,1785095212302.3647
0.98,-0.245,-0.103,1.86,-2.01,0.31,1785095212302.5852
0.979,-0.256,-0.1,6.5,-1.95,0.43,1785095212302.8
0.982,-0.261,-0.092,12.85,-1.92,0.34,1785095212303.0012
0.986,-0.259,-0.089,19.5,-2.14,0.37,1785095212303.227
0.981,-0.244,-0.093,24.99,-2.26,0.64,1785095212303.437
0.977,-0.223,-0.102,27.99,-2.2,1.4,1785095212303.641
0.973,-0.207,-0.112,28.26,-1.92,2.2,1785095212303.8552
0.969,-0.196,-0.118,26.09,-1.53,2.9,1785095212304.068
0.969,-0.183,-0.111,22.31,-0.95,3.51,1785095212304.2712
0.972,-0.182,-0.108,18.71,-0.95,3.75,1785095212304.481
0.976,-0.181,-0.106,15.17,-0.85,3.27,1785095212304.691
0.978,-0.188,-0.096,12.12,-0.79,3.11,1785095212304.9011
0.978,-0.207,-0.091,10.99,-0.85,2.72,1785095212305.107
0.973,-0.234,-0.086,12.27,-1.04,2.26,1785095212305.321
0.968,-0.258,-0.077,16.05,-1.43,1.62,1785095212305.534
0.968,-0.275,-0.069,22.98,-2.2,1.04,1785095212305.7432
0.973,-0.291,-0.064,33.3,-3.14,0.67,1785095212305.96
0.978,-0.301,-0.064,46.42,-4.36,0.27,1785095212306.1729
0.979,-0.304,-0.069,61.01,-5.1,0.24,1785095212306.375
0.978,-0.302,-0.075,75.05,-5.74,0.43,1785095212306.585
0.972,-0.296,-0.084,87.83,-6.32,0.73,1785095212306.792
0.967,-0.282,-0.098,98.79,-6.44,0.4,1785095212307.0212
0.965,-0.268,-0.111,106.81,-6.65,0.73,1785095212307.225
0.961,-0.258,-0.112,111.94,-6.29,1.89,1785095212307.437
0.966,-0.254,-0.111,114.78,-5.8,3.02,1785095212307.6492
0.973,-0.241,-0.107,115.48,-5.34,3.81,1785095212307.8499
0.98,-0.229,-0.101,114.32,-4.88,4.12,1785095212308.063
0.984,-0.224,-0.101,111.36,-4.33,3.97,1785095212308.273
0.984,-0.219,-0.103,106.54,-3.51,3.66,1785095212308.482
0.985,-0.214,-0.1,100.71,-2.47,3.81,1785095212308.684
0.99,-0.214,-0.095,94.21,-1.53,4.27,1785095212308.892
0.991,-0.217,-0.085,87.83,-0.79,4.43,1785095212309.1
0.984,-0.221,-0.074,81.51,-0.46,4.55,1785095212309.299
0.986,-0.22,-0.071,74.25,-0.43,4.73,1785095212309.507
0.982,-0.215,-0.066,66.41,-0.15,4.46,1785095212309.715
0.98,-0.218,-0.061,58.38,-0.24,3.97,1785095212309.919
0.984,-0.219,-0.059,50.48,-0.55,3.02,1785095212310.127
0.983,-0.22,-0.057,42.91,-0.73,2.87,1785095212310.3362
0.978,-0.223,-0.052,36.07,-1.28,3.45,1785095212310.548
0.971,-0.227,-0.049,30.06,-1.86,3.63,1785095212310.746
0.963,-0.231,-0.045,24.45,-2.29,2.99,1785095212310.965
0.954,-0.241,-0.04,19.81,-3.05,2.41,1785095212311.1711
0.948,-0.257,-0.037,16.33,-3.94,2.2,1785095212311.3643
0.951,-0.265,-0.042,14.4,-4.49,2.32,1785095212311.564
0.946,-0.267,-0.04,13.61,-5.07,2.38,1785095212311.763
0.941,-0.273,-0.042,13.89,-5.86,2.62,1785095212311.9558
0.934,-0.272,-0.042,14.89,-6.71,2.66,1785095212312.156
0.922,-0.269,-0.04,16.42,-7.45,2.99,1785095212312.351
0.87,-0.329,0.0,35.62,-10.13,2.53,1785095212312.933
0.857,-0.328,0.006,47.76,-11.54,2.44,1785095212313.128
-0.566,-0.947,-0.424,-27.8,10.71,-0.73,1785095212313.4739
-0.596,-0.994,-0.373,-15.72,11.75,-5.16,1785095212313.671
-0.634,-0.991,-0.345,-0.34,12.12,-8.18,1785095212313.861
-0.704,-0.964,-0.338,11.41,12.73,-10.96,1785095212317.855
-0.774,-0.943,-0.34,19.59,13.7,-13.67,1785095212328.4941
-0.83,-0.917,-0.332,24.41,14.89,-16.66,1785095212341.791
-0.882,-0.906,-0.31,30.46,16.39,-19.65,1785095212347.4062
-0.938,-0.903,-0.251,38.21,18.4,-22.55,1785095212358.2441
-0.969,-0.911,-0.224,47.24,20.33,-25.54,1785095212371.474
-0.989,-0.899,-0.267,51.55,22.03,-29.82,1785095212377.116
-0.984,-0.886,-0.307,47.49,22.64,-33.42,1785095212387.975
-0.963,-0.876,-0.344,36.5,21.82,-35.52,1785095212398.602
-0.951,-0.874,-0.385,20.42,19.62,-37.39,1785095212411.92
-0.96,-0.902,-0.398,3.6,18.22,-40.41,1785095212417.516
-0.98,-0.92,-0.37,-9.19,17.61,-44.47,1785095212428.116
-0.96,-0.938,-0.329,-14.01,17.12,-48.16,1785095212438.7998
-0.936,-0.956,-0.31,-7.72,18.89,-52.37,1785095212452.0261
-0.92,-0.927,-0.277,5.19,20.23,-54.51,1785095212457.781
-0.885,-0.864,-0.258,16.36,18.59,-54.35,1785095212468.359
-0.813,-0.819,-0.266,22.77,15.44,-53.16,1785095212481.611
-0.738,-0.808,-0.28,24.6,11.69,-51.33,1785095212487.4648
-0.694,-0.824,-0.276,22.83,7.57,-48.68,1785095212498.098
-0.663,-0.843,-0.273,18.89,4.12,-45.63,1785095212508.748
-0.631,-0.845,-0.277,13.37,2.14,-42.02,1785095212522.006
-0.595,-0.858,-0.295,9.58,1.34,-37.35,1785095212527.997
-0.55,-0.89,-0.302,11.08,1.95,-32.17,1785095212538.1
-0.512,-0.924,-0.276,17.67,3.23,-27.16,1785095212548.59
-0.469,-0.949,-0.255,26.06,2.93,-22.4,1785095212561.858
-0.387,-0.952,-0.287,30.43,1.53,-17.49,1785095212567.997
-0.317,-0.959,-0.323,29.08,0.82,-13.0,1785095212578.069
-0.267,-1.021,-0.378,25.79,0.52,-11.72,1785095212588.596
-0.219,-1.082,-0.421,22.86,0.55,-13.86,1785095212601.934
-0.173,-1.125,-0.465,24.6,1.5,-16.21,1785095212608.1128
-0.145,-1.14,-0.495,31.74,4.36,-17.61,1785095212618.076
-0.126,-1.171,-0.516,42.57,8.3,-20.11,1785095212628.5708
-0.122,-1.198,-0.513,51.82,12.85,-25.36,1785095212641.83
-0.13,-1.24,-0.502,59.33,17.06,-31.1,1785095212647.9092
-0.124,-1.28,-0.496,63.14,20.97,-36.1,1785095212658.319
-0.092,-1.31,-0.481,65.03,24.84,-41.81,1785095212669.03
-0.049,-1.312,-0.495,63.88,29.91,-50.29,1785095212682.187
-0.026,-1.25,-0.498,57.41,34.58,-59.45,1785095212688.3298
0.011,-1.237,-0.588,50.81,39.37,-65.58,1785095212698.648
0.053,-1.265,-0.71,44.16,46.3,-73.52,1785095212712.0571
0.079,-1.267,-0.793,38.7,54.57,-82.34,1785095212717.918
0.087,-1.292,-0.841,38.64,64.27,-89.69,1785095212728.4072
0.079,-1.339,-0.816,42.02,74.95,-98.76,1785095212739.0708
0.089,-1.362,-0.736,51.06,84.29,-109.16,1785095212752.3047
0.125,-1.338,-0.685,66.23,92.93,-118.29,1785095212758.1948
0.164,-1.275,-0.674,83.59,100.99,-125.52,1785095212769.1362
0.196,-1.193,-0.701,97.81,107.33,-131.41,1785095212783.514
0.211,-1.127,-0.721,105.38,112.89,-136.14,1785095212788.447
0.227,-1.109,-0.701,106.88,117.34,-140.02,1785095212801.688
0.244,-1.155,-0.646,107.58,121.25,-144.78,1785095212808.2812
0.25,-1.22,-0.591,111.45,124.79,-151.8,1785095212819.1262
0.256,-1.275,-0.58,119.72,128.61,-159.22,1785095212832.339
0.251,-1.263,-0.576,127.32,132.69,-166.72,1785095212838.331
0.256,-1.158,-0.56,127.72,135.56,-172.03,1785095212851.896
0.289,-1.058,-0.553,118.66,136.57,-174.81,1785095212857.966
0.323,-0.971,-0.539,98.51,136.85,-178.32,1785095212869.122
0.347,-0.907,-0.48,72.39,136.39,-180.91,1785095212882.2688
0.363,-0.897,-0.429,48.89,136.48,-183.75,1785095212888.4248
0.362,-0.898,-0.384,28.08,137.3,-186.96,1785095212901.738
0.365,-0.914,-0.321,10.56,138.13,-190.34,1785095212907.65
0.365,-0.914,-0.321,-3.45,139.35,-193.52,1785095212918.6309
0.366,-0.915,-0.241,-16.48,140.63,-193.88,1785095212931.875
0.357,-0.855,-0.169,-31.89,141.18,-189.79,1785095212938.06
0.384,-0.781,-0.118,-53.19,141.0,-184.39,1785095212948.879
0.422,-0.673,-0.07,-53.19,141.0,-184.39,1785095212962.183
0.47,-0.545,-0.013,-80.84,140.75,-177.5,1785095212968.3171
0.52,-0.501,0.054,-109.78,139.84,-171.24,1785095212981.483
0.551,-0.547,0.13,-136.27,139.5,-167.58,1785095212987.535
0.552,-0.671,0.214,-153.23,138.65,-166.69,1785095212998.744
0.532,-0.771,0.294,-159.25,135.41,-167.27,1785095213011.851
0.532,-0.82,0.347,-155.67,129.03,-167.3,1785095213017.904
0.528,-0.858,0.397,-150.21,120.52,-167.33,1785095213031.549
0.53,-0.838,0.493,-149.78,111.67,-166.88,1785095213037.749
0.563,-0.845,0.549,-147.31,100.92,-164.4,1785095213048.906
0.582,-0.872,0.592,-144.02,88.78,-163.52,1785095213062.0571
0.573,-0.864,0.628,-143.04,75.93,-163.82,1785095213067.992
0.571,-0.843,0.637,-145.91,62.41,-163.49,1785095213079.009
0.579,-0.859,0.64,-151.01,48.13,-165.41,1785095213092.269
0.563,-0.904,0.661,-153.2,33.63,-170.69,1785095213098.242
0.552,-0.922,0.669,-147.65,18.56,-177.5,1785095213111.708
0.54,-0.88,0.628,-138.98,1.4,-184.03,1785095213117.6008
0.522,-0.784,0.567,-132.54,-16.05,-189.61,1785095213128.7732
0.505,-0.719,0.485,-127.23,-33.42,-195.56,1785095213141.844
0.476,-0.663,0.417,-122.26,-49.38,-202.34,1785095213147.763
0.439,-0.595,0.35,-115.76,-65.07,-207.98,1785095213158.576
0.412,-0.477,0.3,-111.7,-79.13,-211.25,1785095213172.207
0.395,-0.355,0.226,-110.81,-92.23,-211.49,1785095213177.991
0.404,-0.224,0.128,-113.1,-103.0,-210.0,1785095213189.175
0.377,-0.128,-0.014,-115.15,-110.9,-211.95,1785095213202.538
0.358,-0.051,-0.18,-119.36,-115.7,-211.74,1785095213208.535
0.337,0.056,-0.315,-126.68,-117.56,-209.63,1785095213222.019
0.333,0.155,-0.457,-135.62,-115.09,-205.79,1785095213227.9502
0.33,0.26,-0.592,-146.49,-108.77,-201.48,1785095213241.554
0.323,0.419,-0.72,-157.14,-97.99,-194.92,1785095213247.54
0.329,0.592,-0.8,-161.72,-83.68,-184.18,1785095213258.577
0.355,0.75,-0.84,-157.9,-68.33,-170.57,1785095213271.914
0.375,0.855,-0.835,-146.49,-51.12,-153.36,1785095213277.7578
0.403,0.873,-0.813,-129.37,-34.49,-132.48,1785095213289.1619
0.448,0.9,-0.84,-109.44,-17.76,-110.93,1785095213302.0579
0.486,0.942,-0.918,-85.82,1.31,-84.2,1785095213307.981
0.501,0.955,-1.003,-62.2,20.63,-52.64,1785095213318.5688
0.527,0.918,-1.044,-45.17,39.28,-19.71,1785095213331.864
0.572,0.837,-0.982,-31.16,57.37,13.46,1785095213337.996
0.633,0.713,-0.872,-12.67,72.7,45.38,1785095213348.289
0.692,0.594,-0.762,10.44,86.12,72.63,1785095213358.9739
0.733,0.494,-0.665,32.99,98.39,95.31,1785095213372.285
0.783,0.414,-0.585,47.85,109.32,114.75,1785095213378.2751
0.838,0.298,-0.517,56.34,120.18,129.73,1785095213389.065
0.882,0.132,-0.404,59.54,130.56,138.16,1785095213402.477
0.935,-0.077,-0.26,60.61,137.33,139.47,1785095213408.4302
0.999,-0.321,-0.093,60.88,140.39,133.15,1785095213421.8281
1.052,-0.569,0.076,57.56,139.65,119.75,1785095213427.681
1.077,-0.793,0.238,50.78,133.92,100.8,1785095213438.6758
1.069,-0.942,0.379,44.86,120.79,76.11,1785095213451.937
1.042,-0.984,0.45,41.26,101.29,47.33,1785095213457.9211
0.995,-1.02,0.533,36.65,75.59,16.27,1785095213468.531
0.96,-1.066,0.599,25.82,45.69,-16.66,1785095213481.8281
0.924,-1.071,0.638,13.79,13.98,-49.35,1785095213488.121
0.868,-1.015,0.611,5.71,-16.85,-81.7,1785095213498.1638
0.812,-0.882,0.55,0.61,-46.48,-111.82,1785095213508.8032
0.76,-0.692,0.442,-2.9,-73.58,-138.07,1785095213522.1628
0.691,-0.479,0.294,-6.78,-95.61,-159.83,1785095213528.328
0.605,-0.234,0.121,-12.6,-112.77,-176.73,1785095213538.6948
0.518,0.045,-0.077,-20.23,-124.24,-187.32,1785095213551.752
0.451,0.322,-0.254,-29.94,-128.73,-190.65,1785095213557.6582
0.427,0.602,-0.405,-44.47,-128.45,-187.96,1785095213569.107
0.44,0.831,-0.527,-61.13,-122.71,-180.82,1785095213581.882
0.46,0.965,-0.6,-78.68,-111.39,-170.9,1785095213587.8909
0.471,1.051,-0.659,-94.85,-96.07,-158.24,1785095213598.878
0.472,1.131,-0.714,-101.08,-79.07,-139.81,1785095213612.162
0.453,1.189,-0.788,-91.16,-61.92,-115.18,1785095213617.9758
0.48,1.249,-0.851,-68.54,-43.64,-82.92,1785095213629.004
0.578,1.247,-0.893,-35.74,-24.02,-42.91,1785095213642.2441
0.67,1.191,-0.897,-0.4,-2.78,-2.75,1785095213648.411
0.742,1.083,-0.839,31.59,17.3,34.97,1785095213658.419
0.815,0.96,-0.75,58.57,34.52,70.44,1785095213669.0823
0.87,0.876,-0.682,79.32,50.69,102.21,1785095213682.312
0.893,0.81,-0.632,90.43,66.26,128.94,1785095213688.4338
0.903,0.711,-0.589,88.2,80.6,149.85,1785095213699.065
0.908,0.56,-0.513,73.0,93.66,164.25,1785095213712.278
0.922,0.356,-0.389,52.1,104.25,172.95,1785095213718.2432
0.954,0.106,-0.24,34.64,111.88,176.31,1785095213731.5828
1.001,-0.172,-0.088,23.07,116.03,172.98,1785095213737.618
1.066,-0.468,0.068,14.95,116.21,160.99,1785095213748.586
1.126,-0.757,0.201,9.43,112.37,142.46,1785095213761.8088
1.176,-0.98,0.323,7.84,103.55,120.12,1785095213767.9592
1.174,-1.096,0.33,10.59,87.5,93.42,1785095213778.45
1.126,-1.151,0.353,14.71,68.27,63.3,1785095213791.6812
1.077,-1.189,0.39,16.72,44.98,29.36,1785095213797.5947
1.044,-1.199,0.421,17.06,20.48,-6.59,1785095213808.0498
1.007,-1.145,0.458,15.93,-5.92,-42.63,1785095213818.6492
0.977,-1.076,0.455,16.17,-32.75,-76.75,1785095213831.8237
0.931,-0.944,0.399,18.25,-57.56,-108.37,1785095213837.808
0.859,-0.737,0.304,21.33,-79.65,-135.62,1785095213848.502
0.781,-0.516,0.178,23.53,-98.42,-158.12,1785095213861.753
0.707,-0.249,0.01,22.28,-113.62,-174.6,1785095213867.679
0.623,0.082,-0.203,16.79,-123.26,-183.26,1785095213878.69
0.563,0.41,-0.391,5.34,-124.61,-183.08,1785095213891.904
0.558,0.684,-0.558,-14.16,-121.65,-177.25,1785095213897.8372
0.58,0.949,-0.657,-38.88,-113.13,-165.5,1785095213908.8481
0.593,1.064,-0.706,-61.53,-100.59,-148.75,1785095213922.116
0.605,1.061,-0.719,-85.24,-83.74,-132.39,1785095213927.715
0.606,1.051,-0.673,-94.97,-65.95,-114.2,1785095213938.574
0.623,1.062,-0.719,-74.68,-48.86,-88.69,1785095213952.115
0.673,1.161,-0.85,-29.57,-30.0,-52.8,1785095213958.2131
0.731,1.273,-0.984,21.24,-10.86,-13.0,1785095213968.585
0.767,1.335,-1.061,57.01,8.85,22.46,1785095213981.8098
0.802,1.349,-1.036,72.97,29.18,56.03,1785095213987.355
0.839,1.282,-0.955,76.78,49.87,87.04,1785095213998.152
0.855,1.182,-0.863,71.08,69.28,112.58,1785095214009.064
0.861,1.069,-0.746,58.5,85.27,134.5,1785095214022.302
0.872,0.897,-0.605,42.91,96.8,152.53,1785095214027.793
0.882,0.676,-0.521,27.89,106.3,164.56,1785095214038.982
0.898,0.477,-0.462,14.01,114.02,173.35,1785095214052.331
0.933,0.288,-0.388,3.94,118.75,179.69,1785095214058.253
1.0,0.11,-0.292,-1.71,120.67,180.06,1785095214069.031
1.095,-0.069,-0.218,-2.78,121.83,174.78,1785095214082.502
1.149,-0.244,-0.17,-2.66,124.58,167.58,1785095214088.485
1.131,-0.405,-0.124,-2.96,126.87,160.19,1785095214098.9749
1.097,-0.592,-0.066,-3.2,126.87,149.94,1785095214112.2283
1.115,-0.808,0.061,-3.42,123.08,134.5,1785095214118.1619
1.168,-0.99,0.199,-3.81,113.99,114.35,1785095214129.026
1.199,-1.119,0.303,-1.62,102.45,90.52,1785095214142.2239
1.166,-1.217,0.431,3.48,87.41,62.9,1785095214148.094
1.113,-1.277,0.511,11.2,68.51,32.17,1785095214158.603
1.037,-1.252,0.564,17.12,46.75,-0.4,1785095214171.592
0.964,-1.168,0.58,19.71,22.1,-32.72,1785095214177.303
0.914,-1.043,0.562,18.46,-4.03,-64.06,1785095214188.118
0.914,-1.043,0.562,15.26,-28.9,-93.2,1785095214198.7043
0.878,-0.918,0.53,9.09,-52.03,-118.93,1785095214211.981
0.828,-0.776,0.489,1.34,-72.76,-140.69,1785095214217.9358
0.765,-0.634,0.443,-6.07,-93.45,-158.36,1785095214228.4229
0.681,-0.486,0.368,-13.21,-109.38,-175.42,1785095214241.7158
0.614,-0.256,0.261,-13.21,-109.38,-175.42,1785095214247.8481
0.639,-0.033,0.059,-20.05,-123.51,-184.0,1785095214258.697
0.507,0.237,-0.135,-28.78,-131.84,-185.16,1785095214272.0198
0.52,0.592,-0.349,-42.91,-133.4,-186.71,1785095214277.9038
0.555,0.991,-0.507,-59.72,-127.41,-185.74,1785095214289.093
0.681,1.155,-0.608,-76.82,-117.28,-170.42,1785095214302.167
0.759,1.145,-0.629,-101.87,-103.24,-149.51,1785095214308.12
0.703,1.086,-0.625,-126.35,-81.64,-130.1,1785095214321.6992
0.674,0.979,-0.648,-140.39,-60.7,-106.23,1785095214327.8667
0.695,0.907,-0.62,-131.75,-44.04,-80.32,1785095214338.521
0.685,0.879,-0.582,-91.98,-30.06,-57.1,1785095214351.753
0.677,0.897,-0.604,-35.65,-17.18,-31.22,1785095214357.6738
0.702,1.015,-0.658,16.91,-4.3,-1.62,1785095214368.145
0.732,1.141,-0.685,53.83,10.99,24.75,1785095214379.6658
0.809,1.126,-0.709,67.42,25.7,49.62,1785095214392.04
0.84,1.045,-0.661,59.05,41.23,73.37,1785095214397.897
0.876,0.925,-0.586,42.94,57.13,95.1,1785095214408.428
0.932,0.728,-0.513,26.34,69.98,116.79,1785095214421.707
0.94,0.553,-0.449,12.42,78.22,127.32,1785095214427.698
0.921,0.421,-0.367,4.18,84.84,127.96,1785095214438.2751
0.977,0.231,-0.3,2.75,92.2,132.42,1785095214449.0781
1.044,0.086,-0.25,4.67,97.11,134.53,1785095214462.1538
1.087,-0.033,-0.188,7.66,101.75,134.59,1785095214468.126
1.142,-0.248,-0.107,9.31,108.1,133.98,1785095214478.823
1.199,-0.447,0.012,6.81,111.03,126.35,1785095214492.168
1.259,-0.626,0.154,8.33,109.38,115.7,1785095214498.018
1.284,-0.832,0.297,19.68,106.42,103.61,1785095214508.8892
1.245,-0.989,0.424,38.27,99.37,85.7,1785095214522.1892
1.178,-1.061,0.494,60.34,85.57,61.1,1785095214528.197
1.102,-1.105,0.583,82.52,67.23,33.27,1785095214538.572
1.03,-1.163,0.631,102.69,45.26,4.7,1785095214551.851
0.979,-1.049,0.633,110.17,21.42,-21.24,1785095214557.7888
0.882,-0.824,0.635,102.57,-2.2,-42.42,1785095214568.4768
0.836,-0.681,0.6,85.6,-24.69,-65.22,1785095214579.0168
0.814,-0.58,0.544,62.41,-47.73,-86.58,1785095214592.278
0.76,-0.448,0.471,37.66,-68.97,-103.49,1785095214598.2102
0.685,-0.264,0.36,14.34,-87.62,-125.06,1785095214609.105
0.629,-0.132,0.222,-5.58,-101.41,-140.69,1785095214621.9258
0.632,0.011,0.022,-23.1,-110.69,-147.4,1785095214627.7593
0.583,0.232,-0.153,-39.03,-115.27,-150.58,1785095214638.714
0.492,0.426,-0.325,-54.9,-115.21,-147.59,1785095214652.0269
0.452,0.623,-0.467,-74.31,-109.29,-142.12,1785095214657.969
0.435,0.827,-0.578,-96.5,-100.92,-135.56,1785095214671.8381
0.432,0.977,-0.609,-117.71,-87.5,-122.93,1785095214677.7542
0.458,0.999,-0.588,-130.19,-69.89,-108.98,1785095214688.9111
0.49,0.997,-0.595,-134.4,-52.06,-95.03,1785095214701.689
0.466,1.066,-0.634,-125.4,-33.94,-75.59,1785095214707.4402
0.466,1.159,-0.667,-97.96,-15.96,-49.38,1785095214718.535
0.471,1.215,-0.707,-58.87,1.07,-22.86,1785095214729.091
0.509,1.235,-0.698,-21.67,18.52,2.35,1785095214742.3308
0.563,1.157,-0.645,7.48,35.1,29.88,1785095214748.211
0.601,1.027,-0.564,26.95,50.97,57.99,1785095214758.49
0.66,0.903,-0.475,38.88,62.65,83.1,1785095214772.88
0.707,0.794,-0.41,48.89,71.9,102.69,1785095214778.409
0.724,0.688,-0.345,57.44,81.58,118.66,1785095214788.294
0.764,0.553,-0.271,64.33,89.6,130.31,1785095214801.7678
0.817,0.411,-0.202,68.82,95.4,137.18,1785095214807.679
0.864,0.264,-0.106,70.04,100.68,141.54,1785095214818.555
0.928,0.103,0.017,64.12,103.64,142.95,1785095214831.826
1.007,-0.09,0.155,49.81,102.69,138.4,1785095214837.8188
1.086,-0.332,0.326,31.22,97.78,127.75,1785095214848.6887
1.155,-0.596,0.475,13.73,88.11,110.17,1785095214861.7148
1.189,-0.779,0.593,1.01,73.34,88.6,1785095214867.945
1.183,-0.863,0.688,-2.32,53.07,65.92,1785095214878.294
1.142,-0.877,0.723,2.69,28.84,41.35,1785095214888.973
1.088,-0.875,0.727,9.31,3.14,14.77,1785095214902.124
1.059,-0.856,0.703,11.47,-23.01,-13.25,1785095214908.0022
1.043,-0.803,0.668,7.57,-48.01,-40.59,1785095214918.2952
1.02,-0.739,0.624,0.43,-71.26,-66.84,1785095214928.942
0.993,-0.652,0.566,-6.9,-92.93,-90.58,1785095214941.8909
0.965,-0.506,0.472,-11.14,-111.61,-110.57,1785095214948.155
0.911,-0.301,0.319,-11.08,-126.56,-127.66,1785095214958.909
0.827,-0.027,0.106,-12.33,-136.91,-140.87,1785095214972.228
0.751,0.265,-0.097,-18.46,-140.93,-146.98,1785095214978.098
0.704,0.534,-0.281,-30.88,-141.15,-146.58,1785095214989.126
0.669,0.793,-0.45,-49.1,-136.85,-140.51,1785095215002.364
0.645,1.007,-0.572,-72.21,-126.8,-129.34,1785095215008.519
0.637,1.106,-0.632,-97.75,-110.6,-114.78,1785095215021.7532
0.649,1.145,-0.624,-119.69,-90.24,-98.33,1785095215027.6602
0.685,1.16,-0.608,-126.41,-69.7,-78.74,1785095215038.531
0.703,1.174,-0.61,-110.17,-50.39,-54.29,1785095215051.8457
0.705,1.13,-0.624,-75.05,-31.71,-24.51,1785095215057.7158
0.643,1.201,-0.711,-30.55,-13.79,5.43,1785095215068.203
0.674,1.188,-0.809,10.22,4.15,44.83,1785095215078.775
0.693,1.099,-0.811,38.54,22.74,71.84,1785095215092.0251
0.73,1.044,-0.742,61.89,40.1,94.91,1785095215097.93
0.779,0.919,-0.669,76.45,55.39,118.02,1785095215108.634
0.773,0.827,-0.566,78.31,69.64,138.1,1785095215121.8628
0.756,0.705,-0.462,75.41,82.19,155.67,1785095215127.884
0.84,0.539,-0.356,72.63,93.05,166.69,1785095215138.541
0.845,0.331,-0.293,71.63,99.64,175.02,1785095215151.8098
0.864,0.12,-0.18,68.21,108.62,182.04,1785095215157.7441
0.935,-0.021,-0.081,60.06,109.71,170.96,1785095215168.8918
0.997,-0.251,0.082,47.03,108.22,155.92,1785095215181.911
1.082,-0.571,0.25,30.49,105.66,142.86,1785095215188.022
1.122,-0.791,0.39,18.28,96.04,123.69,1785095215198.804
1.121,-0.919,0.514,17.21,79.93,101.2,1785095215212.1128
1.099,-0.979,0.556,22.86,58.29,74.77,1785095215218.03
1.072,-1.011,0.586,23.96,33.97,45.72,1785095215228.738
1.065,-1.068,0.654,17.15,6.99,14.22,1785095215241.8362
1.06,-1.11,0.696,7.63,-20.66,-18.49,1785095215248.099
1.022,-1.087,0.707,3.63,-47.85,-49.96,1785095215258.0637
0.964,-0.981,0.675,4.3,-74.98,-79.84,1785095215268.597
0.91,-0.812,0.575,5.55,-100.56,-106.63,1785095215281.861
0.847,-0.606,0.435,4.0,-121.74,-129.15,1785095215288.0168
0.78,-0.384,0.266,-1.25,-139.01,-148.59,1785095215298.5652
0.703,-0.149,0.058,-9.58,-151.59,-164.74,1785095215311.8037
0.628,0.096,-0.13,-20.39,-157.81,-175.73,1785095215317.842
0.577,0.331,-0.276,-31.83,-160.34,-180.97,1785095215328.8838
0.529,0.54,-0.407,-44.59,-159.52,-180.85,1785095215341.981
0.487,0.754,-0.496,-61.16,-154.55,-174.96,1785095215347.925
0.484,0.937,-0.574,-78.86,-144.99,-164.19,1785095215358.956
0.498,1.097,-0.652,-95.65,-129.43,-150.73,1785095215372.234
0.527,1.241,-0.731,-105.72,-108.8,-131.38,1785095215378.143
0.574,1.22,-0.71,-91.77,-91.4,-107.7,1785095215391.752
0.557,1.447,-0.964,-59.27,-66.84,-85.09,1785095215397.597
0.544,1.555,-0.949,-54.87,-38.54,-38.39,1785095215408.256
0.593,1.384,-0.962,-29.79,-17.88,-6.01,1785095215418.8218
0.637,1.351,-0.928,0.85,3.78,23.87,1785095215431.988
0.7,1.296,-0.894,22.98,22.98,61.37,1785095215437.9932
0.771,1.198,-0.837,39.86,41.6,100.34,1785095215448.4192
0.824,1.061,-0.752,56.12,59.82,135.2,1785095215461.662
0.838,0.901,-0.649,67.78,76.54,162.21,1785095215467.675
0.838,0.901,-0.649,75.5,92.81,189.43,1785095215478.358
0.816,0.654,-0.524,80.26,103.31,205.24,1785095215491.62
0.928,0.439,-0.464,77.61,114.87,199.38,1785095215497.557
0.793,0.443,-0.337,68.61,120.98,208.44,1785095215508.639
0.839,0.256,-0.309,47.79,121.8,207.56,1785095215521.9531
0.85,0.142,-0.22,47.79,121.8,207.56,1785095215528.001
0.887,-0.011,-0.125,27.59,128.82,203.44,1785095215538.8647
0.876,-0.351,-0.008,9.13,128.97,196.94,1785095215552.277
0.951,-0.71,0.152,-5.1,124.27,180.88,1785095215558.039
1.056,-1.019,0.332,-9.46,112.49,157.35,1785095215569.0059
1.086,-1.214,0.503,-1.46,97.35,128.33,1785095215581.991
1.06,-1.278,0.563,17.21,74.74,97.75,1785095215588.075
1.024,-1.225,0.604,35.58,47.76,63.63,1785095215598.551
1.005,-1.155,0.63,42.18,17.94,27.95,1785095215611.745
0.99,-1.091,0.625,36.5,-12.21,-7.2,1785095215617.6729
0.985,-1.029,0.604,26.92,-41.66,-40.68,1785095215628.135
0.953,-0.926,0.55,19.47,-68.97,-73.95,1785095215638.7642
0.894,-0.793,0.473,13.34,-94.06,-102.36,1785095215652.045
0.836,-0.646,0.386,8.79,-116.76,-126.83,1785095215657.9958
0.781,-0.469,0.269,6.84,-137.0,-148.47,1785095215668.702
0.708,-0.24,0.099,5.43,-154.27,-164.62,1785095215681.911
0.628,0.042,-0.11,2.14,-165.35,-174.63,1785095215688.3242
0.581,0.326,-0.302,-5.28,-169.62,-178.78,1785095215698.664
0.576,0.585,-0.487,-18.83,-169.93,-177.43,1785095215711.89
0.598,0.834,-0.638,-37.6,-164.53,-169.71,1785095215717.8398
0.635,1.034,-0.763,-60.52,-154.15,-156.04,1785095215728.9758
0.674,1.191,-0.834,-86.76,-137.18,-137.55,1785095215742.172
0.703,1.282,-0.86,-107.76,-114.2,-114.66,1785095215748.1
0.735,1.265,-0.86,-113.99,-90.3,-86.86,1785095215761.6528
0.755,1.151,-0.885,-99.43,-67.05,-57.31,1785095215768.055
0.75,1.041,-0.939,-64.3,-44.19,-26.58,1785095215778.1912
0.776,1.01,-0.986,-14.16,-22.4,8.24,1785095215788.721
0.821,1.009,-1.012,38.33,-1.1,44.8,1785095215801.9321
0.855,1.022,-0.986,76.42,19.5,80.39,1785095215807.9958
0.894,0.977,-0.922,95.34,40.8,113.32,1785095215818.479
0.904,0.869,-0.829,98.88,61.49,138.65,1785095215831.699
0.886,0.761,-0.727,92.14,79.1,156.65,1785095215837.707
0.879,0.66,-0.626,79.17,94.24,172.22,1785095215848.411
0.861,0.521,-0.556,62.41,107.06,184.12,1785095215861.6462
0.823,0.352,-0.486,43.31,117.68,191.78,1785095215867.709
0.797,0.146,-0.402,25.39,125.68,195.99,1785095215878.722
0.821,-0.119,-0.256,12.42,131.02,194.86,1785095215891.9082
0.907,-0.48,-0.057,7.05,131.75,184.76,1785095215897.8428
1.012,-0.836,0.109,6.01,127.84,164.43,1785095215908.745
1.077,-1.092,0.257,12.57,120.03,139.59,1785095215921.9849
1.088,-1.214,0.346,29.63,104.31,111.45,1785095215928.125
1.051,-1.182,0.339,47.21,82.25,78.95,1785095215938.8
0.999,-1.099,0.405,53.59,57.13,46.02,1785095215953.002
0.988,-1.065,0.491,45.72,28.26,14.77,1785095215957.618
0.989,-1.066,0.558,31.83,-1.4,-15.9,1785095215968.431
0.965,-1.045,0.584,19.38,-30.76,-47.15,1785095215978.989
0.933,-0.999,0.547,10.68,-58.78,-77.73,1785095215992.294
0.88,-0.902,0.486,4.97,-84.93,-107.03,1785095215998.379
0.816,-0.763,0.398,2.5,-109.44,-133.06,1785095216009.2922
0.746,-0.59,0.272,3.05,-131.17,-154.42,1785095216022.1948
0.665,-0.371,0.091,3.88,-149.45,-171.09,1785095216027.976
0.581,-0.098,-0.15,0.64,-162.14,-182.23,1785095216038.788
0.516,0.177,-0.358,-8.15,-167.18,-186.56,1785095216052.0781
0.502,0.44,-0.518,-21.39,-167.58,-185.13,1785095216057.991
0.535,0.72,-0.653,-37.81,-163.55,-178.11,1785095216069.083
0.58,0.967,-0.763,-57.13,-153.42,-165.07,1785095216082.14
0.615,1.146,-0.875,-82.71,-136.51,-147.77,1785095216088.371
0.644,1.273,-0.939,-111.18,-113.47,-124.97,1785095216101.6082
0.681,1.295,-1.001,-130.31,-85.94,-96.22,1785095216107.5608
0.696,1.226,-1.013,-128.18,-56.7,-62.56,1785095216118.462
0.688,1.124,-1.017,-97.99,-30.18,-26.52,1785095216129.092
0.694,1.058,-1.032,-46.45,-6.68,12.54,1785095216142.38
0.713,1.013,-1.06,13.55,14.86,52.0,1785095216148.242
0.741,1.001,-1.044,63.51,37.48,88.84,1785095216158.53
0.768,0.951,-0.959,92.53,59.97,122.26,1785095216172.011
0.782,0.836,-0.85,102.76,79.84,150.06,1785095216177.893
0.777,0.699,-0.721,102.36,96.59,170.72,1785095216188.9082
0.776,0.558,-0.579,96.74,109.1,184.82,1785095216202.1199
0.779,0.413,-0.457,86.34,117.37,192.97,1785095216208.261
0.775,0.257,-0.371,71.32,123.14,196.72,1785095216219.2969
0.766,0.086,-0.273,53.38,126.8,196.54,1785095216232.311
0.803,-0.15,-0.145,36.5,126.9,190.74,1785095216238.369
0.895,-0.486,0.0,22.46,123.26,176.76,1785095216251.769
0.994,-0.848,0.145,11.47,115.27,155.28,1785095216257.718
1.046,-1.137,0.272,9.34,100.59,131.08,1785095216268.705
1.032,-1.263,0.323,16.88,77.82,104.13,1785095216281.918
0.98,-1.254,0.353,27.95,51.79,73.55,1785095216288.0771
0.947,-1.236,0.405,34.0,23.01,39.28,1785095216298.4177
0.931,-1.233,0.436,33.42,-6.87,2.08,1785095216308.929
0.916,-1.197,0.446,30.52,-37.11,-37.02,1785095216322.239
0.893,-1.103,0.407,24.02,-65.55,-74.59,1785095216328.265
0.839,-0.974,0.335,13.79,-91.19,-106.94,1785095216338.691
0.774,-0.815,0.25,3.05,-114.23,-134.83,1785095216351.923
0.72,-0.622,0.116,-4.15,-133.95,-158.51,1785095216357.903
0.664,-0.368,-0.071,-8.24,-149.11,-177.4,1785095216368.829
0.616,-0.042,-0.319,-14.4,-158.88,-189.43,1785095216381.877
0.595,0.299,-0.563,-24.66,-159.0,-193.21,1785095216387.921
0.599,0.634,-0.732,-38.24,-153.05,-188.63,1785095216398.862
0.648,0.944,-0.871,-58.08,-143.19,-176.52,1785095216412.1333
0.701,1.204,-0.926,-89.42,-127.84,-157.9,1785095216418.0579
0.749,1.291,-0.923,-132.05,-107.03,-132.39,1785095216431.531
0.771,1.185,-0.872,-174.2,-79.5,-105.11,1785095216437.64
0.77,1.034,-0.796,-185.77,-51.0,-76.2,1785095216448.675
0.744,0.92,-0.779,-142.49,-27.56,-43.95,1785095216461.766
0.717,0.898,-0.835,-59.91,-8.58,-8.76,1785095216467.732
0.741,0.948,-0.933,29.18,8.39,30.52,1785095216478.057
0.796,1.036,-0.993,95.03,27.89,71.72,1785095216488.7922
0.849,1.048,-0.97,125.25,49.41,110.39,1785095216501.93
0.871,0.964,-0.881,125.31,69.52,140.93,1785095216507.8872
0.88,0.823,-0.75,109.47,87.25,164.43,1785095216519.074
0.873,0.647,-0.601,90.67,101.54,182.41,1785095216532.158
0.844,0.443,-0.449,73.95,110.66,194.62,1785095216538.186
0.818,0.219,-0.344,57.13,116.52,200.6,1785095216549.163
0.813,-0.024,-0.254,39.46,120.43,200.42,1785095216562.435
0.846,-0.337,-0.164,26.86,121.65,193.88,1785095216568.5251
0.91,-0.747,-0.081,22.83,119.54,178.87,1785095216581.938
0.99,-1.152,0.034,25.39,113.77,153.97,1785095216587.97
1.055,-1.428,0.162,36.68,100.25,123.81,1785095216598.83
1.054,-1.501,0.189,55.64,80.45,91.83,1785095216612.019
0.977,-1.414,0.218,71.11,57.22,57.89,1785095216618.72
0.911,-1.281,0.292,69.43,28.29,22.49,1785095216628.501
0.892,-1.188,0.354,52.06,-2.38,-14.71,1785095216639.0999
0.871,-1.159,0.383,29.54,-32.14,-54.2,1785095216652.3188
0.837,-1.111,0.37,8.94,-59.36,-91.83,1785095216658.24
0.796,-1.006,0.316,-4.46,-84.11,-124.79,1785095216668.6443
0.752,-0.82,0.217,-10.96,-105.84,-151.8,1785095216681.914
0.698,-0.56,0.046,-12.6,-123.57,-172.67,1785095216688.1567
0.638,-0.238,-0.186,-14.25,-135.96,-187.78,1785095216698.892
0.585,0.131,-0.469,-21.91,-140.66,-194.52,1785095216712.169
0.542,0.471,-0.662,-34.36,-136.39,-191.9,1785095216718.118
0.555,0.786,-0.776,-52.58,-127.23,-183.57,1785095216729.12
0.671,1.05,-0.883,-78.01,-116.43,-167.03,1785095216742.358
0.692,1.129,-0.863,-113.96,-101.11,-134.8,1785095216748.2878
0.692,1.129,-0.863,-153.14,-77.85,-118.69,1785095216761.863
0.724,1.195,-0.848,-172.58,-53.5,-98.73,1785095216767.9902
0.691,1.124,-0.796,-151.8,-29.76,-58.44,1785095216778.6392
0.756,0.946,-0.769,-89.18,-10.74,-23.53,1785095216791.8442
0.718,0.997,-0.789,-7.69,7.66,15.63,1785095216797.76
0.697,1.057,-0.891,-7.69,7.66,15.63,1785095216808.058
0.755,1.112,-0.957,53.71,26.7,57.89,1785095216818.6208
0.793,1.114,-0.938,85.91,46.51,95.19,1785095216831.884
0.815,0.981,-0.847,94.88,64.85,128.7,1785095216837.854
0.81,0.803,-0.731,92.65,80.78,153.97,1785095216848.652
0.792,0.632,-0.618,87.62,93.97,173.53,1785095216861.789
0.778,0.484,-0.483,80.23,103.98,188.7,1785095216867.691
0.782,0.329,-0.381,69.92,110.72,197.36,1785095216878.71
0.792,0.134,-0.319,54.14,114.47,202.25,1785095216891.9238
0.785,-0.07,-0.237,36.04,116.03,201.48,1785095216898.0742
0.799,-0.349,-0.163,25.24,114.81,194.8,1785095216908.9192
0.833,-0.683,-0.103,21.24,111.64,180.76,1785095216922.161
0.882,-1.003,0.025,22.0,105.41,159.06,1785095216928.3928
0.954,-1.247,0.137,26.15,91.89,133.27,1785095216939.105
0.983,-1.348,0.183,31.89,74.65,105.59,1785095216952.31
0.979,-1.385,0.263,40.25,54.72,77.18,1785095216958.356
0.956,-1.391,0.322,42.94,32.07,44.5,1785095216969.108
0.915,-1.344,0.357,38.33,7.39,11.54,1785095216982.076
0.876,-1.271,0.369,34.15,-19.38,-22.89,1785095216988.0151
0.844,-1.162,0.349,30.27,-45.53,-59.18,1785095216998.427
0.81,-1.03,0.298,22.86,-69.37,-91.53,1785095217009.0728
0.768,-0.899,0.238,12.15,-90.73,-119.11,1785095217022.353
0.73,-0.75,0.163,2.04,-109.56,-142.25,1785095217028.275
0.697,-0.569,0.053,-4.73,-125.74,-160.25,1785095217039.0852
0.652,-0.326,-0.116,-8.67,-138.46,-173.47,1785095217052.426
0.605,-0.008,-0.368,-14.07,-146.31,-180.85,1785095217058.302
0.606,0.333,-0.582,-24.38,-144.84,-180.73,1785095217071.7
0.655,0.633,-0.727,-39.52,-137.79,-174.02,1785095217077.585
0.723,0.9,-0.817,-64.18,-126.44,-160.77,1785095217088.757
0.773,1.078,-0.88,-97.9,-110.39,-141.12,1785095217101.909
0.804,1.122,-0.901,-138.83,-89.36,-118.11,1785095217107.8037
0.819,1.019,-0.861,-166.02,-64.82,-93.78,1785095217118.741
0.807,0.896,-0.855,-155.71,-40.71,-67.75,1785095217131.9758
0.77,0.872,-0.889,-105.01,-19.68,-37.05,1785095217137.643
0.765,0.884,-0.938,-31.4,-1.22,-1.83,1785095217148.3918
0.794,0.934,-0.983,40.07,17.03,31.31,1785095217159.0898
0.831,0.976,-1.003,87.41,35.49,64.64,1785095217172.4182
0.844,0.938,-0.957,105.56,53.65,98.51,1785095217178.251
0.845,0.855,-0.866,105.17,69.49,125.61,1785095217189.1682
0.84,0.721,-0.757,94.97,83.22,145.54,1785095217202.9287
0.828,0.57,-0.63,78.43,93.81,159.06,1785095217208.679
0.815,0.407,-0.499,59.91,99.58,168.4,1785095217219.101
0.812,0.217,-0.421,41.6,102.76,172.7,1785095217232.2969
0.814,0.034,-0.354,23.01,105.04,171.73,1785095217238.34
0.838,-0.182,-0.29,8.76,104.95,166.91,1785095217251.6858
