ax,ay,az,gx,gy,gz,timestamp_ms
0.758,0.449,-0.515,15.11,-62.26,-102.54,1785095083207.5479
0.748,0.461,-0.577,8.15,-55.85,-96.87,1785095083207.863
0.743,0.499,-0.611,5.86,-47.27,-90.37,1785095083208.184
0.74,0.525,-0.63,10.5,-37.97,-83.8,1785095083208.522
0.724,0.531,-0.639,20.42,-29.51,-77.61,1785095083208.8389
0.696,0.553,-0.631,34.3,-22.61,-69.4,1785095083209.147
0.691,0.585,-0.615,52.89,-17.46,-59.91,1785095083209.497
0.716,0.601,-0.616,76.02,-13.98,-51.67,1785095083209.818
0.745,0.622,-0.636,98.94,-10.93,-45.87,1785095083210.1218
0.77,0.636,-0.65,118.75,-7.17,-40.22,1785095083210.422
0.795,0.624,-0.661,133.49,-2.53,-33.54,1785095083210.729
0.815,0.623,-0.696,137.64,2.84,-25.67,1785095083211.0342
0.815,0.681,-0.743,126.26,9.37,-15.5,1785095083211.3281
0.806,0.754,-0.773,101.11,15.81,-2.72,1785095083211.607
0.811,0.803,-0.764,65.92,21.21,9.13,1785095083211.883
0.813,0.787,-0.725,30.7,25.15,16.94,1785095083212.157
0.814,0.73,-0.68,1.86,28.26,22.22,1785095083212.4412
0.812,0.691,-0.628,-19.65,30.61,27.47,1785095083212.763
0.812,0.655,-0.569,-32.56,31.95,33.3,1785095083213.076
0.821,0.606,-0.529,-39.52,32.41,38.36,1785095083213.381
0.843,0.559,-0.506,-45.29,33.02,42.51,1785095083213.687
0.862,0.535,-0.495,-53.65,33.88,48.01,1785095083213.987
0.869,0.499,-0.483,-63.3,34.36,54.99,1785095083214.262
0.865,0.452,-0.477,-71.5,34.7,62.35,1785095083214.549
0.855,0.419,-0.444,-78.01,35.28,69.8,1785095083214.865
0.864,0.377,-0.421,-80.94,35.43,76.78,1785095083215.146
0.876,0.344,-0.4,-81.82,35.43,83.07,1785095083215.4373
0.875,0.315,-0.386,-81.27,35.49,88.75,1785095083215.7021
0.876,0.287,-0.365,-80.75,35.77,93.72,1785095083215.986
0.887,0.252,-0.343,-80.08,34.79,96.93,1785095083216.262
0.9,0.234,-0.335,-80.75,32.96,98.82,1785095083216.522
0.907,0.231,-0.327,-83.35,31.56,101.54,1785095083216.8179
0.903,0.209,-0.319,-86.58,30.82,103.64,1785095083217.088
0.895,0.166,-0.314,-89.45,30.0,103.89,1785095083217.3801
0.898,0.122,-0.314,-91.34,29.85,103.92,1785095083217.67
0.904,0.08,-0.305,-92.47,30.92,104.59,1785095083217.963
0.909,0.024,-0.285,-92.29,32.2,104.92,1785095083218.272
0.924,-0.03,-0.269,-91.83,32.84,105.29,1785095083218.569
0.944,-0.082,-0.251,-90.7,33.05,105.26,1785095083218.89
0.948,-0.151,-0.242,-85.85,33.23,104.86,1785095083219.204
0.932,-0.224,-0.237,-75.87,33.63,104.19,1785095083219.481
0.913,-0.279,-0.217,-62.35,33.97,102.21,1785095083219.732
0.901,-0.312,-0.203,-45.56,33.81,99.95,1785095083219.99
0.897,-0.343,-0.183,-27.53,34.3,97.08,1785095083220.265
0.895,-0.381,-0.148,-9.55,34.46,92.35,1785095083220.5178
0.896,-0.424,-0.102,9.58,33.57,86.12,1785095083220.796
0.9,-0.491,-0.053,34.3,31.5,78.8,1785095083221.048
0.902,-0.583,-0.015,66.99,28.14,69.8,1785095083221.2998
0.909,-0.655,-0.003,103.85,23.13,58.47,1785095083221.5723
0.918,-0.639,-0.033,135.38,18.28,47.61,1785095083221.822
0.915,-0.535,-0.068,153.36,15.32,40.41,1785095083222.134
0.897,-0.422,-0.098,157.96,12.76,35.04,1785095083222.409
0.88,-0.361,-0.09,154.36,9.77,28.47,1785095083222.6582
0.88,-0.361,-0.09,151.01,6.16,20.33,1785095083222.9067
0.875,-0.353,-0.07,150.67,2.59,11.9,1785095083223.15
0.881,-0.346,-0.074,149.08,-0.09,6.04,1785095083223.393
0.884,-0.291,-0.094,143.68,-2.44,2.11,1785095083223.634
0.888,-0.22,-0.095,134.16,-5.55,-2.32,1785095083223.886
0.89,-0.181,-0.079,134.16,-5.55,-2.32,1785095083224.137
0.889,-0.18,-0.063,122.26,-8.91,-7.45,1785095083224.37
0.885,-0.198,-0.044,111.0,-12.09,-12.24,1785095083224.6147
0.882,-0.205,-0.041,102.63,-14.92,-15.84,1785095083224.8718
0.871,-0.191,-0.055,95.58,-17.37,-17.82,1785095083225.12
0.865,-0.169,-0.073,87.44,-19.71,-18.95,1785095083225.357
0.86,-0.152,-0.088,78.16,-22.06,-19.75,1785095083225.625
0.852,-0.153,-0.096,68.85,-23.93,-20.57,1785095083225.882
0.853,-0.163,-0.1,59.91,-25.64,-21.52,1785095083226.1162
0.859,-0.166,-0.115,51.64,-27.13,-22.0,1785095083226.368
0.862,-0.154,-0.13,44.25,-28.23,-21.36,1785095083226.6172
0.857,-0.132,-0.154,36.87,-29.54,-20.14,1785095083226.867
0.833,-0.103,-0.184,28.96,-30.43,-18.92,1785095083227.104
0.793,-0.083,-0.209,20.05,-30.76,-18.04,1785095083227.337
0.746,-0.067,-0.223,9.92,-30.79,-17.52,1785095083227.583
0.712,-0.058,-0.226,0.55,-30.34,-17.21,1785095083227.8088
0.706,-0.075,-0.213,-5.68,-29.15,-17.18,1785095083228.035
0.743,-0.095,-0.183,-9.77,-28.66,-17.91,1785095083228.269
0.789,-0.09,-0.163,-11.99,-29.05,-18.46,1785095083228.499
0.803,-0.083,-0.164,-12.57,-28.69,-16.63,1785095083228.7258
0.775,-0.087,-0.174,-13.06,-27.92,-13.64,1785095083228.972
0.733,-0.082,-0.185,-14.04,-27.22,-10.32,1785095083229.2
0.68,-0.074,-0.211,-14.44,-26.64,-6.23,1785095083229.436
0.614,-0.055,-0.232,-15.23,-25.91,-1.65,1785095083229.66
0.586,-0.027,-0.239,-16.82,-25.12,3.42,1785095083229.889
0.634,-0.01,-0.238,-18.16,-24.02,6.87,1785095083230.129
0.718,0.003,-0.224,-21.03,-23.65,8.82,1785095083230.347
0.769,0.007,-0.215,-24.84,-23.41,12.15,1785095083230.5842
0.753,-0.005,-0.198,-26.76,-22.71,17.94,1785095083230.824
0.692,-0.038,-0.192,-24.6,-22.13,24.78,1785095083231.0632
0.607,-0.074,-0.187,-20.78,-21.88,31.34,1785095083231.284
0.517,-0.116,-0.178,-15.35,-22.4,37.6,1785095083231.5159
0.445,-0.164,-0.173,-9.22,-23.9,43.03,1785095083231.745
0.433,-0.215,-0.16,-2.75,-25.97,47.09,1785095083231.9648
0.495,-0.25,-0.134,4.91,-28.96,50.39,1785095083232.1921
0.604,-0.25,-0.119,15.69,-32.81,54.63,1785095083232.4211
0.67,-0.214,-0.118,29.3,-36.74,59.57,1785095083232.651
0.701,-0.169,-0.139,42.12,-40.25,66.29,1785095083232.8708
0.643,-0.168,-0.176,51.24,-45.05,75.96,1785095083233.0999
0.544,-0.205,-0.166,55.91,-45.14,83.38,1785095083233.3171
0.478,-0.231,-0.166,60.24,-45.99,86.0,1785095083233.5251
0.461,-0.307,-0.159,65.19,-54.08,97.23,1785095083233.744
0.445,-0.332,-0.106,70.77,-60.64,105.87,1785095083233.96
0.456,-0.293,-0.074,80.81,-62.47,108.92,1785095083234.197
0.537,-0.294,-0.088,92.96,-67.17,117.62,1785095083234.408
0.583,-0.302,-0.121,101.72,-74.34,127.81,1785095083234.632
0.558,-0.307,-0.187,106.3,-78.98,138.13,1785095083234.853
0.498,-0.38,-0.254,105.29,-82.71,151.43,1785095083235.075
0.424,-0.5,-0.292,94.79,-86.43,163.76,1785095083235.294
0.359,-0.638,-0.318,80.72,-89.27,174.26,1785095083235.507
0.324,-0.796,-0.319,68.61,-92.47,185.4,1785095083235.7239
0.302,-0.9,-0.304,59.3,-96.96,196.81,1785095083235.936
0.31,-0.911,-0.292,56.43,-100.89,210.49,1785095083236.178
0.346,-0.869,-0.314,62.65,-103.7,224.77,1785095083236.4302
0.371,-0.777,-0.31,73.21,-105.53,236.88,1785095083236.651
0.39,-0.676,-0.298,84.93,-107.67,246.8,1785095083236.8628
0.414,-0.656,-0.345,94.67,-110.14,254.37,1785095083237.083
0.405,-0.753,-0.398,99.61,-111.51,259.71,1785095083237.3052
0.332,-0.932,-0.434,99.61,-111.73,261.51,1785095083237.521
0.237,-1.109,-0.395,93.6,-115.02,262.12,1785095083237.74
0.207,-1.164,-0.373,84.57,-119.33,261.67,1785095083237.9639
0.192,-1.106,-0.475,76.05,-119.3,252.51,1785095083238.189
0.14,-1.094,-0.555,58.53,-119.72,254.13,1785095083238.409
0.137,-1.249,-0.601,35.89,-126.04,280.25,1785095083238.622
0.14,-1.366,-0.644,21.76,-128.51,294.96,1785095083238.8489
0.14,-1.356,-0.667,22.06,-129.15,290.9,1785095083239.072
0.173,-1.313,-0.639,33.14,-129.15,279.43,1785095083239.279
0.189,-1.252,-0.596,49.17,-127.17,264.72,1785095083239.496
0.163,-1.319,-0.587,70.5,-125.22,255.59,1785095083239.709
0.064,-1.443,-0.555,88.38,-123.17,250.16,1785095083239.921
-0.019,-1.513,-0.564,98.64,-117.98,245.49,1785095083240.122
-0.083,-1.505,-0.673,96.71,-108.55,237.46,1785095083240.331
-0.187,-1.456,-0.756,75.59,-101.47,230.14,1785095083240.541
-0.159,-1.481,-0.82,38.91,-101.14,229.8,1785095083240.75
-0.167,-1.439,-0.811,0.0,-94.39,213.08,1785095083240.947
-0.211,-1.349,-0.758,-30.09,-82.98,193.18,1785095083241.156
-0.212,-1.268,-0.706,-50.48,-79.62,184.36,1785095083241.366
-0.241,-1.218,-0.623,-57.22,-79.38,183.87,1785095083241.568
-0.221,-1.341,-0.586,-45.56,-79.65,193.37,1785095083241.7742
-0.267,-1.415,-0.555,-23.83,-78.34,188.6,1785095083241.981
-0.355,-1.396,-0.533,2.62,-73.15,174.44,1785095083242.187
-0.36,-1.388,-0.502,27.65,-71.69,166.72,1785095083242.389
-0.322,-1.341,-0.441,51.33,-65.4,154.21,1785095083242.5999
-0.369,-1.266,-0.4,73.76,-57.8,141.94,1785095083242.811
-0.301,-1.281,-0.394,92.53,-56.12,144.41,1785095083243.0122
-0.392,-1.16,-0.375,103.95,-49.59,130.31,1785095083243.218
-0.47,-1.309,-0.371,110.29,-48.28,131.02,1785095083243.428
-0.505,-1.426,-0.364,123.33,-51.7,134.98,1785095083243.6372
-0.557,-1.352,-0.337,145.3,-43.49,125.28,1785095083243.84
-0.558,-1.248,-0.341,165.14,-30.06,116.03,1785095083244.0479
-0.532,-1.004,-0.317,173.62,-19.9,111.88,1785095083244.258
-0.476,-0.944,-0.311,173.1,-9.67,108.8,1785095083244.464
-0.493,-0.922,-0.279,159.83,-0.31,96.59,1785095083244.66
-0.535,-0.872,-0.249,140.29,6.53,89.48,1785095083244.8672
-0.526,-0.789,-0.247,118.75,12.79,87.8,1785095083245.0713
-0.592,-0.695,-0.243,87.28,18.16,81.18,1785095083245.261
-0.647,-0.727,-0.19,49.29,18.13,80.26,1785095083245.46
-0.662,-0.786,-0.146,13.18,15.56,76.91,1785095083245.66
-0.733,-0.796,-0.088,-15.63,16.17,71.38,1785095083245.86
-0.734,-0.879,-0.059,-31.22,15.5,77.94,1785095083246.05
-0.771,-0.852,-0.033,-38.88,14.1,78.71,1785095083246.252
-0.774,-0.798,-0.031,-41.02,12.79,81.33,1785095083246.4531
-0.779,-0.745,-0.057,-43.46,11.29,83.41,1785095083246.646
-0.78,-0.696,-0.076,-48.83,10.93,81.97,1785095083246.8438
-0.817,-0.678,-0.093,-55.45,11.69,78.59,1785095083247.042
-0.844,-0.699,-0.103,-63.66,11.38,77.09,1785095083247.23
-0.886,-0.699,-0.102,-72.51,10.74,75.05,1785095083247.419
-0.885,-0.713,-0.105,-78.86,9.4,76.24,1785095083247.6108
-0.895,-0.682,-0.107,-84.54,9.98,74.8,1785095083247.7961
-0.903,-0.655,-0.11,-90.7,9.22,75.66,1785095083247.9849
-0.918,-0.627,-0.097,-98.33,8.42,75.38,1785095083248.1768
-0.956,-0.732,-0.578,17.55,3.69,18.98,1785095083248.529
-0.974,-0.834,-0.542,13.03,9.09,7.08,1785095083248.7192
-1.054,-0.844,-0.559,9.4,15.02,0.76,1785095083249.582
-1.128,-0.822,-0.527,4.67,19.99,-3.97,1785095083255.035
-1.105,-0.784,-0.476,1.59,22.16,-11.96,1785095083265.629
-1.101,-0.742,-0.402,3.27,23.41,-18.34,1785095083276.177
-1.095,-0.713,-0.343,12.3,23.99,-22.31,1785095083289.4412
-1.055,-0.719,-0.36,32.99,24.32,-29.27,1785095083295.0752
-1.069,-0.704,-0.404,53.5,24.69,-38.45,1785095083305.934
-1.113,-0.676,-0.392,63.63,24.45,-43.31,1785095083319.1318
-1.113,-0.671,-0.352,68.33,22.13,-42.91,1785095083324.811
-1.08,-0.672,-0.326,74.4,18.49,-41.23,1785095083335.5908
-1.057,-0.666,-0.309,81.45,14.16,-39.58,1785095083346.245
-1.04,-0.659,-0.278,88.29,9.58,-36.62,1785095083359.508
-1.004,-0.661,-0.223,96.96,3.51,-32.41,1785095083365.192
-1.004,-0.661,-0.223,108.37,-3.72,-27.62,1785095083375.841
-0.946,-0.674,-0.192,119.27,-10.93,-22.55,1785095083386.6912
-0.908,-0.662,-0.189,125.98,-17.82,-15.78,1785095083399.8662
-0.872,-0.631,-0.197,126.04,-24.29,-8.58,1785095083405.6858
-0.831,-0.595,-0.235,116.82,-29.36,-0.7,1785095083416.3818
-0.792,-0.551,-0.271,116.82,-29.36,-0.7,1785095083429.671
-0.748,-0.539,-0.299,100.65,-33.11,7.72,1785095083435.5469
-0.704,-0.562,-0.318,81.42,-35.8,14.89,1785095083446.285
-0.656,-0.603,-0.312,62.84,-38.21,20.97,1785095083459.4922
-0.615,-0.657,-0.275,48.92,-40.56,26.28,1785095083465.4028
-0.578,-0.719,-0.241,42.15,-42.66,31.22,1785095083475.9932
-0.544,-0.781,-0.215,44.5,-44.13,35.65,1785095083486.788
-0.512,-0.841,-0.214,56.37,-45.29,39.55,1785095083499.857
-0.483,-0.871,-0.226,74.5,-45.29,43.31,1785095083505.855
-0.467,-0.829,-0.259,90.85,-44.86,48.22,1785095083516.274
-0.462,-0.734,-0.305,97.81,-43.98,54.57,1785095083529.522
-0.457,-0.668,-0.319,94.39,-43.46,60.91,1785095083535.5278
-0.431,-0.641,-0.31,84.05,-43.15,63.3,1785095083545.7961
-0.398,-0.612,-0.293,71.69,-42.02,63.94,1785095083556.675
-0.369,-0.601,-0.304,61.07,-40.28,66.01,1785095083569.946
-0.354,-0.599,-0.295,50.66,-38.12,67.02,1785095083575.818
-0.346,-0.611,-0.263,41.78,-36.71,66.16,1785095083586.53
-0.335,-0.655,-0.233,38.33,-35.55,64.3,1785095083599.6812
-0.326,-0.712,-0.244,39.7,-33.94,61.89,1785095083605.67
-0.338,-0.751,-0.282,41.69,-30.85,60.34,1785095083616.032
-0.366,-0.756,-0.331,39.31,-26.43,60.98,1785095083626.7222
-0.395,-0.744,-0.366,30.58,-22.64,62.01,1785095083639.989
-0.397,-0.723,-0.388,18.4,-20.05,62.75,1785095083645.876
-0.374,-0.72,-0.389,9.06,-17.21,62.59,1785095083656.3242
-0.367,-0.735,-0.377,5.37,-13.79,60.7,1785095083669.75
-0.384,-0.76,-0.36,7.57,-10.32,58.14,1785095083675.524
-0.4,-0.791,-0.351,15.53,-7.29,55.85,1785095083685.8062
-0.405,-0.822,-0.365,28.63,-4.0,53.29,1785095083696.322
-0.421,-0.856,-0.394,45.53,0.58,50.51,1785095083709.535
-0.453,-0.884,-0.402,63.97,6.04,48.19,1785095083715.4592
-0.465,-0.918,-0.414,83.59,11.2,45.84,1785095083725.844
-0.475,-0.921,-0.43,99.92,17.82,41.81,1785095083736.523
-0.538,-0.904,-0.467,107.52,20.63,41.57,1785095083749.713
-0.476,-0.944,-0.509,105.84,18.25,46.45,1785095083755.7493
-0.467,-0.862,-0.497,104.13,25.76,36.47,1785095083766.433
-0.515,-0.867,-0.511,109.01,35.74,28.6,1785095083779.711
-0.545,-0.899,-0.522,106.63,34.97,25.39,1785095083785.635
-0.558,-0.869,-0.477,101.38,32.81,20.97,1785095083796.3938
-0.561,-0.888,-0.449,103.61,32.65,17.79,1785095083809.7139
-0.563,-0.912,-0.436,107.97,30.52,12.45,1785095083815.629
-0.569,-0.891,-0.455,112.0,28.75,5.55,1785095083826.277
-0.59,-0.859,-0.538,111.15,26.46,-0.55,1785095083839.541
-0.613,-0.796,-0.605,98.27,24.11,-5.8,1785095083845.474
-0.631,-0.754,-0.619,77.03,22.83,-10.47,1785095083855.926
-0.65,-0.772,-0.611,54.57,22.64,-15.63,1785095083866.54
-0.671,-0.837,-0.569,34.03,22.71,-21.18,1785095083879.7979
-0.687,-0.906,-0.493,18.04,23.16,-27.01,1785095083885.74
-0.683,-0.971,-0.428,10.1,25.12,-32.38,1785095083896.294
-0.672,-1.022,-0.379,10.32,28.72,-37.48,1785095083909.499
-0.68,-1.058,-0.373,16.36,32.65,-43.4,1785095083915.4282
-0.695,-1.087,-0.393,23.07,37.23,-50.42,1785095083925.9597
-0.714,-1.095,-0.382,27.62,42.54,-58.44,1785095083936.7449
-0.716,-1.108,-0.344,32.44,47.3,-67.54,1785095083949.918
-0.714,-1.125,-0.296,38.82,51.79,-77.55,1785095083955.571
-0.731,-1.132,-0.248,45.01,56.25,-88.17,1785095083966.399
-0.713,-1.184,-0.269,49.96,60.06,-95.46,1785095083979.589
-0.703,-1.208,-0.316,48.19,62.78,-101.41,1785095083985.493
-0.722,-1.177,-0.372,43.43,69.55,-106.3,1785095083996.246
-0.756,-1.165,-0.433,37.14,75.59,-109.04,1785095084009.4941
-0.74,-1.164,-0.436,28.17,78.83,-113.38,1785095084015.497
-0.698,-1.147,-0.426,19.2,81.33,-119.57,1785095084026.224
-0.627,-1.159,-0.409,13.12,84.02,-122.81,1785095084039.463
-0.553,-1.168,-0.391,11.08,88.02,-128.15,1785095084045.366
-0.487,-1.155,-0.374,13.52,92.59,-137.58,1785095084056.1963
-0.438,-1.153,-0.35,16.69,95.95,-149.75,1785095084069.413
-0.402,-1.136,-0.326,15.11,97.29,-161.9,1785095084075.51
-0.365,-1.14,-0.331,11.93,97.17,-169.8,1785095084086.3481
-0.343,-1.168,-0.353,9.4,96.74,-173.47,1785095084096.8032
-0.323,-1.193,-0.358,8.42,96.35,-175.02,1785095084110.0117
-0.299,-1.209,-0.363,8.67,96.19,-175.51,1785095084115.8872
-0.256,-1.221,-0.373,7.66,95.98,-175.36,1785095084126.4482
-0.23,-1.235,-0.367,4.55,95.61,-175.21,1785095084139.724
-0.198,-1.238,-0.351,-0.98,95.28,-174.08,1785095084145.602
-0.138,-1.228,-0.321,-6.26,95.0,-173.77,1785095084156.1812
-0.081,-1.266,-0.287,-7.66,94.33,-175.51,1785095084169.431
-0.063,-1.329,-0.255,-6.99,92.32,-177.74,1785095084175.345
-0.07,-1.382,-0.236,-3.51,89.97,-178.59,1785095084185.881
-0.06,-1.423,-0.251,3.11,87.62,-177.77,1785095084196.527
-0.019,-1.42,-0.282,8.06,85.48,-177.5,1785095084209.7468
0.018,-1.382,-0.304,7.39,82.89,-177.43,1785095084215.653
0.055,-1.384,-0.304,1.31,80.26,-177.8,1785095084226.277
0.076,-1.414,-0.277,-7.66,78.19,-180.91,1785095084239.479
0.078,-1.421,-0.251,-15.38,77.15,-186.9,1785095084245.3718
0.102,-1.443,-0.242,-19.93,73.34,-184.61,1785095084256.18
0.126,-1.426,-0.233,-20.63,69.37,-181.4,1785095084269.372
0.15,-1.371,-0.205,-17.67,68.18,-181.77,1785095084275.323
0.138,-1.297,-0.193,-13.43,69.86,-185.8,1785095084286.078
0.145,-1.249,-0.184,-12.6,68.15,-184.12,1785095084296.781
0.165,-1.202,-0.167,-13.76,64.97,-178.41,1785095084310.091
0.177,-1.149,-0.129,-13.49,64.18,-172.92,1785095084316.0132
0.184,-1.112,-0.111,-13.52,63.39,-169.56,1785095084326.7688
0.179,-1.102,-0.098,-16.17,61.46,-166.51,1785095084339.9648
0.143,-1.121,-0.08,-21.33,59.27,-163.49,1785095084345.7039
0.14,-1.136,-0.103,-28.84,56.58,-160.53,1785095084357.023
0.194,-1.092,-0.11,-37.93,55.3,-157.38,1785095084370.142
0.237,-1.043,-0.117,-44.89,54.99,-151.62,1785095084375.925
0.257,-1.007,-0.133,-48.31,55.7,-145.45,1785095084386.829
0.257,-0.975,-0.129,-49.96,56.76,-141.06,1785095084399.926
0.247,-0.94,-0.1,-54.05,56.76,-137.3,1785095084405.977
0.244,-0.929,-0.088,-61.04,55.91,-133.73,1785095084416.6711
0.223,-0.946,-0.074,-70.13,55.15,-130.68,1785095084429.878
0.246,-0.956,-0.072,-78.74,54.26,-129.52,1785095084435.862
0.313,-0.937,-0.076,-83.74,54.11,-129.4,1785095084446.6492
0.338,-0.895,-0.074,-83.8,54.9,-128.33,1785095084459.838
0.379,-0.864,-0.105,-79.87,55.42,-126.26,1785095084465.771
0.405,-0.802,-0.127,-76.3,55.67,-125.74,1785095084476.479
0.4,-0.75,-0.12,-72.85,56.34,-123.54,1785095084489.8062
0.407,-0.723,-0.103,-68.64,56.73,-120.67,1785095084495.801
0.418,-0.688,-0.103,-65.43,56.28,-118.08,1785095084506.571
0.417,-0.657,-0.108,-65.43,55.94,-114.23,1785095084520.031
0.408,-0.631,-0.117,-68.88,55.91,-110.26,1785095084525.762
0.401,-0.614,-0.142,-72.91,57.04,-105.5,1785095084536.622
0.393,-0.595,-0.133,-75.23,58.6,-100.71,1785095084549.8008
0.422,-0.56,-0.14,-76.08,59.57,-96.71,1785095084555.7617
0.465,-0.475,-0.133,-80.26,60.37,-91.98,1785095084566.2742
0.519,-0.389,-0.126,-87.34,59.57,-85.85,1785095084579.5332
0.552,-0.341,-0.126,-94.82,58.47,-79.23,1785095084585.443
0.538,-0.346,-0.104,-98.79,57.92,-72.76,1785095084596.004
0.525,-0.384,-0.108,-97.38,57.01,-68.06,1785095084606.645
0.512,-0.417,-0.106,-91.92,56.43,-64.97,1785095084620.107
0.513,-0.468,-0.117,-82.8,56.28,-62.04,1785095084625.84
0.557,-0.508,-0.119,-73.58,57.04,-59.63,1785095084636.437
0.61,-0.504,-0.082,-66.77,57.22,-56.7,1785095084649.562
0.61,-0.504,-0.082,-60.85,56.15,-52.46,1785095084655.5469
0.664,-0.486,-0.038,-55.15,54.02,-47.21,1785095084666.039
0.71,-0.466,-0.001,-49.84,51.06,-41.78,1785095084676.713
0.743,-0.435,0.018,-44.37,47.43,-36.53,1785095084690.431
0.744,-0.419,0.008,-37.72,43.21,-34.0,1785095084696.1392
0.707,-0.46,-0.02,-37.72,43.21,-34.0,1785095084706.4153
0.672,-0.524,-0.037,-31.22,39.74,-36.19,1785095084719.715
0.634,-0.593,-0.034,-26.15,36.29,-39.37,1785095084725.619
0.649,-0.644,-0.017,-23.19,32.47,-40.41,1785095084736.126
0.683,-0.642,0.021,-21.0,28.02,-43.43,1785095084746.7231
0.715,-0.614,0.064,-18.46,22.89,-46.33,1785095084759.9849
0.714,-0.583,0.09,-16.79,17.64,-48.25,1785095084766.002
0.708,-0.54,0.095,-18.49,11.63,-49.71,1785095084776.489
0.711,-0.503,0.087,-23.74,5.28,-52.03,1785095084789.679
0.702,-0.499,0.068,-30.09,-0.89,-55.76,1785095084795.5999
0.669,-0.503,0.033,-36.41,-6.07,-60.49,1785095084805.865
0.627,-0.513,0.017,-39.83,-9.89,-65.31,1785095084816.446
0.62,-0.541,-0.004,-39.22,-13.12,-70.35,1785095084829.655
0.637,-0.527,-0.008,-38.15,-15.96,-76.08,1785095084835.778
0.658,-0.47,-0.004,-37.45,-18.74,-80.29,1785095084846.1519
0.666,-0.419,-0.005,-38.7,-21.06,-83.41,1785095084859.3909
0.665,-0.346,0.003,-45.44,-23.65,-85.82,1785095084865.3381
0.663,-0.304,-0.01,-53.74,-27.34,-87.92,1785095084875.9639
0.653,-0.269,-0.056,-62.26,-30.92,-90.91,1785095084886.6821
0.643,-0.231,-0.092,-68.3,-33.14,-94.3,1785095084899.646
0.637,-0.208,-0.107,-70.77,-34.64,-97.9,1785095084907.0798
0.635,-0.183,-0.138,-72.66,-35.98,-101.47,1785095084921.602
0.616,-0.155,-0.164,-74.74,-36.23,-104.37,1785095084929.3281
0.602,-0.128,-0.189,-74.59,-35.62,-106.94,1785095084935.18
0.595,-0.087,-0.221,-71.75,-34.12,-110.02,1785095084946.219
0.585,-0.026,-0.219,-67.57,-30.64,-111.24,1785095084959.401
0.587,0.012,-0.177,-61.62,-27.62,-111.06,1785095084965.032
0.616,0.057,-0.15,-55.94,-27.04,-110.63,1785095084976.3022
0.638,0.102,-0.146,-52.22,-27.8,-108.95,1785095084989.4001
0.653,0.109,-0.17,-51.03,-29.82,-108.55,1785095084995.366
0.652,0.121,-0.242,-51.97,-31.56,-109.44,1785095085006.256
0.616,0.171,-0.3,-50.2,-30.64,-108.86,1785095085019.474
0.589,0.22,-0.32,-40.04,-28.05,-106.11,1785095085025.213
0.583,0.27,-0.315,-23.68,-24.66,-103.46,1785095085036.2283
0.606,0.34,-0.269,-2.9,-21.88,-99.58,1785095085046.688
0.635,0.366,-0.246,23.65,-22.19,-96.13,1785095085059.9639
0.64,0.372,-0.273,50.17,-23.29,-92.99,1785095085065.877
0.615,0.397,-0.316,71.93,-23.38,-88.08,1785095085076.4182
0.588,0.417,-0.358,88.81,-23.38,-83.16,1785095085089.726
0.567,0.413,-0.429,104.19,-22.77,-79.87,1785095085095.593
0.558,0.406,-0.493,122.84,-18.65,-76.75,1785095085106.22
0.551,0.365,-0.53,151.46,-12.02,-73.43,1785095085119.5789
0.547,0.336,-0.553,185.4,-6.26,-71.44,1785095085125.507
0.554,0.358,-0.583,218.12,-3.27,-70.01,1785095085136.121
0.556,0.416,-0.606,248.12,-1.95,-66.35,1785095085146.7122
0.577,0.459,-0.635,275.15,-1.07,-60.88,1785095085159.9832
0.584,0.492,-0.716,294.6,0.24,-56.89,1785095085165.902
0.607,0.571,-0.773,299.81,2.14,-50.78,1785095085176.446
0.665,0.615,-0.818,297.04,3.69,-45.59,1785095085189.7449
0.708,0.588,-0.891,287.67,5.86,-44.77,1785095085195.615
0.707,0.516,-0.927,274.18,9.67,-43.64,1785095085206.139
0.665,0.399,-0.892,266.21,13.86,-41.6,1785095085219.506
0.605,0.242,-0.859,270.42,17.18,-40.99,1785095085225.353
0.554,0.159,-0.842,280.28,21.42,-40.44,1785095085236.1338
0.56,0.185,-0.832,287.88,26.52,-35.52,1785095085249.3608
0.689,0.242,-0.836,288.61,29.82,-26.4,1785095085255.35
0.759,0.253,-0.921,283.0,31.4,-22.71,1785095085266.076
0.756,0.29,-0.899,263.68,33.88,-19.56,1785095085279.361
0.791,0.237,-0.937,243.08,32.93,-13.86,1785095085285.331
0.81,0.174,-0.905,220.22,34.73,-8.73,1785095085295.9612
0.811,0.076,-0.84,203.38,38.39,-3.48,1785095085306.6938
0.822,0.003,-0.796,194.16,43.24,-1.25,1785095085320.16
0.798,-0.05,-0.761,190.74,49.07,-0.18,1785095085325.85
0.808,-0.031,-0.734,184.73,54.75,1.34,1785095085336.313
0.839,0.029,-0.689,169.59,58.96,5.37,1785095085349.538
0.855,0.037,-0.632,148.59,60.67,13.12,1785095085355.5571
0.898,0.022,-0.588,125.71,60.98,19.59,1785095085366.1758
0.957,0.019,-0.535,102.73,62.14,23.56,1785095085379.463
0.992,-0.021,-0.488,81.36,64.97,24.35,1785095085385.4248
0.966,-0.093,-0.415,60.37,70.35,21.42,1785095085395.968
0.925,-0.183,-0.341,37.72,75.38,17.09,1785095085406.677
0.929,-0.255,-0.305,12.85,79.17,12.73,1785095085420.122
0.963,-0.244,-0.29,-15.69,82.8,11.05,1785095085425.8062
0.986,-0.189,-0.288,-48.31,85.7,13.03,1785095085436.469
1.019,-0.161,-0.274,-82.61,88.11,16.75,1785095085449.65
1.052,-0.151,-0.226,-116.49,90.43,20.48,1785095085455.5618
1.082,-0.166,-0.171,-145.79,91.53,24.26,1785095085466.2258
1.111,-0.191,-0.129,-170.08,92.5,26.76,1785095085479.468
1.135,-0.221,-0.077,-190.37,92.84,27.68,1785095085485.391
1.139,-0.252,-0.03,-206.92,92.72,28.05,1785095085496.179
1.162,-0.266,-0.003,-221.11,91.89,28.72,1785095085509.4553
1.191,-0.241,0.004,-236.03,91.19,29.79,1785095085515.407
1.203,-0.239,0.02,-251.17,89.79,31.46,1785095085526.154
1.194,-0.291,0.027,-263.83,88.69,32.9,1785095085539.449
1.206,-0.336,0.05,-274.18,87.34,33.78,1785095085545.1038
1.236,-0.397,0.084,-280.25,84.48,33.2,1785095085556.229
1.258,-0.456,0.131,-283.12,80.51,31.34,1785095085570.2012
1.246,-0.518,0.169,-280.31,75.35,27.5,1785095085575.3447
1.252,-0.603,0.196,-270.58,68.39,25.3,1785095085586.064
1.246,-0.64,0.217,-254.19,61.65,21.21,1785095085596.7732
1.23,-0.645,0.228,-233.99,54.75,15.75,1785095085610.07
1.223,-0.647,0.208,-214.51,47.7,8.67,1785095085615.9712
1.21,-0.616,0.205,-200.32,41.66,0.95,1785095085626.619
1.196,-0.619,0.202,-187.02,34.73,-7.05,1785095085639.925
1.184,-0.659,0.2,-173.35,27.89,-15.47,1785095085645.8098
1.176,-0.649,0.21,-162.94,22.16,-23.29,1785095085656.4858
1.151,-0.614,0.215,-155.71,16.82,-29.48,1785095085669.739
1.103,-0.612,0.198,-149.08,11.81,-36.32,1785095085675.649
1.079,-0.616,0.185,-143.31,6.2,-44.68,1785095085686.333
1.079,-0.56,0.188,-139.35,0.27,-53.41,1785095085699.542
1.068,-0.516,0.183,-133.3,-6.01,-62.62,1785095085705.558
1.041,-0.508,0.16,-124.09,-12.02,-73.27,1785095085716.163
1.005,-0.459,0.143,-114.38,-18.62,-83.19,1785095085729.378
0.976,-0.363,0.126,-107.06,-24.38,-90.24,1785095085735.3262
0.954,-0.317,0.097,-100.04,-29.69,-96.22,1785095085746.102
0.945,-0.282,0.085,-94.82,-35.04,-103.15,1785095085759.358
0.94,-0.245,0.068,-90.15,-40.28,-110.14,1785095085765.342
0.921,-0.187,0.062,-87.47,-44.74,-115.12,1785095085776.051
0.895,-0.119,0.076,-84.75,-49.81,-118.14,1785095085786.8538
0.878,-0.052,0.075,-81.06,-55.24,-121.13,1785095085800.051
0.849,0.0,0.054,-78.34,-60.52,-124.3,1785095085806.139
0.814,0.055,0.034,-78.25,-65.65,-127.78,1785095085816.771
0.777,0.113,-0.002,-78.31,-71.32,-131.14,1785095085830.024
0.746,0.192,-0.049,-75.93,-76.51,-133.37,1785095085835.969
0.718,0.291,-0.097,-70.28,-80.17,-134.28,1785095085846.7253
0.688,0.403,-0.149,-63.23,-82.52,-132.94,1785095085859.9749
0.672,0.498,-0.199,-57.83,-83.38,-129.22,1785095085865.935
0.655,0.565,-0.24,-53.93,-82.16,-124.64,1785095085876.681
0.639,0.609,-0.276,-49.81,-79.13,-117.1,1785095085889.909
0.623,0.668,-0.298,-43.58,-75.78,-108.71,1785095085895.854
0.611,0.723,-0.315,-35.19,-71.47,-99.92,1785095085906.637
0.61,0.757,-0.347,-28.35,-65.92,-90.76,1785095085919.8289
0.6,0.792,-0.364,-23.56,-59.76,-80.66,1785095085925.3208
0.6,0.792,-0.364,-16.39,-54.41,-69.58,1785095085936.253
0.584,0.807,-0.377,-6.38,-49.47,-58.69,1785095085949.599
0.572,0.824,-0.416,5.46,-44.89,-47.12,1785095085955.3179
0.557,0.862,-0.481,16.88,-39.74,-34.79,1785095085965.826
0.545,0.926,-0.561,28.02,-33.66,-22.49,1785095085976.4832
0.551,0.976,-0.591,28.02,-33.66,-22.49,1785095085989.7659
0.56,0.993,-0.626,40.13,-27.5,-11.54,1785095085995.635
0.558,1.033,-0.629,49.35,-20.36,-0.76,1785095086006.0632
0.568,1.047,-0.613,56.06,-12.97,11.11,1785095086016.713
0.598,1.033,-0.606,55.91,-5.68,21.15,1785095086029.991
0.624,1.027,-0.591,48.07,1.89,31.46,1785095086035.9958
0.647,0.987,-0.564,39.0,7.93,42.7,1785095086046.158
0.677,0.935,-0.561,30.95,12.45,52.06,1785095086056.8472
0.697,0.906,-0.558,23.59,16.21,60.7,1785095086070.182
0.701,0.872,-0.559,17.82,19.32,69.73,1785095086076.042
0.704,0.817,-0.56,11.44,22.28,77.15,1785095086086.668
0.719,0.769,-0.56,4.09,24.26,82.52,1785095086099.781
0.744,0.709,-0.554,-0.46,26.49,88.56,1785095086105.7588
0.771,0.611,-0.535,-2.81,29.3,94.36,1785095086115.925
0.801,0.516,-0.514,-6.04,30.85,98.88,1785095086126.552
0.825,0.457,-0.496,-9.58,31.34,103.49,1785095086139.7979
0.836,0.411,-0.474,-12.21,31.92,108.68,1785095086145.7122
0.84,0.372,-0.449,-16.05,32.01,112.19,1785095086156.4119
0.874,0.339,-0.433,-19.56,32.07,114.81,1785095086169.7988
0.886,0.325,-0.432,-22.22,32.38,114.41,1785095086175.573
0.885,0.267,-0.428,-24.96,33.54,118.44,1785095086186.523
0.909,0.18,-0.417,-26.37,36.01,122.5,1785095086199.682
0.913,0.135,-0.404,-27.47,38.54,121.62,1785095086205.6938
0.923,0.068,-0.385,-29.18,39.31,121.83,1785095086216.348
0.939,-0.001,-0.349,-32.87,40.1,121.83,1785095086229.581
0.956,-0.071,-0.315,-34.94,41.23,121.46,1785095086235.481
0.985,-0.146,-0.296,-34.18,41.93,121.16,1785095086246.309
0.997,-0.196,-0.275,-32.14,42.39,119.66,1785095086259.5378
0.999,-0.249,-0.252,-27.22,42.54,117.68,1785095086265.441
1.006,-0.314,-0.233,-21.3,43.12,115.09,1785095086276.272
1.015,-0.372,-0.198,-15.87,44.28,111.85,1785095086289.5942
1.022,-0.42,-0.167,-10.38,44.98,108.34,1785095086295.463
1.028,-0.462,-0.141,-5.16,45.35,104.25,1785095086306.1702
1.032,-0.504,-0.125,-1.83,45.75,99.52,1785095086316.633
1.036,-0.559,-0.116,0.61,45.66,93.36,1785095086329.932
1.018,-0.613,-0.105,3.08,45.44,85.42,1785095086335.84
0.995,-0.668,-0.083,6.16,45.66,76.94,1785095086346.103
0.991,-0.709,-0.052,9.98,44.95,67.51,1785095086356.67
1.0,-0.728,-0.005,13.55,43.7,57.25,1785095086370.057
1.009,-0.745,0.03,17.46,40.86,46.66,1785095086375.8499
1.023,-0.757,0.035,20.97,37.14,34.79,1785095086386.436
1.032,-0.745,0.021,23.53,33.02,21.55,1785095086399.6748
1.021,-0.715,0.004,25.27,29.69,9.16,1785095086405.663
1.002,-0.681,0.01,24.38,27.07,-1.77,1785095086415.884
0.999,-0.659,0.035,21.49,23.74,-12.94,1785095086426.6392
1.014,-0.641,0.053,17.12,19.84,-24.32,1785095086439.84
1.025,-0.608,0.067,11.81,15.56,-34.3,1785095086445.881
1.018,-0.571,0.074,6.9,10.96,-43.46,1785095086456.192
1.017,-0.531,0.063,2.04,6.32,-52.4,1785095086466.6482
1.02,-0.505,0.063,-2.81,1.8,-61.25,1785095086479.9502
1.017,-0.49,0.069,-6.96,-2.84,-70.13,1785095086485.738
1.002,-0.462,0.067,-8.39,-7.57,-78.71,1785095086495.841
0.986,-0.415,0.059,-7.08,-12.45,-86.4,1785095086506.419
0.964,-0.362,0.047,-4.49,-17.24,-92.75,1785095086519.835
0.946,-0.32,0.03,-0.89,-22.34,-98.15,1785095086525.514
0.932,-0.28,0.008,2.9,-27.31,-103.34,1785095086535.9448
0.92,-0.225,-0.008,5.68,-31.83,-107.64,1785095086546.668
0.896,-0.171,-0.027,6.84,-35.95,-111.18,1785095086559.823
0.864,-0.087,-0.048,3.51,-39.49,-113.47,1785095086565.7292
0.841,0.006,-0.056,-3.08,-42.42,-114.38,1785095086576.2788
0.826,0.062,-0.07,-9.0,-45.14,-115.48,1785095086589.553
0.808,0.113,-0.081,-14.13,-47.12,-116.98,1785095086595.4348
0.808,0.142,-0.103,-17.49,-48.71,-118.08,1785095086606.1758
0.812,0.161,-0.136,-19.93,-50.23,-119.94,1785095086619.426
0.788,0.206,-0.169,-19.56,-51.24,-120.52,1785095086625.355
0.75,0.255,-0.21,-13.18,-51.27,-119.42,1785095086636.116
0.711,0.293,-0.242,-1.25,-50.72,-118.11,1785095086646.7468
0.679,0.338,-0.27,13.61,-49.62,-115.97,1785095086660.01
0.667,0.394,-0.283,28.53,-48.19,-111.67,1785095086665.979
0.691,0.484,-0.324,37.6,-46.48,-105.26,1785095086676.728
0.724,0.605,-0.324,34.42,-42.48,-96.22,1785095086689.981
0.724,0.623,-0.323,26.55,-39.43,-87.5,1785095086695.879
0.71,0.6,-0.316,17.4,-36.35,-81.76,1785095086706.421
0.692,0.59,-0.308,13.21,-33.69,-76.88,1785095086719.668
0.68,0.61,-0.322,16.11,-31.98,-70.56,1785095086725.57
0.678,0.643,-0.349,23.96,-29.57,-63.11,1785095086736.154
0.677,0.656,-0.369,35.95,-26.73,-55.88,1785095086746.8218
0.675,0.665,-0.396,49.04,-24.2,-48.52,1785095086760.037
0.677,0.693,-0.418,59.27,-22.31,-40.44,1785095086766.0107
0.697,0.719,-0.438,66.38,-20.84,-32.07,1785095086776.719
0.716,0.746,-0.445,69.19,-19.65,-24.9,1785095086789.8162
0.726,0.772,-0.452,69.31,-19.32,-18.22,1785095086795.668
0.748,0.786,-0.46,67.26,-18.22,-11.14,1785095086806.153
0.731,0.814,-0.458,60.95,-17.12,-3.85,1785095086816.716
0.797,0.757,-0.443,52.13,-15.02,10.56,1785095086830.0103
0.798,0.789,-0.455,41.32,-13.03,11.75,1785095086836.0032
0.801,0.791,-0.471,28.69,-13.18,16.42,1785095086846.436
0.83,0.72,-0.469,16.45,-12.18,23.99,1785095086859.7542
0.832,0.678,-0.463,7.29,-11.02,28.05,1785095086865.59
0.814,0.645,-0.468,3.14,-12.7,31.8,1785095086876.0068
0.835,0.576,-0.472,1.8,-13.15,37.42,1785095086886.4907
0.8,0.535,-0.467,1.71,-12.39,41.6,1785095086899.779
0.86,0.511,-0.49,5.1,-14.5,47.67,1785095086905.698
0.842,0.491,-0.463,8.67,-10.1,51.21,1785095086915.951
0.868,0.454,-0.472,9.43,-5.92,59.48,1785095086926.396
0.881,0.506,-0.491,6.53,-11.41,59.11,1785095086939.746
0.854,0.541,-0.503,-1.98,-13.0,58.32,1785095086945.2422
0.864,0.448,-0.506,-13.61,-8.76,65.49,1785095086955.794
0.872,0.391,-0.48,-23.22,-5.71,72.39,1785095086966.46
0.865,0.392,-0.467,-26.34,-5.22,76.33,1785095086979.682
0.874,0.387,-0.47,-28.14,-3.88,79.5,1785095086985.566
0.887,0.353,-0.475,-32.07,-1.53,82.64,1785095086995.91
0.882,0.292,-0.465,-35.07,0.58,85.7,1785095087006.449
0.878,0.237,-0.456,-34.39,1.86,87.44,1785095087019.853
0.877,0.195,-0.458,-31.19,2.78,89.05,1785095087025.664
0.878,0.155,-0.46,-28.32,4.88,91.25,1785095087035.687
0.881,0.12,-0.447,-26.52,8.27,93.51,1785095087046.447
0.911,0.091,-0.45,-24.02,10.07,95.46,1785095087059.691
0.913,0.07,-0.452,-20.69,11.29,94.52,1785095087065.5889
0.914,0.054,-0.454,-18.22,14.16,94.42,1785095087076.153
0.917,0.037,-0.434,-18.34,17.0,95.16,1785095087086.9429
0.92,-0.001,-0.412,-19.1,19.41,93.81,1785095087100.0461
0.938,-0.039,-0.393,-21.79,21.06,92.75,1785095087106.082
0.954,-0.069,-0.378,-26.46,22.22,91.98,1785095087116.479
0.954,-0.112,-0.366,-31.19,23.74,90.7,1785095087129.72
0.96,-0.179,-0.339,-33.69,25.42,88.9,1785095087135.6558
0.98,-0.238,-0.326,-33.97,26.12,85.79,1785095087146.2341
0.992,-0.265,-0.319,-32.96,26.46,82.98,1785095087159.4949
0.986,-0.294,-0.314,-29.54,27.07,80.72,1785095087165.3591
0.979,-0.326,-0.298,-24.6,28.44,77.79,1785095087175.921
0.983,-0.36,-0.284,-19.2,29.24,74.13,1785095087186.7048
0.988,-0.391,-0.268,-13.76,29.33,69.67,1785095087199.769
0.985,-0.425,-0.243,-7.6,29.79,65.58,1785095087205.72
0.993,-0.462,-0.225,-1.25,29.94,62.62,1785095087216.0552
0.993,-0.462,-0.225,4.61,29.36,58.53,1785095087226.644
1.001,-0.47,-0.212,12.24,28.08,52.74,1785095087239.9302
1.001,-0.47,-0.203,20.14,26.52,46.45,1785095087245.822
1.0,-0.485,-0.196,27.28,25.54,38.88,1785095087256.366
0.992,-0.494,-0.187,27.28,25.54,38.88,1785095087269.782
0.99,-0.496,-0.179,33.02,24.75,31.1,1785095087275.5142
0.991,-0.495,-0.172,37.51,23.87,23.5,1785095087286.0469
0.98,-0.486,-0.159,40.28,22.8,16.17,1785095087296.6663
0.973,-0.474,-0.144,41.02,20.94,9.52,1785095087309.927
0.978,-0.451,-0.139,38.51,18.56,2.96,1785095087315.801
0.985,-0.412,-0.132,32.75,15.93,-3.85,1785095087326.132
0.985,-0.404,-0.126,26.49,13.0,-10.44,1785095087336.9192
0.989,-0.396,-0.127,19.59,10.13,-17.09,1785095087350.015
0.989,-0.383,-0.119,12.82,7.26,-23.13,1785095087356.055
0.98,-0.395,-0.116,9.19,4.52,-29.02,1785095087366.188
0.973,-0.397,-0.118,7.97,1.86,-35.65,1785095087376.7
0.969,-0.382,-0.114,9.16,-0.43,-42.02,1785095087389.986
0.974,-0.367,-0.115,12.82,-3.17,-47.73,1785095087395.8242
0.981,-0.346,-0.118,17.91,-6.35,-53.04,1785095087406.038
0.982,-0.324,-0.125,24.02,-9.4,-57.53,1785095087416.596
0.974,-0.291,-0.134,29.11,-12.21,-61.01,1785095087429.8408
0.969,-0.249,-0.139,31.77,-14.62,-63.69,1785095087435.7432
0.957,-0.218,-0.153,32.56,-16.85,-65.74,1785095087446.313
0.946,-0.178,-0.162,30.55,-19.14,-67.32,1785095087459.5571
0.943,-0.146,-0.172,27.38,-21.39,-68.79,1785095087465.486
0.936,-0.123,-0.158,24.54,-23.65,-70.68,1785095087476.0042
0.936,-0.122,-0.142,25.3,-26.52,-72.85,1785095087486.73
0.938,-0.135,-0.135,30.88,-29.97,-75.78,1785095087499.891
0.932,-0.149,-0.132,41.08,-33.6,-78.86,1785095087505.895
0.921,-0.13,-0.157,50.08,-36.65,-81.45,1785095087516.4458
0.903,-0.061,-0.165,50.69,-39.67,-82.4,1785095087529.658
0.878,-0.004,-0.172,43.82,-44.34,-82.71,1785095087535.7002
0.864,0.041,-0.163,31.98,-49.62,-83.68,1785095087546.138
0.853,0.074,-0.178,18.89,-55.24,-84.81,1785095087556.729
0.845,0.108,-0.199,5.16,-59.72,-85.48,1785095087570.091
0.835,0.142,-0.228,-6.56,-63.63,-86.03,1785095087575.85
0.821,0.174,-0.258,-15.69,-66.32,-86.28,1785095087586.3071
0.803,0.211,-0.297,-23.96,-67.57,-86.67,1785095087599.5122
0.794,0.239,-0.324,-30.37,-67.29,-85.82,1785095087605.513
0.795,0.27,-0.348,-33.78,-65.77,-83.99,1785095087615.9329
0.801,0.323,-0.369,-36.44,-63.3,-81.51,1785095087626.6409
0.799,0.358,-0.376,-37.05,-60.49,-78.19,1785095087639.8467
0.783,0.376,-0.389,-35.74,-57.74,-74.71,1785095087645.7378
0.769,0.398,-0.394,-33.88,-54.66,-70.93,1785095087656.317
0.756,0.434,-0.414,-34.03,-52.28,-66.62,1785095087669.5837
0.739,0.47,-0.449,-36.84,-49.71,-62.04,1785095087675.847
0.715,0.497,-0.497,-39.58,-46.75,-57.34,1785095087686.156
0.706,0.541,-0.537,-40.74,-42.79,-52.31,1785095087696.6619
0.723,0.58,-0.555,-38.48,-38.3,-47.18,1785095087709.909
0.733,0.597,-0.577,-34.36,-34.15,-42.18,1785095087715.8
0.733,0.611,-0.603,-31.13,-29.97,-36.47,1785095087726.336
0.728,0.634,-0.62,-28.14,-25.54,-30.21,1785095087739.6719
0.725,0.649,-0.629,-24.93,-21.67,-23.77,1785095087745.5051
0.719,0.656,-0.617,-21.09,-18.65,-18.46,1785095087756.0461
0.711,0.658,-0.6,-15.59,-15.75,-13.79,1785095087766.666
0.713,0.66,-0.599,-9.49,-12.94,-9.06,1785095087779.91
0.726,0.677,-0.612,-4.15,-9.95,-4.09,1785095087785.614
0.739,0.695,-0.63,-0.92,-6.87,1.8,1785095087795.6328
0.743,0.703,-0.648,0.58,-3.69,7.9,1785095087806.0842
0.751,0.699,-0.647,1.59,-0.55,14.04,1785095087816.598
0.758,0.678,-0.641,2.32,1.8,20.08,1785095087829.783
0.761,0.654,-0.628,1.77,4.15,26.46,1785095087835.6748
0.768,0.622,-0.602,1.31,6.32,33.08,1785095087845.7
0.776,0.585,-0.588,1.83,7.78,39.12,1785095087856.235
0.78,0.571,-0.581,1.5,9.06,44.28,1785095087866.635
0.788,0.553,-0.566,1.19,10.19,49.13,1785095087879.889
0.792,0.517,-0.579,1.1,11.78,53.59,1785095087885.7798
0.788,0.484,-0.568,-0.55,14.28,58.11,1785095087896.106
0.8,0.446,-0.538,-1.86,15.87,62.53,1785095087906.6628
0.817,0.411,-0.523,-1.89,16.63,66.38,1785095087919.916
0.82,0.39,-0.509,-1.77,17.12,70.13,1785095087926.6912
0.821,0.367,-0.495,-1.43,17.15,73.95,1785095087936.409
0.831,0.341,-0.491,-1.19,17.0,76.78,1785095087946.6018
0.84,0.313,-0.489,-0.58,17.21,79.04,1785095087960.0461
0.844,0.29,-0.475,0.37,18.07,81.58,1785095087965.8308
0.85,0.269,-0.464,0.92,19.14,84.08,1785095087976.125
0.855,0.235,-0.462,0.73,20.42,85.94,1785095087986.801
0.861,0.212,-0.451,-1.89,22.03,88.35,1785095087999.9238
0.871,0.196,-0.427,-6.47,23.19,90.98,1785095088005.888
0.886,0.17,-0.409,-11.51,23.56,93.23,1785095088016.2283
0.902,0.144,-0.387,-16.57,23.22,94.85,1785095088029.487
0.913,0.101,-0.375,-19.53,22.13,96.16,1785095088035.1428
0.917,0.059,-0.384,-21.0,21.09,97.51,1785095088045.918
0.908,0.027,-0.393,-21.73,20.72,99.22,1785095088056.662
0.897,-0.013,-0.392,-22.06,21.12,100.62,1785095088069.956
0.895,-0.056,-0.382,-22.13,21.67,100.65,1785095088075.7903
0.902,-0.094,-0.363,-21.21,22.22,100.31,1785095088086.684
0.912,-0.138,-0.336,-18.52,22.4,100.5,1785095088099.803
0.925,-0.178,-0.321,-15.02,22.19,99.77,1785095088105.8218
0.928,-0.214,-0.327,-11.78,22.25,98.54,1785095088116.3088
0.918,-0.249,-0.328,-10.25,22.34,97.05,1785095088129.556
0.917,-0.282,-0.337,-10.74,22.25,94.67,1785095088135.565
0.911,-0.324,-0.33,-11.51,22.49,91.49,1785095088146.0212
0.9,-0.369,-0.312,-11.05,22.98,87.74,1785095088156.654
0.893,-0.4,-0.285,-8.7,23.19,83.59,1785095088170.061
0.893,-0.43,-0.262,-4.43,22.98,78.95,1785095088175.8062
