ax,ay,az,gx,gy,gz,timestamp_ms
0.929,-0.925,0.214,-13.89,18.19,29.05,1785095150004.116
0.923,-0.912,0.21,-10.9,12.73,22.4,1785095150031.236
0.918,-0.895,0.201,-7.23,7.39,15.2,1785095150031.604
0.915,-0.887,0.197,-4.09,2.72,7.66,1785095150031.959
0.902,-0.881,0.209,-1.25,-1.62,1.07,1785095150032.311
0.896,-0.875,0.221,3.05,-6.5,-4.76,1785095150032.649
0.899,-0.859,0.223,9.0,-11.69,-10.38,1785095150032.9822
0.905,-0.84,0.207,14.65,-17.0,-16.05,1785095150033.329
0.911,-0.805,0.182,15.2,-21.39,-21.91,1785095150033.68
0.907,-0.79,0.166,10.44,-24.78,-27.04,1785095150034.073
0.898,-0.801,0.151,3.97,-28.11,-31.95,1785095150034.41
0.889,-0.805,0.125,-1.13,-31.31,-36.65,1785095150034.7532
0.881,-0.788,0.1,-4.12,-34.03,-40.74,1785095150035.0908
0.878,-0.778,0.087,-4.79,-36.74,-45.11,1785095150035.424
0.875,-0.768,0.078,-3.3,-39.4,-50.2,1785095150035.761
0.875,-0.767,0.075,-0.09,-41.72,-55.06,1785095150036.0962
0.865,-0.765,0.073,4.43,-44.28,-59.33,1785095150036.4421
0.843,-0.755,0.066,9.98,-47.21,-62.65,1785095150036.78
0.825,-0.729,0.052,16.08,-50.45,-65.61,1785095150037.131
0.816,-0.696,0.033,23.19,-53.83,-68.45,1785095150037.474
0.819,-0.661,0.009,30.03,-56.92,-71.29,1785095150037.838
0.821,-0.622,-0.019,34.91,-59.21,-73.85,1785095150038.156
0.817,-0.591,-0.041,36.74,-61.19,-75.78,1785095150038.455
0.815,-0.567,-0.056,35.31,-62.81,-77.76,1785095150038.757
0.82,-0.561,-0.066,32.99,-64.24,-80.17,1785095150039.0771
0.821,-0.558,-0.074,30.34,-65.71,-82.67,1785095150039.369
0.818,-0.539,-0.096,26.52,-67.14,-84.66,1785095150039.666
0.812,-0.511,-0.125,22.55,-68.42,-86.06,1785095150039.9658
0.816,-0.48,-0.16,20.42,-69.06,-88.02,1785095150040.259
0.819,-0.453,-0.188,19.07,-69.25,-90.21,1785095150040.554
0.82,-0.432,-0.201,17.7,-68.7,-91.83,1785095150040.8508
0.819,-0.426,-0.195,17.0,-68.15,-92.68,1785095150041.148
0.817,-0.427,-0.185,17.43,-68.36,-93.66,1785095150041.441
0.81,-0.427,-0.173,18.8,-68.94,-94.49,1785095150041.76
0.806,-0.433,-0.179,21.94,-69.83,-95.49,1785095150042.077
0.802,-0.432,-0.209,26.03,-70.8,-96.44,1785095150042.413
0.799,-0.405,-0.248,30.76,-71.54,-97.11,1785095150042.729
0.8,-0.367,-0.276,36.96,-71.44,-97.69,1785095150043.026
0.793,-0.332,-0.297,42.02,-71.35,-98.39,1785095150043.321
0.79,-0.301,-0.294,44.28,-71.47,-98.48,1785095150043.6091
0.788,-0.303,-0.288,46.24,-71.87,-98.33,1785095150043.9082
0.781,-0.315,-0.296,48.71,-72.48,-98.64,1785095150044.204
0.771,-0.31,-0.323,50.87,-73.31,-98.82,1785095150044.5051
0.762,-0.274,-0.347,52.4,-73.92,-98.97,1785095150044.7922
0.768,-0.231,-0.37,54.41,-74.28,-99.22,1785095150045.087
0.771,-0.192,-0.391,55.51,-74.43,-99.49,1785095150045.377
0.766,-0.165,-0.392,55.94,-74.37,-99.4,1785095150045.643
0.761,-0.156,-0.395,57.04,-74.8,-99.31,1785095150045.8933
0.76,-0.151,-0.408,58.23,-74.89,-99.34,1785095150046.156
0.752,-0.143,-0.409,59.85,-74.56,-98.51,1785095150046.424
0.752,-0.159,-0.403,63.36,-74.62,-97.6,1785095150046.6812
0.74,-0.186,-0.414,67.35,-75.2,-97.51,1785095150046.946
0.726,-0.187,-0.439,70.99,-75.93,-96.9,1785095150047.224
0.721,-0.154,-0.471,74.71,-76.33,-94.94,1785095150047.489
0.723,-0.11,-0.5,78.65,-76.39,-92.53,1785095150047.7441
0.724,-0.071,-0.508,81.27,-76.08,-89.75,1785095150048.008
0.725,-0.062,-0.499,82.19,-75.78,-87.34,1785095150048.272
0.72,-0.07,-0.493,82.92,-75.84,-85.73,1785095150048.5261
0.713,-0.069,-0.512,83.25,-75.96,-84.35,1785095150048.7922
0.706,-0.04,-0.548,82.49,-75.84,-82.13,1785095150049.0571
0.704,0.008,-0.593,81.06,-75.35,-78.95,1785095150049.32
0.708,0.055,-0.626,78.92,-74.53,-75.69,1785095150049.596
0.71,0.09,-0.651,75.56,-73.43,-72.51,1785095150049.906
0.709,0.104,-0.652,70.22,-71.9,-69.46,1785095150050.2139
0.711,0.097,-0.633,64.12,-70.47,-66.62,1785095150050.497
0.713,0.084,-0.606,57.95,-69.37,-63.88,1785095150050.7551
0.716,0.058,-0.604,52.34,-68.33,-60.88,1785095150051.0662
0.699,0.053,-0.647,45.69,-67.05,-57.74,1785095150051.359
0.684,0.108,-0.697,39.74,-64.94,-52.31,1785095150051.62
0.687,0.169,-0.753,37.48,-62.38,-45.75,1785095150051.878
0.694,0.205,-0.777,34.55,-59.24,-40.62,1785095150052.1382
0.698,0.204,-0.769,29.66,-56.25,-36.84,1785095150052.4001
0.701,0.169,-0.747,25.67,-53.35,-33.36,1785095150052.6763
0.702,0.125,-0.716,24.63,-49.81,-29.91,1785095150052.9429
0.688,0.082,-0.699,26.43,-47.12,-26.31,1785095150053.209
0.673,0.074,-0.7,30.09,-45.56,-22.31,1785095150053.452
0.668,0.092,-0.725,35.89,-43.98,-17.61,1785095150053.6858
0.667,0.114,-0.76,42.18,-42.18,-13.0,1785095150053.951
0.668,0.127,-0.797,45.81,-39.86,-8.97,1785095150054.1921
0.668,0.133,-0.806,46.48,-37.42,-5.25,1785095150054.4263
0.67,0.119,-0.801,47.09,-35.16,-1.62,1785095150054.666
0.679,0.096,-0.8,47.7,-32.87,1.19,1785095150054.909
0.678,0.076,-0.795,47.43,-30.58,3.97,1785095150055.168
0.675,0.064,-0.79,47.27,-28.87,7.2,1785095150055.4502
0.674,0.06,-0.79,48.49,-28.02,10.07,1785095150055.714
0.671,0.062,-0.792,50.6,-27.25,12.63,1785095150055.953
0.664,0.053,-0.799,52.0,-26.7,15.26,1785095150056.232
0.66,0.037,-0.803,51.58,-26.03,17.52,1785095150056.5022
0.664,0.019,-0.802,50.75,-25.15,19.47,1785095150056.745
0.668,0.002,-0.8,50.54,-24.35,21.15,1785095150056.985
0.665,-0.017,-0.798,51.0,-23.71,23.07,1785095150057.217
0.659,-0.04,-0.794,51.97,-23.04,24.78,1785095150057.458
0.648,-0.06,-0.783,53.16,-22.83,26.06,1785095150057.697
0.643,-0.077,-0.776,55.02,-23.01,27.44,1785095150057.937
0.649,-0.098,-0.778,57.25,-23.16,28.35,1785095150058.175
0.651,-0.114,-0.789,59.11,-22.74,29.11,1785095150058.4167
0.645,-0.135,-0.8,59.54,-21.67,30.09,1785095150058.656
0.636,-0.16,-0.793,59.14,-20.75,30.82,1785095150058.889
0.629,-0.188,-0.779,59.6,-19.9,31.34,1785095150059.126
0.625,-0.215,-0.771,60.58,-19.17,31.71,1785095150059.352
0.621,-0.224,-0.752,61.62,-18.71,32.23,1785095150059.5781
0.614,-0.23,-0.734,63.57,-18.8,33.23,1785095150059.797
0.601,-0.237,-0.725,66.13,-19.04,33.91,1785095150060.0222
0.592,-0.236,-0.71,68.76,-19.59,34.3,1785095150060.2468
0.586,-0.236,-0.704,71.41,-20.02,34.58,1785095150060.4648
0.57,-0.238,-0.701,73.12,-19.99,35.13,1785095150060.686
0.55,-0.24,-0.69,73.0,-19.78,35.74,1785095150060.9128
0.531,-0.247,-0.676,71.69,-19.84,36.13,1785095150061.1357
0.509,-0.258,-0.67,70.07,-19.93,36.47,1785095150061.373
0.496,-0.274,-0.676,68.21,-19.53,37.08,1785095150061.604
0.496,-0.274,-0.676,65.68,-18.34,37.97,1785095150061.8298
0.502,-0.29,-0.672,63.11,-17.3,39.86,1785095150062.0579
0.521,-0.313,-0.673,60.06,-16.33,42.54,1785095150062.281
0.529,-0.335,-0.677,56.4,-15.47,46.36,1785095150062.509
0.508,-0.354,-0.66,53.74,-15.5,50.94,1785095150062.7341
0.473,-0.375,-0.636,53.74,-15.5,50.94,1785095150062.951
0.435,-0.398,-0.608,52.89,-16.54,54.51,1785095150063.18
0.4,-0.416,-0.584,54.48,-17.73,57.34,1785095150063.409
0.392,-0.418,-0.572,58.35,-19.32,59.45,1785095150063.637
0.424,-0.411,-0.574,64.42,-20.51,61.77,1785095150063.8562
0.471,-0.408,-0.599,72.08,-20.51,64.21,1785095150064.085
0.529,-0.414,-0.626,80.39,-18.65,66.56,1785095150064.311
0.555,-0.454,-0.655,89.18,-15.99,69.25,1785095150064.5308
0.526,-0.506,-0.66,96.32,-13.06,72.6,1785095150064.758
0.484,-0.555,-0.645,101.9,-10.5,76.45,1785095150064.9863
0.451,-0.595,-0.621,106.91,-8.03,79.78,1785095150065.206
0.428,-0.624,-0.596,111.18,-6.07,82.86,1785095150065.414
0.412,-0.643,-0.558,114.44,-5.31,86.46,1785095150065.633
0.422,-0.663,-0.528,119.42,-5.37,89.57,1785095150065.846
0.452,-0.679,-0.53,126.59,-4.73,91.68,1785095150066.072
0.497,-0.668,-0.549,133.67,-2.5,93.63,1785095150066.283
0.533,-0.65,-0.574,139.81,1.34,95.74,1785095150066.4958
0.523,-0.646,-0.6,141.58,6.07,97.72,1785095150066.7131
0.48,-0.657,-0.609,136.97,10.13,99.89,1785095150066.92
0.437,-0.683,-0.608,127.11,12.94,102.18,1785095150067.164
0.407,-0.715,-0.594,114.08,15.69,104.89,1785095150067.3853
0.381,-0.742,-0.569,100.47,18.46,108.74,1785095150067.599
0.357,-0.756,-0.529,88.6,21.18,111.82,1785095150067.809
0.343,-0.78,-0.493,80.6,23.13,114.23,1785095150068.021
0.345,-0.823,-0.471,77.58,23.83,116.58,1785095150068.2349
0.372,-0.896,-0.458,78.77,23.22,119.05,1785095150068.4412
0.345,-0.893,-0.418,83.96,28.47,116.09,1785095150068.65
0.35,-0.913,-0.41,92.53,32.78,117.31,1785095150068.864
0.343,-0.891,-0.398,96.5,35.52,115.02,1785095150069.102
0.313,-0.85,-0.372,95.22,37.14,114.17,1785095150069.3062
0.303,-0.83,-0.342,91.49,39.43,119.27,1785095150069.546
0.288,-0.82,-0.328,85.3,40.56,127.26,1785095150069.758
0.265,-0.832,-0.322,78.59,41.41,133.58,1785095150069.966
0.237,-0.852,-0.311,70.47,42.85,135.53,1785095150070.2
0.205,-0.857,-0.296,60.85,45.14,134.25,1785095150070.415
0.184,-0.862,-0.294,51.12,46.91,133.24,1785095150070.632
0.166,-0.884,-0.291,40.47,47.67,133.03,1785095150070.84
0.156,-0.903,-0.281,29.27,47.61,133.21,1785095150071.059
0.153,-0.918,-0.253,22.74,48.16,133.98,1785095150071.274
0.161,-0.957,-0.219,23.93,47.33,136.85,1785095150071.4878
0.167,-0.972,-0.193,31.34,46.63,139.5,1785095150071.695
0.16,-0.943,-0.179,41.93,46.97,140.66,1785095150071.911
0.146,-0.943,-0.187,52.61,47.52,141.06,1785095150072.129
0.108,-1.023,-0.199,57.89,46.33,140.35,1785095150072.337
0.059,-1.069,-0.196,54.08,44.53,139.23,1785095150072.557
0.049,-1.046,-0.209,47.09,44.83,141.51,1785095150072.7732
0.037,-0.992,-0.232,36.65,46.17,144.47,1785095150072.9868
0.015,-0.951,-0.246,21.42,45.53,147.8,1785095150073.184
0.028,-0.954,-0.238,6.13,44.07,151.55,1785095150073.392
-0.01,-0.947,-0.207,-3.48,44.4,145.42,1785095150073.596
-0.031,-1.033,-0.166,-4.88,42.85,140.48,1785095150073.812
-0.024,-1.134,-0.104,2.99,41.08,133.37,1785095150074.007
-0.027,-1.238,-0.046,23.44,39.31,125.95,1785095150074.2039
-0.031,-1.317,-0.018,54.11,38.94,119.0,1785095150074.598
-0.032,-1.331,-0.043,126.8,42.76,121.28,1785095150074.798
-0.728,-0.792,-0.52,-57.31,3.63,-1.56,1785095150075.237
-0.728,-0.792,-0.52,-56.79,5.62,-5.07,1785095150075.428
-0.819,-0.795,-0.525,-57.44,9.49,-10.68,1785095150076.812
-0.899,-0.822,-0.524,-53.22,13.55,-15.44,1785095150087.452
-0.962,-0.855,-0.478,-40.71,14.86,-18.04,1785095150100.893
-1.0,-0.854,-0.427,-23.47,16.11,-19.32,1785095150106.6099
-1.07,-0.834,-0.383,-23.47,16.11,-19.32,1785095150117.086
-1.14,-0.83,-0.283,-3.23,18.71,-20.75,1785095150130.333
-1.151,-0.823,-0.194,21.03,21.15,-23.56,1785095150136.121
-1.175,-0.786,-0.195,44.56,24.05,-27.95,1785095150146.762
-1.169,-0.749,-0.243,62.9,26.95,-31.37,1785095150157.461
-1.138,-0.721,-0.338,75.01,28.47,-35.43,1785095150170.719
-1.117,-0.7,-0.429,78.01,29.27,-39.03,1785095150176.346
-1.112,-0.678,-0.472,74.01,29.08,-41.69,1785095150187.183
-1.112,-0.669,-0.486,68.97,28.35,-42.94,1785095150200.398
-1.088,-0.659,-0.491,65.31,26.67,-42.91,1785095150206.2202
-1.067,-0.634,-0.472,64.94,24.84,-42.66,1785095150216.917
-1.036,-0.629,-0.421,70.19,23.71,-39.34,1785095150227.5488
-1.001,-0.612,-0.357,79.84,22.58,-36.56,1785095150240.8462
-0.961,-0.589,-0.29,89.6,19.56,-35.0,1785095150246.55
-0.915,-0.585,-0.238,95.74,15.56,-32.11,1785095150257.434
-0.882,-0.595,-0.214,97.81,12.67,-28.17,1785095150270.761
-0.864,-0.61,-0.201,96.8,10.65,-22.06,1785095150276.607
-0.841,-0.623,-0.195,93.36,8.09,-13.49,1785095150287.116
-0.809,-0.62,-0.192,86.37,3.97,-3.85,1785095150297.479
-0.766,-0.624,-0.194,77.67,-0.61,4.73,1785095150310.739
-0.716,-0.615,-0.22,67.75,-4.64,12.57,1785095150316.686
-0.664,-0.591,-0.244,56.83,-9.25,21.64,1785095150326.856
-0.617,-0.59,-0.276,46.85,-14.01,31.04,1785095150337.6052
-0.58,-0.596,-0.308,36.35,-18.01,39.64,1785095150350.886
-0.54,-0.62,-0.339,27.99,-21.52,47.7,1785095150356.81
-0.514,-0.646,-0.333,23.41,-24.32,54.99,1785095150367.251
-0.496,-0.696,-0.312,24.51,-26.8,60.95,1785095150377.8591
-0.471,-0.751,-0.267,31.92,-28.57,63.91,1785095150391.1528
-0.466,-0.794,-0.208,44.98,-31.31,66.87,1785095150397.0198
-0.438,-0.843,-0.18,62.72,-34.27,72.48,1785095150407.6018
-0.427,-0.856,-0.182,82.25,-34.76,75.41,1785095150420.872
-0.432,-0.847,-0.211,97.9,-34.85,77.94,1785095150426.7551
-0.414,-0.834,-0.242,104.98,-34.06,81.06,1785095150437.533
-0.395,-0.821,-0.265,103.43,-32.5,82.67,1785095150450.719
-0.366,-0.813,-0.317,94.42,-32.01,84.14,1785095150456.8782
-0.334,-0.809,-0.381,80.45,-31.8,85.06,1785095150467.156
-0.316,-0.827,-0.442,65.89,-30.0,83.93,1785095150477.8152
-0.319,-0.865,-0.469,54.78,-27.07,81.15,1785095150491.107
-0.317,-0.916,-0.476,52.58,-23.1,77.21,1785095150497.076
-0.316,-0.951,-0.45,58.23,-18.56,72.21,1785095150507.5012
-0.322,-0.945,-0.393,67.08,-14.86,68.61,1785095150520.7888
-0.339,-0.914,-0.337,72.6,-12.3,66.59,1785095150526.6838
-0.359,-0.886,-0.266,70.96,-10.93,65.4,1785095150537.307
-0.366,-0.891,-0.201,65.74,-11.23,66.04,1785095150547.8342
-0.368,-0.908,-0.187,61.86,-11.78,66.99,1785095150561.1362
-0.369,-0.944,-0.226,63.45,-12.21,67.05,1785095150567.0103
-0.383,-0.973,-0.29,68.42,-11.9,65.37,1785095150577.544
-0.406,-0.985,-0.359,71.57,-11.69,63.02,1785095150590.7942
-0.419,-0.99,-0.413,72.21,-10.1,60.37,1785095150596.7468
-0.418,-0.983,-0.443,70.62,-7.23,56.92,1785095150607.1638
-0.401,-0.937,-0.449,64.67,-3.42,53.56,1785095150617.7039
-0.371,-0.902,-0.409,56.79,0.85,51.06,1785095150630.963
-0.42,-0.831,-0.319,49.23,5.62,43.31,1785095150636.986
-0.419,-0.933,-0.273,42.48,-0.61,50.63,1785095150647.1438
-0.355,-0.922,-0.176,39.49,1.86,45.63,1785095150657.762
-0.427,-0.856,-0.181,45.29,9.92,35.55,1785095150671.0378
-0.493,-0.855,-0.257,41.78,5.58,34.49,1785095150676.959
-0.479,-0.833,-0.354,26.61,0.18,34.24,1785095150687.155
-0.473,-0.828,-0.414,14.65,4.88,29.45,1785095150697.7322
-0.519,-0.815,-0.392,3.97,8.94,21.36,1785095150710.929
-0.538,-0.883,-0.361,-5.25,4.0,23.93,1785095150716.753
-0.517,-0.833,-0.255,-10.25,4.76,15.63,1785095150726.973
-0.555,-0.829,-0.184,-4.79,8.97,6.78,1785095150737.37
-0.549,-0.881,-0.123,1.77,8.94,1.34,1785095150747.7031
-0.599,-0.878,-0.082,8.64,8.27,-5.55,1785095150760.974
-0.627,-0.881,-0.114,15.26,5.89,-7.05,1785095150766.741
-0.648,-0.85,-0.184,16.85,4.36,-8.33,1785095150776.8628
-0.653,-0.819,-0.25,15.02,5.1,-10.01,1785095150787.432
-0.673,-0.79,-0.279,10.38,7.02,-12.88,1785095150800.6233
-0.652,-0.791,-0.275,5.8,7.69,-14.59,1785095150806.526
-0.64,-0.78,-0.201,4.64,10.47,-20.45,1785095150816.753
-0.628,-0.802,-0.127,8.94,12.45,-24.66,1785095150827.328
-0.641,-0.818,-0.075,15.35,13.7,-29.08,1785095150840.563
-0.696,-0.836,-0.069,22.89,15.78,-32.87,1785095150846.4849
-0.738,-0.874,-0.11,28.81,17.64,-34.58,1785095150857.03
-0.776,-0.881,-0.159,29.85,20.14,-37.23,1785095150867.6501
-0.793,-0.89,-0.214,27.59,24.02,-38.51,1785095150880.925
-0.774,-0.919,-0.225,24.63,27.83,-38.06,1785095150886.882
-0.728,-0.909,-0.184,24.02,32.14,-40.56,1785095150897.3748
-0.68,-0.916,-0.139,29.11,36.53,-43.58,1785095150910.567
-0.636,-0.958,-0.105,40.25,39.52,-46.3,1785095150916.543
-0.615,-0.984,-0.108,54.54,41.11,-52.4,1785095150927.083
-0.609,-0.985,-0.14,68.97,43.4,-62.04,1785095150937.8518
-0.622,-0.937,-0.167,77.3,46.05,-73.61,1785095150951.087
-0.627,-0.897,-0.194,78.8,47.33,-83.13,1785095150956.6082
-0.63,-0.88,-0.204,75.05,47.98,-91.46,1785095150967.4492
-0.645,-0.865,-0.194,68.58,48.68,-98.51,1785095150980.6877
-0.655,-0.875,-0.184,63.05,48.1,-102.88,1785095150986.784
-0.662,-0.885,-0.191,56.83,47.36,-105.56,1785095150997.397
-0.645,-0.902,-0.2,50.75,47.4,-106.14,1785095151010.7441
-0.626,-0.904,-0.19,45.5,48.59,-107.15,1785095151016.6577
-0.6,-0.896,-0.19,40.8,49.68,-107.85,1785095151027.295
-0.576,-0.878,-0.189,36.59,51.24,-107.97,1785095151040.6023
-0.552,-0.883,-0.17,32.96,51.79,-106.69,1785095151046.4648
-0.527,-0.887,-0.141,29.08,52.28,-106.14,1785095151057.307
-0.502,-0.916,-0.13,26.8,52.58,-103.76,1785095151070.6738
-0.483,-0.96,-0.107,24.66,52.03,-99.64,1785095151076.4348
-0.474,-0.984,-0.089,21.27,50.63,-95.34,1785095151087.1328
-0.463,-0.997,-0.08,17.98,49.71,-91.92,1785095151097.44
-0.454,-0.998,-0.053,15.2,49.62,-91.92,1785095151110.9263
-0.455,-0.988,-0.037,15.44,48.86,-93.17,1785095151116.8508
-0.436,-0.968,-0.046,19.9,47.33,-91.8,1785095151127.367
-0.395,-0.939,-0.075,27.83,47.27,-89.97,1785095151140.675
-0.351,-0.902,-0.102,35.46,48.4,-90.58,1785095151146.589
-0.31,-0.89,-0.108,39.67,49.01,-92.23,1785095151157.138
-0.285,-0.922,-0.098,39.64,49.62,-94.36,1785095151167.732
-0.269,-0.979,-0.075,36.38,50.78,-95.4,1785095151180.9631
-0.262,-1.026,-0.048,31.37,52.22,-96.19,1785095151187.003
-0.243,-1.045,-0.009,26.06,52.98,-96.04,1785095151197.413
-0.195,-1.065,0.002,22.92,53.32,-95.86,1785095151210.717
-0.148,-1.113,-0.008,23.1,54.11,-97.32,1785095151216.7837
-0.113,-1.169,-0.027,25.45,55.06,-99.8,1785095151227.127
-0.087,-1.233,-0.042,29.94,55.7,-102.79,1785095151237.958
-0.074,-1.278,-0.057,33.78,56.18,-106.39,1785095151251.266
-0.05,-1.276,-0.085,35.43,56.7,-109.29,1785095151257.096
-0.033,-1.263,-0.121,34.76,57.47,-111.3,1785095151267.864
-0.021,-1.269,-0.119,32.59,58.47,-113.56,1785095151281.121
0.018,-1.298,-0.118,30.52,58.78,-117.62,1785095151287.164
0.017,-1.279,-0.088,27.77,59.85,-124.94,1785095151297.8562
0.012,-1.309,-0.049,25.09,57.1,-123.17,1785095151311.0918
0.041,-1.357,-0.03,25.79,56.12,-121.77,1785095151316.992
0.017,-1.328,-0.031,28.08,55.97,-130.04,1785095151327.807
0.018,-1.306,-0.038,30.18,55.88,-137.0,1785095151341.06
0.018,-1.306,-0.038,29.05,54.87,-143.25,1785095151346.946
0.038,-1.278,-0.049,26.0,53.87,-149.33,1785095151357.755
0.049,-1.229,-0.05,25.51,54.81,-153.75,1785095151371.037
0.068,-1.201,-0.052,27.31,56.4,-156.19,1785095151377.138
0.082,-1.195,-0.062,28.6,57.89,-156.22,1785095151387.818
0.101,-1.172,-0.057,28.6,57.89,-156.22,1785095151400.958
0.133,-1.119,-0.028,27.95,59.11,-155.83,1785095151406.963
0.151,-1.077,-0.001,24.99,59.97,-156.68,1785095151417.7092
0.139,-1.034,0.047,17.61,59.54,-156.71,1785095151430.937
0.123,-1.004,0.094,8.85,58.6,-155.74,1785095151436.9468
0.115,-0.967,0.119,0.61,57.74,-154.3,1785095151447.4392
0.128,-0.933,0.119,-6.01,56.86,-152.01,1785095151460.723
0.154,-0.912,0.1,-11.23,55.73,-149.36,1785095151466.6309
0.18,-0.896,0.082,-15.87,55.3,-146.92,1785095151477.4038
0.209,-0.878,0.069,-20.33,55.64,-144.54,1785095151490.658
0.236,-0.834,0.075,-26.37,56.4,-140.9,1785095151496.656
0.258,-0.775,0.091,-34.33,56.61,-136.14,1785095151507.3762
0.265,-0.753,0.09,-42.6,56.31,-131.5,1785095151520.685
0.276,-0.76,0.091,-50.69,56.55,-127.17,1785095151526.5432
0.291,-0.763,0.09,-57.19,57.71,-123.87,1785095151537.369
0.313,-0.76,0.081,-63.33,59.02,-119.17,1785095151550.578
0.33,-0.772,0.075,-69.31,60.27,-113.28,1785095151556.673
0.324,-0.805,0.071,-74.16,62.32,-107.79,1785095151567.258
0.303,-0.834,0.07,-77.94,64.3,-102.54,1785095151577.957
0.309,-0.849,0.09,-80.51,65.68,-97.35,1785095151591.187
0.338,-0.855,0.099,-79.99,67.02,-93.23,1785095151597.123
0.372,-0.862,0.105,-77.36,68.58,-89.27,1785095151607.661
0.393,-0.87,0.125,-74.01,69.37,-85.91,1785095151620.9421
0.404,-0.876,0.137,-72.27,69.03,-82.34,1785095151626.9177
0.412,-0.904,0.152,-71.35,68.7,-79.44,1785095151637.408
0.429,-0.936,0.179,-69.43,68.42,-78.86,1785095151650.711
0.461,-0.959,0.198,-64.94,66.68,-78.55,1785095151656.6812
0.494,-0.946,0.203,-58.69,64.67,-78.01,1785095151667.0999
0.512,-0.902,0.205,-53.13,62.93,-77.06,1785095151677.7239
0.533,-0.903,0.202,-47.49,60.09,-77.03,1785095151690.9802
0.55,-0.921,0.197,-42.3,56.98,-78.77,1785095151696.986
0.553,-0.927,0.197,-38.24,53.9,-80.9,1785095151707.412
0.557,-0.911,0.201,-36.5,51.18,-81.88,1785095151720.639
0.565,-0.871,0.214,-38.33,48.04,-81.91,1785095151726.582
0.582,-0.865,0.227,-40.47,43.89,-82.34,1785095151737.173
0.6,-0.86,0.233,-43.06,39.55,-83.74,1785095151747.772
0.614,-0.844,0.236,-46.57,34.91,-84.75,1785095151761.032
0.614,-0.842,0.228,-50.02,30.4,-85.85,1785095151766.9592
0.619,-0.837,0.235,-53.44,25.61,-87.56,1785095151777.499
0.638,-0.838,0.237,-54.05,20.17,-90.33,1785095151790.689
0.658,-0.836,0.224,-51.61,15.23,-93.75,1785095151796.638
0.675,-0.804,0.192,-48.46,10.5,-96.32,1785095151807.1511
0.695,-0.761,0.154,-46.42,6.2,-97.2,1785095151817.7532
0.699,-0.732,0.098,-47.67,2.17,-98.67,1785095151830.962
0.696,-0.659,0.076,-58.32,-0.52,-99.52,1785095151836.8572
0.699,-0.634,0.047,-73.52,-3.11,-99.64,1785095151847.156
0.714,-0.594,0.037,-94.7,-4.39,-99.4,1785095151857.858
0.732,-0.563,0.039,-115.97,-5.28,-97.93,1785095151870.996
0.759,-0.562,0.045,-132.82,-6.56,-96.29,1785095151876.8909
0.781,-0.534,0.016,-144.72,-6.53,-95.55,1785095151887.481
0.791,-0.543,-0.036,-149.97,-5.34,-96.16,1785095151900.695
0.757,-0.531,-0.092,-156.62,-3.23,-101.26,1785095151906.713
0.743,-0.524,-0.11,-166.36,-1.95,-102.97,1785095151917.3608
0.767,-0.574,-0.14,-169.53,-1.98,-105.81,1785095151930.603
0.783,-0.573,-0.145,-166.75,-1.95,-109.68,1785095151936.882
0.814,-0.536,-0.131,-156.47,-2.17,-106.78,1785095151947.297
0.824,-0.534,-0.13,-136.94,-3.66,-104.62,1785095151960.683
0.815,-0.567,-0.175,-112.61,-4.73,-106.36,1785095151966.5278
0.794,-0.58,-0.202,-90.73,-4.67,-108.98,1785095151977.174
0.769,-0.589,-0.211,-69.22,-5.28,-110.69,1785095151987.8591
0.756,-0.602,-0.211,-46.75,-6.93,-112.74,1785095152001.083
0.762,-0.594,-0.224,-25.33,-9.34,-115.6,1785095152007.0632
0.764,-0.562,-0.236,-5.4,-11.23,-117.74,1785095152017.5469
0.753,-0.511,-0.25,13.15,-13.06,-119.97,1785095152030.75
0.75,-0.438,-0.256,27.71,-14.65,-122.59,1785095152036.927
0.751,-0.385,-0.265,38.0,-16.39,-123.48,1785095152047.4702
0.734,-0.341,-0.267,44.31,-18.1,-123.48,1785095152060.733
0.72,-0.271,-0.262,47.46,-19.38,-125.52,1785095152066.7
0.74,-0.213,-0.272,48.92,-21.36,-128.06,1785095152077.444
0.758,-0.177,-0.291,48.01,-23.83,-128.21,1785095152090.755
0.754,-0.131,-0.302,45.29,-24.63,-128.82,1785095152096.318
0.758,-0.098,-0.316,41.63,-24.99,-129.7,1785095152107.436
0.751,-0.076,-0.308,36.47,-25.36,-129.8,1785095152120.72
0.745,-0.059,-0.293,32.04,-25.24,-129.37,1785095152126.6228
0.74,-0.058,-0.289,29.6,-25.67,-128.3,1785095152137.4578
0.731,-0.064,-0.289,28.23,-26.18,-127.51,1785095152150.656
0.732,-0.065,-0.289,27.19,-26.7,-127.96,1785095152156.667
0.735,-0.071,-0.292,27.07,-27.16,-128.64,1785095152167.38
0.725,-0.074,-0.322,29.54,-27.8,-129.37,1785095152180.5862
0.714,-0.045,-0.368,34.21,-28.29,-129.73,1785095152186.6602
0.703,0.014,-0.388,39.95,-27.83,-128.51,1785095152197.59
0.698,0.059,-0.388,44.43,-26.83,-126.29,1785095152210.871
0.698,0.094,-0.379,46.21,-26.15,-124.36,1785095152216.71
0.71,0.124,-0.371,47.06,-25.57,-123.42,1785095152227.335
0.725,0.156,-0.359,48.74,-25.54,-123.66,1785095152240.588
0.718,0.208,-0.341,51.24,-26.55,-123.02,1785095152246.483
0.701,0.26,-0.339,54.26,-27.53,-121.46,1785095152257.2898
0.685,0.306,-0.333,54.87,-28.63,-119.6,1785095152267.9902
0.668,0.312,-0.331,50.9,-30.4,-117.34,1785095152281.29
0.65,0.273,-0.34,43.06,-31.25,-116.86,1785095152287.272
0.647,0.209,-0.342,33.14,-32.17,-118.96,1785095152297.9487
0.652,0.169,-0.342,24.26,-33.23,-121.77,1785095152311.208
0.658,0.175,-0.346,20.2,-34.67,-122.9,1785095152317.17
0.659,0.219,-0.361,20.54,-36.26,-122.07,1785095152327.9163
0.654,0.263,-0.356,23.26,-37.51,-120.0,1785095152341.198
0.648,0.284,-0.368,25.97,-38.45,-118.47,1785095152347.075
0.631,0.307,-0.372,27.5,-38.79,-117.07,1785095152357.9258
0.625,0.306,-0.381,30.98,-38.88,-114.87,1785095152371.309
0.628,0.295,-0.389,34.09,-39.4,-113.62,1785095152377.085
0.625,0.318,-0.391,36.01,-40.04,-112.74,1785095152387.944
0.624,0.363,-0.394,37.87,-40.59,-110.9,1785095152401.088
0.627,0.379,-0.394,38.48,-40.93,-109.44,1785095152407.0881
0.62,0.369,-0.396,36.77,-41.44,-109.62,1785095152417.823
0.609,0.371,-0.394,34.09,-41.87,-109.41,1785095152431.0862
0.606,0.362,-0.417,34.06,-42.57,-108.34,1785095152437.115
0.586,0.377,-0.474,36.35,-42.85,-106.85,1785095152447.7717
0.552,0.454,-0.526,41.35,-42.63,-103.31,1785095152461.066
0.538,0.525,-0.559,50.23,-41.66,-97.99,1785095152466.977
0.56,0.55,-0.588,58.9,-39.77,-93.51,1785095152477.5957
0.578,0.559,-0.593,62.81,-36.84,-90.0,1785095152490.868
0.585,0.553,-0.576,63.26,-33.78,-85.15,1785095152496.9001
0.587,0.516,-0.557,60.85,-31.07,-80.63,1785095152507.1921
0.578,0.496,-0.571,56.0,-29.15,-77.82,1785095152517.901
0.55,0.541,-0.62,52.89,-27.5,-75.08,1785095152531.2908
0.535,0.619,-0.673,54.6,-25.12,-70.65,1785095152537.164
0.545,0.682,-0.725,59.11,-21.58,-66.23,1785095152547.57
0.556,0.722,-0.761,63.02,-17.55,-62.99,1785095152560.8298
0.563,0.751,-0.791,65.89,-13.61,-59.14,1785095152566.788
0.557,0.776,-0.804,66.96,-9.74,-54.02,1785095152577.211
0.544,0.771,-0.765,66.07,-6.62,-48.37,1785095152587.794
0.559,0.698,-0.719,62.32,-4.67,-45.14,1785095152601.069
0.574,0.631,-0.68,52.34,-3.75,-44.92,1785095152607.004
0.582,0.61,-0.673,39.61,-4.0,-43.0,1785095152617.259
0.571,0.624,-0.701,29.02,-4.03,-39.25,1785095152627.767
0.571,0.624,-0.701,25.7,-3.05,-34.91,1785095152641.0188
0.553,0.673,-0.748,30.55,-1.01,-30.55,1785095152646.911
0.537,0.727,-0.788,39.09,1.74,-26.18,1785095152657.2217
0.525,0.749,-0.811,46.11,4.18,-22.4,1785095152667.7607
0.517,0.747,-0.822,46.11,4.18,-22.4,1785095152680.9878
0.512,0.728,-0.821,50.57,5.98,-18.71,1785095152686.6228
0.512,0.706,-0.818,51.97,6.93,-15.32,1785095152697.205
0.523,0.718,-0.821,48.55,7.45,-12.48,1785095152707.774
0.532,0.745,-0.835,42.18,8.12,-9.37,1785095152721.0232
0.526,0.772,-0.848,34.73,9.86,-5.77,1785095152726.814
0.51,0.79,-0.852,26.86,11.87,-2.08,1785095152737.044
0.5,0.794,-0.853,18.8,13.86,1.71,1785095152747.564
0.487,0.78,-0.838,11.38,16.21,5.22,1785095152760.8782
0.485,0.745,-0.81,6.56,18.19,8.51,1785095152766.748
0.492,0.719,-0.793,4.21,19.35,11.41,1785095152776.954
0.49,0.707,-0.785,2.9,20.02,14.95,1785095152787.509
0.49,0.685,-0.768,3.36,20.2,18.86,1785095152800.7358
0.51,0.668,-0.756,6.47,19.87,21.55,1785095152806.6812
0.531,0.669,-0.754,10.96,20.11,23.93,1785095152817.069
0.536,0.669,-0.751,15.44,20.84,27.65,1785095152827.703
0.543,0.658,-0.754,17.67,21.82,31.59,1785095152840.9229
0.553,0.644,-0.756,15.9,23.07,35.52,1785095152846.886
0.56,0.622,-0.76,11.11,24.51,40.01,1785095152857.395
0.562,0.599,-0.751,5.01,25.91,44.77,1785095152867.97
0.565,0.589,-0.751,-1.59,26.98,49.26,1785095152881.1797
0.574,0.59,-0.75,-8.48,28.11,53.41,1785095152887.063
0.591,0.577,-0.737,-11.9,29.45,56.73,1785095152897.4678
0.601,0.548,-0.717,-12.79,31.19,59.14,1785095152910.764
0.605,0.516,-0.689,-13.21,32.96,61.1,1785095152916.659
0.617,0.49,-0.664,-13.49,34.55,63.39,1785095152927.193
0.638,0.474,-0.65,-13.86,35.98,65.83,1785095152937.925
0.659,0.46,-0.648,-13.73,37.26,68.85,1785095152951.1292
0.66,0.449,-0.647,-13.34,38.64,72.45,1785095152956.661
0.644,0.437,-0.641,-13.52,39.8,75.9,1785095152967.597
0.633,0.423,-0.631,-14.01,40.53,78.52,1785095152980.811
0.645,0.405,-0.622,-15.29,41.05,79.65,1785095152986.933
0.675,0.387,-0.628,-16.6,42.3,79.87,1785095152997.2322
0.697,0.366,-0.627,-17.43,44.59,80.69,1785095153007.893
0.709,0.348,-0.626,-18.83,47.06,82.61,1785095153021.227
0.708,0.323,-0.603,-21.12,49.04,84.96,1785095153027.0679
0.707,0.285,-0.577,-23.29,49.5,85.57,1785095153037.659
0.697,0.265,-0.578,-24.51,49.2,84.35,1785095153051.156
0.668,0.276,-0.567,-23.56,48.89,83.8,1785095153056.915
0.67,0.292,-0.543,-19.99,48.68,83.59,1785095153067.4119
0.725,0.293,-0.522,-14.71,49.41,81.67,1785095153077.9773
0.767,0.267,-0.51,-10.71,51.12,78.95,1785095153091.407
0.777,0.233,-0.507,-11.11,52.64,78.01,1785095153096.974
0.781,0.217,-0.517,-15.93,53.44,79.17,1785095153107.657
0.776,0.219,-0.522,-23.99,53.77,81.58,1785095153120.94
0.77,0.201,-0.516,-30.67,53.8,83.53,1785095153126.824
0.777,0.172,-0.515,-35.62,53.83,83.04,1785095153137.435
0.787,0.168,-0.486,-39.31,54.32,82.52,1785095153147.9922
0.804,0.143,-0.456,-38.82,54.63,83.22,1785095153161.267
0.821,0.122,-0.425,-36.32,55.27,82.92,1785095153167.299
0.828,0.105,-0.391,-32.35,55.67,83.16,1785095153177.7122
0.836,0.076,-0.382,-28.53,55.73,83.65,1785095153190.9949
0.84,0.074,-0.379,-27.99,56.22,84.17,1785095153196.865
0.833,0.072,-0.364,-28.47,56.18,85.39,1785095153207.407
0.817,0.053,-0.371,-28.35,55.54,85.54,1785095153220.7732
0.806,0.055,-0.358,-29.42,55.02,84.84,1785095153226.6008
0.817,0.068,-0.346,-30.64,54.05,84.05,1785095153237.1772
0.85,0.083,-0.334,-32.65,54.17,82.67,1785095153247.72
0.872,0.078,-0.318,-34.64,55.24,81.33,1785095153261.125
0.878,0.056,-0.309,-36.44,56.06,80.42,1785095153267.005
0.88,0.056,-0.295,-39.58,57.01,81.0,1785095153277.507
0.876,0.039,-0.264,-42.24,57.16,83.32,1785095153290.831
0.86,-0.007,-0.245,-43.98,55.7,84.72,1785095153296.796
0.848,-0.037,-0.233,-45.23,53.65,84.93,1785095153307.2021
0.845,-0.037,-0.239,-45.2,51.27,84.75,1785095153317.827
0.847,-0.023,-0.243,-45.23,48.95,83.65,1785095153331.177
0.851,-0.001,-0.254,-46.66,47.06,81.91,1785095153337.171
0.869,0.017,-0.258,-49.26,46.6,81.06,1785095153347.51
0.892,0.007,-0.248,-50.97,47.64,81.91,1785095153361.268
0.9,-0.027,-0.222,-52.16,48.8,83.99,1785095153366.8052
0.892,-0.059,-0.196,-52.77,48.92,87.34,1785095153377.222
0.879,-0.093,-0.174,-51.61,47.67,90.4,1785095153387.911
0.872,-0.123,-0.167,-48.83,45.63,91.98,1785095153401.138
0.874,-0.128,-0.156,-45.78,43.24,92.23,1785095153407.1392
0.88,-0.133,-0.16,-43.31,41.02,91.01,1785095153417.6099
0.889,-0.138,-0.173,-44.04,40.41,89.24,1785095153431.1401
0.892,-0.15,-0.17,-47.21,41.11,88.56,1785095153436.981
0.883,-0.183,-0.167,-49.87,41.57,89.02,1785095153447.327
0.869,-0.205,-0.156,-52.4,41.35,89.66,1785095153457.932
0.865,-0.221,-0.131,-53.01,39.74,90.73,1785095153471.222
0.872,-0.247,-0.122,-50.66,36.96,90.98,1785095153477.132
0.869,-0.266,-0.111,-46.75,34.06,89.6,1785095153487.663
0.86,-0.272,-0.094,-42.18,30.73,87.25,1785095153500.905
0.841,-0.277,-0.072,-37.63,26.76,83.86,1785095153506.8748
0.817,-0.281,-0.037,-32.59,21.45,79.2,1785095153517.387
0.798,-0.282,-0.009,-24.93,14.95,74.19,1785095153527.9832
0.794,-0.272,0.002,-12.67,8.33,69.77,1785095153541.25
0.793,-0.257,-0.052,2.5,2.11,66.53,1785095153547.104
0.782,-0.193,-0.131,10.53,-1.59,65.92,1785095153557.3398
0.764,-0.127,-0.203,8.09,-3.63,68.67,1785095153567.7449
0.748,-0.111,-0.267,-4.76,-3.97,72.39,1785095153581.016
0.728,-0.127,-0.273,-26.8,-4.06,75.32,1785095153587.063
0.731,-0.177,-0.252,-50.14,-4.39,78.19,1785095153597.118
0.751,-0.252,-0.218,-69.06,-4.88,80.6,1785095153607.734
0.778,-0.332,-0.189,-80.94,-5.4,82.58,1785095153621.055
0.789,-0.407,-0.163,-85.7,-6.84,84.14,1785095153626.877
0.792,-0.459,-0.147,-84.02,-8.97,85.36,1785095153637.2769
0.811,-0.493,-0.152,-77.73,-10.9,86.15,1785095153647.8013
0.827,-0.525,-0.184,-69.58,-11.57,86.43,1785095153661.07
0.835,-0.55,-0.205,-62.35,-11.11,86.49,1785095153666.973
0.846,-0.56,-0.226,-57.22,-10.5,87.07,1785095153677.5098
0.851,-0.573,-0.246,-53.41,-9.28,88.32,1785095153690.7607
0.844,-0.605,-0.248,-49.96,-8.12,89.3,1785095153696.532
0.841,-0.627,-0.229,-47.61,-7.2,89.85,1785095153706.927
0.86,-0.644,-0.203,-45.69,-6.23,90.64,1785095153717.536
0.887,-0.68,-0.182,-43.06,-5.31,90.52,1785095153730.7708
0.906,-0.721,-0.182,-40.19,-4.73,89.11,1785095153736.9001
0.912,-0.755,-0.191,-36.62,-3.39,87.16,1785095153746.905
0.906,-0.767,-0.195,-33.02,-1.74,85.42,1785095153757.454
0.899,-0.759,-0.193,-29.97,-0.21,84.48,1785095153770.7798
0.893,-0.768,-0.206,-27.31,1.4,83.47,1785095153776.8782
0.882,-0.782,-0.218,-26.7,3.54,81.3,1785095153787.028
0.874,-0.793,-0.221,-26.67,5.74,79.17,1785095153797.48
0.871,-0.803,-0.209,-26.12,7.63,77.39,1785095153810.756
0.873,-0.821,-0.185,-25.18,8.85,75.01,1785095153816.765
0.88,-0.858,-0.173,-23.68,9.55,72.27,1785095153826.932
0.878,-0.906,-0.177,-22.13,10.16,68.64,1785095153837.5781
0.868,-0.945,-0.176,-20.36,10.9,64.39,1785095153850.87
0.867,-0.979,-0.163,-17.67,11.44,59.88,1785095153856.9111
0.869,-1.016,-0.146,-13.82,11.26,54.69,1785095153867.327
0.859,-1.043,-0.131,-8.51,10.62,48.62,1785095153877.824
0.853,-1.054,-0.129,-2.26,9.46,42.02,1785095153890.92
0.85,-1.041,-0.118,1.77,8.3,35.28,1785095153896.518
0.85,-1.027,-0.117,2.47,6.59,28.84,1785095153906.997
0.85,-1.027,-0.117,0.43,5.25,21.85,1785095153917.476
0.84,-1.026,-0.139,-5.4,4.7,14.34,1785095153927.926
0.826,-1.021,-0.152,-12.97,3.45,6.5,1785095153941.0342
0.832,-1.011,-0.153,-18.07,2.14,-1.98,1785095153947.114
0.846,-1.01,-0.144,-18.65,1.04,-10.41,1785095153957.08
0.843,-1.011,-0.13,-18.65,1.04,-10.41,1785095153967.842
0.836,-1.001,-0.124,-17.58,-0.55,-18.4,1785095153981.07
0.833,-0.996,-0.116,-16.39,-2.32,-25.88,1785095153987.05
0.832,-0.995,-0.112,-15.63,-4.55,-33.11,1785095153997.213
0.843,-0.99,-0.109,-15.14,-6.78,-39.95,1785095154007.8562
0.856,-0.978,-0.109,-14.65,-9.13,-46.05,1785095154021.165
0.858,-0.958,-0.125,-14.19,-11.23,-51.33,1785095154027.185
0.862,-0.943,-0.137,-12.88,-13.18,-56.83,1785095154037.513
0.868,-0.927,-0.14,-10.96,-15.11,-63.75,1785095154050.752
0.881,-0.915,-0.131,-8.48,-17.06,-70.53,1785095154056.8042
0.894,-0.912,-0.132,-4.58,-19.29,-77.46,1785095154066.9282
0.899,-0.894,-0.124,0.09,-21.85,-84.6,1785095154077.5881
0.894,-0.883,-0.121,6.56,-25.15,-91.1,1785095154090.84
0.878,-0.876,-0.124,14.01,-29.36,-97.75,1785095154096.9
0.859,-0.864,-0.149,22.55,-33.91,-103.92,1785095154107.278
0.848,-0.823,-0.193,31.25,-37.57,-109.07,1785095154117.955
0.847,-0.747,-0.245,37.11,-39.98,-112.43,1785095154131.376
0.849,-0.654,-0.291,37.29,-40.59,-114.05,1785095154137.17
0.846,-0.577,-0.317,32.01,-40.01,-114.17,1785095154147.9082
0.85,-0.527,-0.324,24.63,-39.31,-114.41,1785095154161.2192
0.852,-0.492,-0.321,18.07,-38.12,-115.05,1785095154167.093
0.85,-0.481,-0.314,13.18,-36.19,-114.96,1785095154177.8992
0.856,-0.474,-0.304,9.55,-34.15,-114.63,1785095154191.159
0.868,-0.481,-0.309,7.57,-32.32,-114.26,1785095154197.0369
0.872,-0.476,-0.316,6.1,-30.52,-113.83,1785095154207.586
0.878,-0.463,-0.32,5.52,-28.35,-112.86,1785095154220.9558
0.871,-0.463,-0.327,6.74,-25.97,-111.64,1785095154226.82
0.847,-0.472,-0.34,8.82,-24.57,-110.87,1785095154237.434
0.83,-0.462,-0.35,11.84,-23.32,-110.57,1785095154247.9958
0.821,-0.442,-0.353,16.42,-22.16,-110.42,1785095154261.2979
0.809,-0.427,-0.348,22.19,-21.21,-109.74,1785095154267.232
0.787,-0.432,-0.355,29.39,-20.91,-109.38,1785095154277.993
0.773,-0.44,-0.347,37.81,-21.09,-109.87,1785095154291.438
0.768,-0.433,-0.326,46.54,-22.13,-110.57,1785095154297.186
0.758,-0.441,-0.325,57.19,-23.16,-110.54,1785095154307.9949
0.743,-0.401,-0.343,67.35,-24.6,-111.24,1785095154321.384
0.733,-0.305,-0.367,74.37,-26.09,-111.3,1785095154327.1812
0.716,-0.2,-0.391,74.31,-27.28,-110.48,1785095154337.973
0.704,-0.121,-0.378,66.84,-27.53,-109.53,1785095154351.22
0.699,-0.104,-0.369,58.02,-27.34,-111.3,1785095154358.503
0.706,-0.106,-0.374,48.16,-26.46,-114.35,1785095154367.75
0.714,-0.096,-0.373,38.3,-25.45,-115.42,1785095154381.1929
0.73,-0.098,-0.373,31.46,-24.96,-114.51,1785095154387.296
0.734,-0.108,-0.377,26.76,-25.12,-114.35,1785095154397.936
0.74,-0.116,-0.383,23.04,-24.93,-114.9,1785095154411.1072
0.744,-0.112,-0.376,19.78,-24.45,-115.42,1785095154416.895
0.737,-0.116,-0.357,18.62,-24.45,-115.85,1785095154427.752
0.736,-0.125,-0.359,20.42,-25.24,-116.31,1785095154441.083
0.728,-0.103,-0.374,23.44,-26.31,-116.82,1785095154447.0369
0.719,-0.055,-0.402,27.83,-27.31,-116.58,1785095154457.84
0.713,0.006,-0.431,31.01,-28.02,-116.34,1785095154471.176
0.704,0.059,-0.445,31.71,-28.11,-115.67,1785095154476.989
0.705,0.082,-0.448,30.21,-27.62,-114.51,1785095154487.932
0.707,0.081,-0.436,27.34,-27.01,-114.72,1785095154501.037
0.702,0.063,-0.417,26.12,-26.34,-114.84,1785095154507.042
0.703,0.043,-0.407,26.49,-26.49,-114.93,1785095154517.7532
0.707,0.052,-0.405,27.07,-27.5,-115.21,1785095154531.178
0.706,0.063,-0.411,29.39,-28.78,-115.88,1785095154537.143
0.697,0.074,-0.427,31.74,-30.0,-117.16,1785095154547.6511
0.679,0.102,-0.446,32.81,-31.04,-118.2,1785095154561.0981
0.671,0.162,-0.476,34.49,-31.56,-118.11,1785095154566.559
0.682,0.225,-0.492,36.93,-30.88,-116.61,1785095154577.6628
0.691,0.257,-0.501,37.48,-30.18,-115.09,1785095154590.9277
0.684,0.264,-0.484,35.28,-29.36,-113.53,1785095154596.8052
0.677,0.241,-0.476,33.39,-29.51,-112.43,1785095154607.6492
0.666,0.232,-0.466,30.4,-30.37,-112.58,1785095154620.98
0.663,0.238,-0.477,28.17,-31.46,-112.8,1785095154626.803
0.658,0.257,-0.495,28.32,-31.71,-112.43,1785095154637.6199
0.653,0.274,-0.505,29.48,-31.92,-112.4,1785095154650.92
0.64,0.295,-0.505,31.13,-32.01,-112.43,1785095154656.964
0.633,0.301,-0.502,34.55,-32.29,-111.73,1785095154667.5442
0.619,0.303,-0.506,38.0,-32.69,-111.12,1785095154680.844
0.605,0.305,-0.499,40.99,-33.54,-109.74,1785095154686.893
0.593,0.3,-0.497,44.62,-35.62,-108.98,1785095154697.5042
0.588,0.281,-0.487,48.16,-37.48,-108.52,1785095154710.732
0.626,0.238,-0.453,50.57,-39.4,-108.98,1785095154716.6719
0.687,0.204,-0.468,51.15,-41.47,-110.08,1785095154727.4648
0.736,0.236,-0.495,51.58,-42.12,-106.54,1785095154740.732
0.759,0.277,-0.569,58.96,-42.51,-99.49,1785095154746.635
0.711,0.331,-0.642,69.49,-41.87,-92.62,1785095154757.225
0.635,0.365,-0.696,81.18,-41.08,-86.09,1785095154767.9329
0.581,0.386,-0.77,91.34,-40.31,-84.05,1785095154781.139
0.543,0.43,-0.801,98.7,-38.3,-84.57,1785095154787.083
0.533,0.451,-0.825,106.17,-36.01,-84.96,1785095154797.687
0.526,0.467,-0.821,111.67,-31.92,-83.96,1785095154810.941
0.518,0.468,-0.794,115.73,-27.38,-80.2,1785095154816.8872
0.509,0.478,-0.781,117.1,-23.26,-77.94,1785095154827.466
0.488,0.489,-0.766,115.76,-19.71,-75.93,1785095154840.867
0.473,0.48,-0.75,112.03,-18.49,-72.73,1785095154846.844
0.453,0.474,-0.786,106.97,-17.94,-69.98,1785095154857.6091
0.415,0.515,-0.865,100.47,-16.39,-67.14,1785095154871.016
0.383,0.587,-0.935,93.57,-13.76,-62.96,1785095154876.8252
0.374,0.633,-0.967,86.86,-11.05,-58.96,1785095154887.417
0.382,0.641,-0.965,78.4,-7.9,-56.43,1785095154897.957
0.401,0.616,-0.936,68.33,-4.49,-54.14,1785095154911.166
0.428,0.573,-0.898,58.32,-1.98,-51.7,1785095154917.093
0.441,0.539,-0.878,48.86,-0.46,-48.89,1785095154927.437
0.435,0.525,-0.89,40.47,0.31,-45.69,1785095154938.0623
0.402,0.54,-0.907,34.55,1.1,-41.51,1785095154951.322
0.383,0.557,-0.92,31.83,1.71,-37.23,1785095154956.8708
0.389,0.575,-0.937,30.49,1.86,-35.22,1785095154967.4758
0.418,0.6,-0.945,28.66,2.66,-32.75,1785095154977.993
0.457,0.602,-0.954,27.71,4.88,-28.93,1785095154991.209
0.494,0.603,-0.964,28.26,6.99,-25.51,1785095154997.494
0.541,0.606,-0.972,29.33,8.55,-21.24,1785095155007.4072
