ax,ay,az,gx,gy,gz,timestamp_ms
0.711,0.951,-0.931,-112.31,-11.78,-48.13,1785095242735.765
0.677,0.971,-0.965,-78.37,5.43,-26.92,1785095242736.133
0.677,0.952,-0.968,-48.19,21.24,-5.62,1785095242736.5
0.686,0.933,-0.881,-25.61,35.46,15.66,1785095242736.8572
0.736,0.881,-0.759,-9.61,45.84,38.21,1785095242737.198
0.763,0.788,-0.639,0.52,54.32,60.18,1785095242737.54
0.766,0.686,-0.54,6.2,62.69,81.3,1785095242737.8792
0.85,0.48,-0.453,9.64,72.6,110.81,1785095242738.225
0.826,0.496,-0.395,6.71,72.63,117.95,1785095242738.578
0.861,0.369,-0.272,1.71,79.1,130.65,1785095242738.9287
0.942,0.171,-0.208,-7.78,83.83,142.43,1785095242739.295
0.968,0.092,-0.132,-21.0,80.36,148.26,1785095242739.661
0.988,0.007,-0.096,-30.27,80.14,152.75,1785095242740.0151
1.015,-0.139,-0.066,-37.08,85.42,157.81,1785095242740.3618
1.014,-0.271,-0.038,-41.81,87.83,158.82,1785095242740.706
1.006,-0.437,0.01,-41.02,88.26,158.97,1785095242741.045
1.022,-0.662,0.017,-35.83,90.09,156.74,1785095242741.39
1.021,-0.85,0.071,-32.56,93.36,148.84,1785095242741.7578
1.024,-1.031,0.225,-28.87,91.95,136.91,1785095242742.126
1.074,-1.216,0.365,-22.98,85.33,121.01,1785095242742.421
1.088,-1.357,0.494,-10.62,78.34,99.86,1785095242742.7268
1.064,-1.454,0.584,7.69,68.36,76.57,1785095242743.025
1.029,-1.424,0.599,24.99,53.13,50.72,1785095242743.333
0.99,-1.329,0.557,39.64,35.83,23.53,1785095242743.644
0.945,-1.273,0.503,46.45,18.71,-3.48,1785095242743.9329
0.906,-1.216,0.497,42.63,2.5,-30.12,1785095242744.225
0.894,-1.145,0.488,34.85,-14.4,-55.15,1785095242744.512
0.881,-1.064,0.48,26.64,-32.32,-78.1,1785095242744.802
0.861,-0.993,0.484,19.87,-49.59,-98.21,1785095242745.0938
0.832,-0.924,0.476,16.54,-65.92,-116.98,1785095242745.386
0.798,-0.829,0.446,17.15,-82.71,-133.4,1785095242745.6782
0.738,-0.718,0.383,22.25,-98.36,-147.62,1785095242745.996
0.66,-0.585,0.3,31.34,-111.76,-161.05,1785095242746.311
0.605,-0.428,0.225,40.89,-125.28,-172.8,1785095242746.638
0.595,-0.271,0.156,48.04,-140.35,-182.53,1785095242746.982
0.589,-0.133,0.071,50.42,-154.09,-191.32,1785095242747.282
0.571,0.071,-0.092,43.0,-164.74,-196.23,1785095242747.583
0.568,0.313,-0.256,30.18,-168.95,-192.88,1785095242747.894
0.551,0.524,-0.426,15.81,-170.93,-186.19,1785095242748.174
0.521,0.837,-0.606,-11.78,-170.2,-178.62,1785095242748.48
0.527,1.121,-0.767,-47.64,-163.43,-166.14,1785095242748.747
0.546,1.253,-0.86,-90.79,-151.49,-155.77,1785095242749.0088
0.575,1.274,-0.86,-135.75,-133.24,-147.1,1785095242749.281
0.628,1.236,-0.825,-164.28,-112.19,-133.98,1785095242749.554
0.653,1.165,-0.788,-164.92,-92.9,-113.25,1785095242749.8298
0.657,1.102,-0.801,-138.49,-76.05,-86.15,1785095242750.087
0.668,1.072,-0.873,-95.52,-60.46,-54.6,1785095242750.3518
0.661,1.036,-0.966,-46.72,-44.5,-22.4,1785095242750.6108
0.642,1.012,-1.017,-3.6,-28.26,9.49,1785095242750.861
0.656,1.005,-1.005,26.31,-13.12,41.35,1785095242751.1208
0.697,0.982,-0.943,42.3,2.32,71.81,1785095242751.3752
0.734,0.92,-0.861,47.49,18.16,100.62,1785095242751.637
0.741,0.833,-0.798,44.47,33.27,124.94,1785095242751.895
0.731,0.731,-0.745,35.74,47.24,144.84,1785095242752.165
0.721,0.612,-0.695,23.77,59.85,161.6,1785095242752.428
0.728,0.479,-0.637,10.28,71.5,175.12,1785095242752.691
0.749,0.323,-0.573,-1.28,81.24,184.97,1785095242752.95
0.782,0.162,-0.509,-10.16,89.27,190.8,1785095242753.2139
0.819,0.005,-0.446,-16.27,96.29,193.43,1785095242753.479
0.861,-0.145,-0.404,-19.53,101.99,192.82,1785095242753.7349
0.906,-0.274,-0.371,-20.17,107.94,189.52,1785095242753.999
0.892,-0.376,-0.32,-18.62,113.04,185.77,1785095242754.271
0.951,-0.521,-0.251,-14.44,117.25,185.22,1785095242754.551
0.962,-0.594,-0.175,-9.89,118.69,171.7,1785095242754.8052
0.99,-0.725,-0.082,-1.83,119.79,159.25,1785095242755.078
1.052,-0.887,0.022,8.61,120.46,142.61,1785095242755.381
1.088,-0.972,0.108,20.78,117.25,119.05,1785095242755.648
1.088,-1.055,0.22,34.58,111.09,95.68,1785095242755.903
1.092,-1.123,0.322,43.64,101.5,70.93,1785095242756.146
1.093,-1.099,0.392,43.73,88.44,46.08,1785095242756.382
1.062,-1.056,0.432,41.05,72.6,25.73,1785095242756.619
1.017,-1.008,0.432,37.14,55.57,6.5,1785095242756.8518
0.979,-0.94,0.43,29.24,38.0,-12.73,1785095242757.094
0.966,-0.907,0.428,20.51,19.65,-31.62,1785095242757.334
0.96,-0.891,0.432,13.79,2.01,-51.27,1785095242757.5637
0.943,-0.853,0.433,10.32,-14.68,-69.83,1785095242757.8088
0.902,-0.805,0.418,9.0,-30.18,-86.15,1785095242758.056
0.844,-0.753,0.402,7.66,-45.26,-100.96,1785095242758.309
0.78,-0.681,0.369,7.75,-60.18,-114.51,1785095242758.541
0.719,-0.606,0.33,12.67,-73.76,-125.86,1785095242758.786
0.692,-0.537,0.299,23.59,-88.23,-135.56,1785095242759.053
0.689,-0.459,0.246,36.9,-103.98,-145.54,1785095242759.305
0.668,-0.386,0.167,45.99,-117.86,-155.92,1785095242759.5552
0.623,-0.32,0.095,46.82,-129.15,-165.2,1785095242759.817
0.57,-0.237,0.031,42.73,-139.81,-171.85,1785095242760.069
0.53,-0.091,-0.069,37.11,-150.3,-176.03,1785095242760.308
0.497,0.136,-0.239,28.63,-157.84,-177.74,1785095242760.556
0.484,0.371,-0.394,19.35,-158.51,-175.63,1785095242760.808
0.521,0.574,-0.536,7.29,-156.25,-170.96,1785095242761.054
0.588,0.792,-0.617,-12.54,-150.7,-164.56,1785095242761.2932
0.654,0.954,-0.646,-36.16,-142.0,-152.84,1785095242761.5403
0.69,0.997,-0.685,-65.58,-130.04,-137.52,1785095242761.79
0.682,0.954,-0.687,-101.35,-113.47,-122.65,1785095242762.039
0.666,0.863,-0.714,-129.95,-94.42,-107.06,1785095242762.282
0.683,0.803,-0.749,-138.22,-75.56,-88.14,1785095242762.53
0.702,0.762,-0.766,-117.01,-59.63,-66.74,1785095242762.777
0.707,0.76,-0.777,-72.12,-46.11,-45.08,1785095242763.0178
0.737,0.784,-0.822,-18.01,-33.72,-22.46,1785095242763.2583
0.773,0.835,-0.858,30.85,-20.94,2.84,1785095242763.499
0.797,0.877,-0.887,65.25,-7.63,29.85,1785095242763.733
0.805,0.902,-0.891,80.9,6.26,55.48,1785095242763.9539
0.809,0.879,-0.861,81.15,20.05,78.37,1785095242764.186
0.809,0.879,-0.861,72.88,32.69,96.1,1785095242764.4128
0.812,0.801,-0.799,62.78,43.28,108.92,1785095242764.631
0.815,0.712,-0.732,53.1,52.89,119.05,1785095242764.859
0.814,0.643,-0.686,42.24,61.62,127.23,1785095242765.09
0.815,0.567,-0.649,42.24,61.62,127.23,1785095242765.322
0.823,0.496,-0.612,28.2,68.85,133.12,1785095242765.541
0.834,0.415,-0.568,13.4,74.83,138.43,1785095242765.7861
0.837,0.307,-0.516,0.61,79.41,142.67,1785095242766.054
0.841,0.181,-0.461,-9.28,82.25,144.96,1785095242766.3413
0.857,0.057,-0.419,-16.82,83.77,145.15,1785095242766.5867
0.873,-0.052,-0.394,-22.8,84.78,144.9,1785095242766.8203
0.869,-0.155,-0.359,-26.03,85.3,144.41,1785095242767.0542
0.87,-0.245,-0.319,-24.69,84.93,142.67,1785095242767.3118
0.897,-0.332,-0.266,-18.83,84.17,139.04,1785095242767.5562
0.942,-0.419,-0.215,-11.78,83.59,133.09,1785095242767.7861
0.983,-0.506,-0.156,-5.31,83.04,125.52,1785095242768.0159
1.022,-0.617,-0.077,2.23,82.19,116.34,1785095242768.2349
1.068,-0.751,0.016,12.21,79.99,104.07,1785095242768.49
1.095,-0.849,0.086,22.86,74.77,88.87,1785095242768.718
1.086,-0.897,0.138,34.18,67.48,72.91,1785095242768.943
1.053,-0.898,0.169,44.59,58.02,54.93,1785095242769.1672
1.014,-0.852,0.167,51.91,47.3,36.16,1785095242769.392
0.968,-0.78,0.178,56.73,35.62,17.37,1785095242769.617
0.932,-0.734,0.199,60.88,21.82,-2.69,1785095242769.826
0.91,-0.69,0.213,59.94,6.32,-23.56,1785095242770.035
0.892,-0.628,0.24,50.23,-9.52,-41.23,1785095242770.2488
0.857,-0.611,0.273,36.65,-25.57,-55.85,1785095242770.466
0.825,-0.611,0.307,24.35,-42.12,-69.25,1785095242770.675
0.796,-0.593,0.319,18.86,-58.66,-81.3,1785095242770.888
0.768,-0.553,0.304,22.13,-75.14,-92.1,1785095242771.0972
0.744,-0.488,0.257,30.46,-91.8,-103.09,1785095242771.309
0.709,-0.41,0.177,41.66,-106.42,-113.65,1785095242771.52
0.656,-0.319,0.066,53.9,-118.87,-121.86,1785095242771.7559
0.617,-0.198,-0.072,66.9,-129.49,-126.44,1785095242772.0088
0.6,-0.034,-0.266,78.55,-136.6,-127.05,1785095242772.2659
0.605,0.169,-0.451,82.8,-137.06,-122.78,1785095242772.502
0.649,0.364,-0.585,75.93,-133.09,-113.99,1785095242772.722
0.714,0.506,-0.627,58.14,-126.53,-104.04,1785095242772.9358
0.764,0.568,-0.622,31.16,-118.59,-94.18,1785095242773.15
0.776,0.568,-0.635,-4.55,-108.74,-84.41,1785095242773.3591
0.757,0.549,-0.665,-46.6,-95.89,-72.3,1785095242773.5732
0.734,0.557,-0.661,-90.33,-82.52,-58.17,1785095242773.7869
0.751,0.548,-0.662,-123.63,-70.47,-44.37,1785095242773.992
0.777,0.517,-0.654,-136.97,-58.38,-32.9,1785095242774.204
0.769,0.492,-0.609,-127.72,-47.98,-23.99,1785095242774.416
0.781,0.39,-0.569,-96.62,-39.12,-8.51,1785095242774.6409
0.751,0.353,-0.581,-54.75,-35.16,-0.43,1785095242774.88
0.707,0.368,-0.587,-12.42,-34.76,8.06,1785095242775.09
0.723,0.314,-0.599,27.38,-30.76,22.52,1785095242775.304
0.707,0.291,-0.605,59.3,-27.22,31.56,1785095242775.507
0.696,0.266,-0.591,87.04,-26.06,42.57,1785095242775.7212
0.715,0.211,-0.608,111.27,-24.23,55.02,1785095242775.932
0.678,0.19,-0.608,126.19,-20.6,64.15,1785095242776.146
0.656,0.178,-0.604,133.06,-17.24,70.62,1785095242776.372
0.653,0.127,-0.595,134.5,-17.58,76.66,1785095242776.587
0.654,0.072,-0.57,132.21,-17.03,81.0,1785095242776.7998
0.646,0.019,-0.558,129.03,-16.94,84.48,1785095242777.004
0.639,-0.021,-0.545,125.98,-16.17,86.76,1785095242777.215
0.63,-0.043,-0.526,122.1,-16.51,89.42,1785095242777.4292
0.62,-0.075,-0.499,118.87,-18.07,93.23,1785095242777.635
0.619,-0.123,-0.459,119.24,-20.69,96.26,1785095242777.832
0.612,-0.186,-0.423,123.94,-24.17,97.72,1785095242778.035
0.604,-0.227,-0.399,130.65,-28.29,99.67,1785095242778.228
0.598,-0.235,-0.375,138.68,-32.69,103.58,1785095242778.425
0.602,-0.23,-0.37,147.71,-36.47,10.0,1785095242778.816
0.621,-0.23,-0.379,160.07,-39.49,121.77,1785095242779.019
-0.799,-0.915,-0.445,-2.2,10.04,-5.55,1785095242779.47
-0.851,-0.982,-0.416,4.55,12.94,-12.05,1785095242779.663
-0.908,-0.994,-0.364,11.17,17.58,-17.49,1785095242782.191
-0.947,-0.996,-0.301,21.76,22.31,-18.89,1785095242787.826
-0.974,-0.962,-0.261,34.55,28.41,-22.0,1785095242798.6938
-1.028,-0.871,-0.243,45.44,34.24,-25.88,1785095242809.272
-0.998,-0.799,-0.245,54.96,35.16,-25.91,1785095242822.518
-0.957,-0.777,-0.284,69.49,36.62,-32.07,1785095242828.197
-0.946,-0.776,-0.348,80.97,39.19,-41.63,1785095242838.9749
-0.937,-0.761,-0.396,82.34,39.22,-47.46,1785095242852.305
-0.932,-0.751,-0.421,78.22,37.87,-50.81,1785095242857.946
-0.923,-0.75,-0.428,70.77,36.41,-52.64,1785095242868.727
-0.911,-0.76,-0.428,62.07,35.92,-53.01,1785095242879.351
-0.902,-0.766,-0.397,55.91,36.5,-52.46,1785095242892.556
-0.875,-0.791,-0.349,55.39,36.96,-51.03,1785095242898.356
-0.834,-0.815,-0.304,58.41,36.23,-48.1,1785095242909.0837
-0.794,-0.815,-0.265,62.04,34.33,-43.46,1785095242922.503
-0.753,-0.783,-0.237,64.39,32.81,-36.35,1785095242928.04
-0.705,-0.751,-0.226,66.32,30.24,-27.28,1785095242938.88
-0.664,-0.746,-0.228,68.33,27.25,-18.31,1785095242952.111
-0.639,-0.751,-0.221,69.86,23.65,-10.07,1785095242957.8909
-0.583,-0.758,-0.221,74.07,21.49,-3.45,1785095242968.638
-0.555,-0.738,-0.219,79.44,21.67,1.04,1785095242979.215
-0.538,-0.724,-0.201,83.04,20.69,8.82,1785095242992.4648
-0.511,-0.718,-0.207,84.38,18.07,18.01,1785095242998.372
-0.497,-0.686,-0.225,80.81,16.75,26.61,1785095243008.81
-0.468,-0.683,-0.251,72.76,14.31,37.39,1785095243019.5552
-0.426,-0.723,-0.271,61.92,11.6,47.09,1785095243032.646
-0.409,-0.775,-0.278,50.78,10.32,52.03,1785095243038.774
-0.41,-0.813,-0.257,41.9,10.41,55.3,1785095243049.1462
-0.407,-0.856,-0.228,36.5,9.22,59.05,1785095243062.366
-0.409,-0.893,-0.196,34.42,7.11,61.83,1785095243068.307
-0.399,-0.918,-0.164,37.29,5.58,63.97,1785095243078.5588
-0.385,-0.936,-0.178,44.43,4.36,65.61,1785095243089.155
-0.352,-0.91,-0.224,50.17,3.39,67.17,1785095243102.57
-0.297,-0.879,-0.271,54.23,2.62,68.24,1785095243108.319
-0.245,-0.88,-0.318,56.37,2.84,66.44,1785095243118.764
-0.225,-0.896,-0.321,55.02,3.57,64.3,1785095243129.132
-0.244,-0.922,-0.301,52.1,4.09,62.62,1785095243142.418
-0.281,-0.977,-0.302,50.17,4.73,59.11,1785095243148.354
-0.32,-1.06,-0.323,49.38,6.5,52.4,1785095243158.577
-0.338,-1.152,-0.34,49.81,9.58,42.76,1785095243169.3289
-0.321,-1.236,-0.356,53.35,13.55,32.26,1785095243182.392
-0.292,-1.311,-0.381,60.03,18.71,21.67,1785095243188.02
-0.266,-1.388,-0.418,69.22,25.48,10.41,1785095243198.8572
-0.233,-1.447,-0.458,77.85,33.23,-2.41,1785095243209.402
-0.2,-1.502,-0.49,86.58,41.32,-16.94,1785095243222.7322
-0.157,-1.54,-0.514,96.26,49.29,-31.77,1785095243228.576
-0.114,-1.562,-0.526,107.12,57.13,-46.14,1785095243239.2168
-0.096,-1.566,-0.554,115.85,64.79,-60.85,1785095243252.969
-0.092,-1.514,-0.602,116.37,73.06,-73.82,1785095243258.446
-0.086,-1.448,-0.631,105.26,79.81,-85.18,1785095243269.3398
-0.069,-1.433,-0.634,85.3,84.11,-98.18,1785095243282.408
-0.029,-1.46,-0.616,61.49,87.37,-111.03,1785095243288.417
0.027,-1.531,-0.588,43.31,90.49,-123.72,1785095243299.042
0.072,-1.614,-0.566,36.04,93.42,-136.94,1785095243312.321
0.1,-1.674,-0.549,38.51,95.92,-149.63,1785095243318.243
0.102,-1.69,-0.528,45.72,96.84,-161.26,1785095243329.021
0.092,-1.661,-0.52,52.03,96.56,-171.27,1785095243342.289
0.11,-1.619,-0.546,54.08,95.34,-179.63,1785095243348.195
0.141,-1.554,-0.56,48.8,92.65,-187.69,1785095243358.9702
0.174,-1.52,-0.559,38.06,88.66,-194.65,1785095243372.684
0.183,-1.436,-0.536,22.46,87.56,-209.81,1785095243378.2131
0.157,-1.398,-0.511,3.57,82.25,-217.99,1785095243388.864
0.167,-1.403,-0.471,-14.31,76.66,-214.06,1785095243399.592
0.214,-1.374,-0.452,-25.45,72.39,-214.48,1785095243412.947
0.213,-1.285,-0.435,-31.28,74.1,-229.87,1785095243418.4329
0.207,-1.269,-0.407,-40.07,74.8,-239.91,1785095243429.545
0.21,-1.319,-0.373,-50.81,72.18,-241.28,1785095243442.791
0.197,-1.291,-0.324,-59.02,72.42,-242.59,1785095243448.718
0.194,-1.233,-0.297,-63.45,74.95,-242.47,1785095243459.5251
0.218,-1.155,-0.277,-69.8,77.43,-240.24,1785095243472.838
0.25,-1.071,-0.254,-78.89,78.89,-235.88,1785095243478.6912
0.277,-0.998,-0.245,-88.26,82.64,-228.83,1785095243489.514
0.263,-0.956,-0.241,-96.99,89.21,-222.94,1785095243502.7861
0.212,-0.936,-0.216,-103.79,96.01,-218.76,1785095243508.6821
0.193,-0.946,-0.202,-106.36,101.93,-214.42,1785095243522.2012
0.171,-0.925,-0.174,-105.9,107.73,-211.43,1785095243528.149
0.15,-0.88,-0.158,-103.89,112.31,-204.5,1785095243539.332
0.148,-0.821,-0.143,-100.16,116.82,-196.08,1785095243552.754
0.148,-0.75,-0.12,-95.16,120.76,-188.33,1785095243558.527
0.162,-0.691,-0.076,-88.84,123.75,-181.92,1785095243569.7112
0.182,-0.657,-0.008,-81.58,125.06,-177.92,1785095243582.8691
0.204,-0.643,0.05,-71.11,125.49,-173.53,1785095243588.9001
0.223,-0.603,0.087,-58.57,125.03,-166.54,1785095243602.4011
0.243,-0.541,0.114,-47.64,123.72,-157.11,1785095243608.323
0.281,-0.47,0.124,-40.38,121.65,-146.52,1785095243619.401
0.322,-0.367,0.127,-38.94,119.11,-134.04,1785095243632.472
0.361,-0.319,0.102,-40.41,116.61,-120.55,1785095243638.556
0.384,-0.334,0.068,-45.5,114.84,-109.29,1785095243649.477
0.404,-0.382,0.069,-52.64,112.22,-100.34,1785095243662.699
0.432,-0.475,0.092,-54.08,109.2,-93.36,1785095243668.681
0.471,-0.538,0.141,-48.68,105.99,-88.23,1785095243679.544
0.512,-0.559,0.186,-36.32,101.38,-83.56,1785095243692.918
0.512,-0.559,0.186,-19.17,95.92,-81.03,1785095243698.7012
0.543,-0.558,0.223,-1.04,90.4,-81.0,1785095243709.202
0.566,-0.549,0.23,11.93,85.27,-81.09,1785095243722.446
0.577,-0.518,0.215,17.73,80.08,-81.73,1785095243728.3918
0.57,-0.511,0.197,17.73,80.08,-81.73,1785095243738.9387
0.559,-0.498,0.183,14.65,74.86,-81.97,1785095243749.576
0.563,-0.486,0.174,5.92,70.04,-79.96,1785095243762.837
0.578,-0.499,0.183,-4.03,65.4,-77.97,1785095243768.7512
0.606,-0.51,0.224,-12.33,59.76,-77.12,1785095243779.0981
0.653,-0.526,0.266,-16.45,53.44,-76.48,1785095243792.326
0.7,-0.555,0.299,-15.93,47.36,-75.87,1785095243798.261
0.73,-0.586,0.323,-12.24,41.17,-75.93,1785095243808.8262
0.751,-0.59,0.329,-9.09,34.7,-76.63,1785095243819.339
0.76,-0.572,0.325,-9.13,27.01,-78.04,1785095243832.552
0.754,-0.581,0.307,-12.48,18.1,-80.02,1785095243838.572
0.758,-0.562,0.296,-17.79,9.83,-84.08,1785095243848.9402
0.769,-0.552,0.294,-25.88,1.22,-86.61,1785095243859.4338
0.794,-0.562,0.314,-34.46,-7.51,-90.06,1785095243872.7578
0.825,-0.582,0.341,-41.63,-17.09,-95.52,1785095243878.581
0.839,-0.588,0.33,-45.5,-27.13,-102.48,1785095243889.155
0.797,-0.559,0.294,-44.62,-37.51,-111.88,1785095243902.405
0.787,-0.535,0.232,-41.38,-49.44,-117.98,1785095243908.355
0.788,-0.457,0.155,-38.67,-61.01,-125.74,1785095243919.137
0.774,-0.352,0.069,-38.61,-70.22,-134.71,1785095243932.6528
0.756,-0.283,0.007,-44.25,-78.13,-141.79,1785095243938.7158
0.759,-0.203,-0.046,-58.53,-84.84,-147.95,1785095243949.049
0.769,-0.135,-0.09,-78.65,-90.4,-153.66,1785095243962.376
0.762,-0.045,-0.146,-104.01,-94.7,-160.1,1785095243968.3171
0.76,0.061,-0.187,-132.85,-96.93,-163.98,1785095243979.235
0.752,0.101,-0.216,-155.19,-97.99,-170.05,1785095243992.4778
0.738,0.126,-0.225,-169.29,-98.3,-177.98,1785095243998.4487
0.736,0.164,-0.223,-171.79,-97.87,-184.36,1785095244009.46
0.709,0.209,-0.21,-163.43,-97.54,-189.55,1785095244022.841
0.652,0.239,-0.212,-147.83,-97.87,-192.48,1785095244028.706
0.582,0.275,-0.231,-128.7,-98.73,-193.24,1785095244042.1838
0.524,0.361,-0.29,-110.81,-99.86,-189.98,1785095244048.322
0.491,0.487,-0.369,-95.58,-98.51,-181.92,1785095244059.04
0.446,0.635,-0.474,-79.84,-94.52,-171.0,1785095244072.313
0.401,0.824,-0.565,-64.03,-86.98,-155.37,1785095244078.1912
0.377,0.997,-0.652,-49.81,-76.36,-135.69,1785095244089.0159
0.366,1.126,-0.701,-40.77,-63.23,-114.54,1785095244102.341
0.379,1.202,-0.711,-36.84,-48.92,-92.47,1785095244108.189
0.408,1.246,-0.711,-33.66,-33.51,-69.06,1785095244118.883
0.446,1.23,-0.699,-26.18,-17.98,-43.82,1785095244129.3992
0.491,1.205,-0.699,-15.75,-3.33,-18.43,1785095244142.626
0.54,1.145,-0.689,-1.86,11.69,8.64,1785095244148.556
0.562,1.041,-0.678,14.19,25.94,34.3,1785095244158.8638
0.57,0.957,-0.662,28.75,38.76,57.62,1785095244169.547
0.535,0.869,-0.627,42.66,52.34,80.14,1785095244182.7578
0.737,0.795,-0.603,56.37,65.89,98.57,1785095244188.294
0.728,0.659,-0.556,67.69,74.22,123.02,1785095244199.302
0.758,0.601,-0.539,75.66,92.04,138.95,1785095244212.785
0.763,0.657,-0.51,75.96,100.13,138.19,1785095244218.571
0.847,0.524,-0.471,70.56,103.98,147.68,1785095244229.4531
0.913,0.361,-0.416,60.4,113.74,158.85,1785095244242.698
0.944,0.295,-0.349,53.22,127.78,163.09,1785095244248.6929
1.001,0.189,-0.309,50.11,136.17,165.75,1785095244262.084
1.034,0.036,-0.259,47.18,142.43,170.05,1785095244268.047
1.017,-0.094,-0.164,45.14,150.36,173.68,1785095244279.0771
1.017,-0.229,-0.079,46.88,155.92,173.68,1785095244292.653
1.025,-0.392,0.019,48.77,158.64,169.38,1785095244298.271
1.051,-0.562,0.133,50.14,158.33,161.5,1785095244309.3052
1.076,-0.706,0.239,52.52,154.88,149.17,1785095244322.6162
1.083,-0.835,0.329,55.76,149.33,133.4,1785095244328.5342
1.073,-0.935,0.417,56.73,140.63,113.59,1785095244339.534
1.042,-0.988,0.504,54.96,127.93,87.95,1785095244352.838
1.022,-1.032,0.603,48.83,109.81,59.39,1785095244358.753
0.985,-1.081,0.702,39.55,85.51,30.61,1785095244369.5403
0.948,-1.087,0.762,30.21,59.6,-0.55,1785095244382.689
0.911,-1.034,0.79,20.84,32.84,-32.9,1785095244388.62
0.869,-0.959,0.773,11.41,5.65,-63.14,1785095244398.9219
0.835,-0.884,0.723,2.44,-19.93,-91.62,1785095244409.481
0.809,-0.801,0.674,-5.49,-42.54,-117.4,1785095244422.872
0.783,-0.711,0.62,-12.24,-62.78,-138.43,1785095244428.69
0.735,-0.58,0.557,-17.24,-81.33,-155.95,1785095244439.361
0.687,-0.422,0.461,-17.43,-98.21,-170.78,1785095244452.9973
0.657,-0.246,0.336,-14.07,-112.89,-183.48,1785095244458.5579
0.641,-0.044,0.209,-12.45,-124.97,-193.64,1785095244469.571
0.625,0.15,0.095,-16.91,-134.13,-200.29,1785095244482.745
0.605,0.325,-0.001,-29.94,-139.44,-203.53,1785095244488.7449
0.588,0.476,-0.083,-47.55,-140.78,-203.34,1785095244502.338
0.584,0.627,-0.175,-66.19,-138.86,-199.35,1785095244508.128
0.586,0.79,-0.277,-83.65,-132.94,-191.11,1785095244519.2803
0.586,0.923,-0.373,-96.9,-123.14,-179.36,1785095244532.5818
0.574,0.998,-0.448,-104.59,-110.05,-165.9,1785095244538.527
0.561,1.056,-0.482,-105.5,-95.49,-149.05,1785095244549.455
0.568,1.105,-0.513,-92.9,-81.12,-127.99,1785095244562.6838
0.575,1.155,-0.559,-69.58,-66.44,-104.43,1785095244568.842
0.579,1.209,-0.622,-44.4,-51.91,-78.86,1785095244579.31
0.593,1.262,-0.655,-22.61,-37.26,-50.97,1785095244592.546
0.625,1.266,-0.643,-4.12,-22.43,-22.0,1785095244598.457
0.65,1.275,-0.604,11.35,-8.3,6.47,1785095244608.75
0.677,1.26,-0.566,24.75,6.32,34.85,1785095244619.3481
0.698,1.189,-0.531,32.9,21.91,61.53,1785095244632.5813
0.709,1.074,-0.487,35.49,36.41,85.39,1785095244638.617
0.729,0.927,-0.426,36.38,48.98,107.33,1785095244649.122
0.757,0.774,-0.38,38.64,59.24,127.9,1785095244662.3882
0.786,0.642,-0.324,43.55,67.93,144.11,1785095244668.3662
0.826,0.527,-0.272,49.71,75.5,154.79,1785095244679.065
0.862,0.398,-0.226,55.33,83.16,162.24,1785095244692.559
0.875,0.253,-0.17,58.26,90.49,166.84,1785095244698.2798
0.892,0.106,-0.085,57.5,95.77,167.94,1785095244709.0361
0.947,-0.058,0.025,53.83,98.64,165.96,1785095244722.2988
1.016,-0.223,0.14,47.33,99.43,160.04,1785095244728.362
1.035,-0.368,0.217,40.19,97.29,151.1,1785095244739.003
1.066,-0.518,0.27,33.05,93.75,140.23,1785095244752.299
1.113,-0.666,0.302,24.99,86.43,123.75,1785095244758.204
1.108,-0.809,0.36,18.01,77.06,100.41,1785095244768.995
1.111,-0.942,0.421,12.51,67.2,75.62,1785095244779.595
1.118,-0.995,0.476,9.09,52.52,49.13,1785095244792.8372
1.096,-0.998,0.538,10.47,34.88,21.91,1785095244798.744
1.077,-1.018,0.57,13.7,15.59,-5.4,1785095244809.158
1.063,-0.998,0.571,14.65,-5.55,-32.99,1785095244822.3638
1.029,-0.912,0.572,12.02,-25.27,-57.56,1785095244828.3232
0.993,-0.824,0.547,7.93,-43.7,-80.63,1785095244838.6572
0.947,-0.729,0.504,4.12,-61.89,-104.22,1785095244849.3179
0.885,-0.592,0.443,0.89,-77.58,-125.16,1785095244862.551
0.815,-0.429,0.346,-1.92,-92.23,-143.07,1785095244868.5068
0.751,-0.254,0.229,-6.96,-105.17,-158.91,1785095244879.145
0.704,-0.066,0.122,-14.83,-115.21,-171.18,1785095244892.431
0.659,0.146,-0.003,-24.08,-121.89,-179.36,1785095244898.3838
0.622,0.371,-0.14,-33.36,-124.52,-183.23,1785095244909.349
0.611,0.605,-0.251,-41.87,-124.21,-183.23,1785095244922.622
0.624,0.795,-0.384,-52.16,-120.0,-179.69,1785095244928.317
0.628,0.994,-0.376,-69.31,-111.39,-174.38,1785095244939.5981
0.609,1.18,-0.388,-79.68,-103.18,-160.83,1785095244952.8652
0.668,1.254,-0.484,-88.63,-87.56,-139.5,1785095244959.05
0.631,1.325,-0.482,-107.39,-70.35,-125.28,1785095244972.407
0.631,1.325,-0.482,-105.99,-54.14,-101.78,1785095244978.137
0.628,1.301,-0.518,-84.08,-37.63,-74.89,1785095244989.033
0.61,1.267,-0.577,-48.95,-24.2,-45.44,1785095244999.5588
0.599,1.302,-0.611,-7.54,-12.18,-10.99,1785095245012.82
0.621,1.344,-0.623,28.26,0.49,21.18,1785095245018.919
0.66,1.36,-0.618,28.26,0.49,21.18,1785095245029.0088
0.705,1.347,-0.579,50.54,12.91,50.11,1785095245042.2861
0.737,1.295,-0.523,59.33,25.54,77.85,1785095245048.199
0.749,1.232,-0.465,57.89,37.72,103.27,1785095245058.835
0.749,1.136,-0.406,52.77,48.34,124.88,1785095245069.663
0.767,1.001,-0.35,47.36,57.19,142.74,1785095245082.8062
0.794,0.859,-0.299,42.57,64.91,158.79,1785095245088.809
0.81,0.718,-0.254,39.77,71.75,173.13,1785095245099.5122
0.835,0.571,-0.223,38.18,77.0,184.3,1785095245112.791
0.875,0.418,-0.196,35.37,81.61,192.08,1785095245118.904
0.91,0.269,-0.161,30.18,86.76,198.49,1785095245129.471
0.946,0.098,-0.102,25.42,91.95,204.54,1785095245142.7688
0.982,-0.076,-0.053,23.35,95.83,206.76,1785095245148.669
1.02,-0.241,-0.004,22.92,98.7,204.96,1785095245159.522
1.046,-0.398,0.064,24.17,100.25,200.08,1785095245172.885
1.038,-0.537,0.148,29.27,99.89,192.33,1785095245178.655
1.015,-0.664,0.223,39.55,97.23,181.92,1785095245189.415
1.017,-0.79,0.296,50.48,92.68,168.07,1785095245202.535
1.036,-0.919,0.353,54.87,85.82,149.42,1785095245208.735
1.023,-1.039,0.401,52.22,77.67,126.65,1785095245219.579
0.981,-1.136,0.457,45.59,67.6,99.43,1785095245232.5718
0.951,-1.19,0.542,36.38,53.01,69.31,1785095245238.827
0.938,-1.238,0.596,27.99,33.85,38.82,1785095245249.218
0.928,-1.23,0.608,21.27,11.54,8.42,1785095245262.489
0.904,-1.166,0.603,17.76,-11.35,-22.06,1785095245268.364
0.879,-1.108,0.57,15.53,-32.59,-52.92,1785095245278.7832
0.849,-1.034,0.536,11.26,-52.03,-81.33,1785095245289.445
0.825,-0.938,0.494,6.71,-70.25,-105.56,1785095245303.0369
0.796,-0.832,0.438,3.57,-87.25,-127.78,1785095245308.686
0.76,-0.706,0.371,1.34,-103.12,-148.35,1785095245319.336
0.727,-0.529,0.27,-0.67,-117.83,-165.38,1785095245332.674
0.693,-0.334,0.122,-1.92,-129.83,-180.12,1785095245338.5972
0.657,-0.112,-0.015,-6.59,-138.49,-192.82,1785095245349.196
0.646,0.114,-0.129,-16.45,-144.47,-201.48,1785095245362.455
0.644,0.303,-0.221,-30.7,-147.4,-206.55,1785095245368.3628
0.631,0.457,-0.325,-48.25,-146.76,-208.38,1785095245379.4128
0.613,0.627,-0.411,-67.02,-142.19,-206.21,1785095245392.68
0.598,0.803,-0.472,-85.57,-134.71,-198.89,1785095245398.633
0.589,0.951,-0.522,-104.92,-123.69,-187.11,1785095245412.296
0.572,1.023,-0.568,-122.5,-108.43,-172.89,1785095245418.1252
0.55,1.055,-0.618,-132.36,-90.98,-156.32,1785095245429.244
0.519,1.125,-0.683,-127.69,-73.61,-136.69,1785095245442.4907
0.509,1.25,-0.728,-105.99,-55.88,-110.97,1785095245448.441
0.527,1.326,-0.775,-72.18,-37.32,-82.92,1785095245459.255
0.553,1.364,-0.807,-39.58,-18.13,-55.12,1785095245472.5593
0.578,1.387,-0.779,-14.16,-0.34,-25.06,1785095245478.418
0.614,1.37,-0.736,5.52,15.53,6.23,1785095245488.7148
0.621,1.314,-0.702,21.45,30.82,36.93,1785095245499.3547
0.655,1.235,-0.647,35.34,45.81,64.58,1785095245512.605
0.656,1.088,-0.603,47.7,58.23,92.44,1785095245518.534
0.674,0.97,-0.568,55.18,70.41,113.07,1785095245529.185
0.698,0.94,-0.531,55.97,81.61,122.56,1785095245542.393
0.709,0.849,-0.489,49.26,91.77,133.46,1785095245548.359
0.696,0.739,-0.407,37.23,102.66,145.76,1785095245559.238
0.698,0.628,-0.329,27.65,110.51,156.25,1785095245572.683
0.721,0.485,-0.245,22.43,117.44,165.38,1785095245578.472
0.767,0.319,-0.183,21.21,123.48,172.15,1785095245589.502
0.79,0.202,-0.117,20.36,127.69,173.96,1785095245602.81
0.821,0.075,-0.056,18.86,131.38,174.6,1785095245608.646
0.847,-0.09,0.024,16.21,135.07,173.56,1785095245619.715
0.872,-0.256,0.129,13.37,136.57,170.35,1785095245632.967
0.917,-0.427,0.266,12.91,134.83,165.11,1785095245638.9749
0.995,-0.638,0.422,15.87,129.28,155.34,1785095245652.684
1.075,-0.866,0.554,20.78,119.6,138.49,1785095245658.32
1.124,-1.032,0.653,27.31,106.17,115.82,1785095245669.302
1.113,-1.076,0.685,34.49,88.99,89.11,1785095245682.525
1.06,-1.023,0.748,41.23,69.64,59.63,1785095245688.482
1.033,-1.022,0.821,45.08,45.32,27.65,1785095245698.976
1.027,-1.02,0.879,40.04,18.19,-2.75,1785095245709.576
1.014,-0.977,0.9,30.18,-8.79,-29.97,1785095245722.812
0.981,-0.941,0.889,19.29,-34.0,-57.77,1785095245728.7131
0.944,-0.904,0.86,8.15,-58.75,-85.21,1785095245739.069
0.913,-0.821,0.802,-0.64,-82.74,-109.38,1785095245752.347
0.861,-0.69,0.71,-4.49,-104.37,-130.31,1785095245758.2898
0.792,-0.536,0.585,-5.19,-122.59,-148.41,1785095245769.049
0.72,-0.373,0.426,-4.27,-137.67,-163.21,1785095245782.2102
0.658,-0.172,0.246,-1.01,-149.75,-173.68,1785095245788.158
0.651,0.087,0.065,6.99,-159.73,-179.57,1785095245798.935
0.663,0.367,-0.125,13.43,-168.25,-183.11,1785095245812.4521
0.65,0.615,-0.327,5.52,-170.72,-183.14,1785095245818.094
0.631,0.779,-0.465,-18.68,-164.92,-178.47,1785095245829.083
0.65,0.868,-0.493,-50.39,-154.0,-170.84,1785095245842.314
0.679,0.901,-0.49,-84.05,-139.44,-160.47,1785095245848.2617
0.657,0.941,-0.495,-115.27,-120.55,-147.07,1785095245859.4392
0.628,1.065,-0.521,-132.69,-101.26,-126.87,1785095245872.6567
0.625,1.096,-0.555,-120.37,-82.16,-104.04,1785095245878.665
0.632,1.098,-0.614,-86.34,-64.64,-85.12,1785095245889.559
0.636,1.151,-0.691,-38.51,-48.01,-61.92,1785095245902.8079
0.632,1.229,-0.792,12.21,-31.86,-32.62,1785095245908.752
0.637,1.332,-0.845,46.39,-14.86,-1.28,1785095245919.167
0.679,1.358,-0.82,59.97,2.84,29.69,1785095245932.553
0.715,1.32,-0.73,57.44,19.41,58.29,1785095245938.497
0.749,1.249,-0.629,49.04,34.39,85.36,1785095245948.7942
0.776,1.139,-0.543,41.69,47.61,108.46,1785095245959.542
0.787,1.012,-0.479,36.32,58.6,126.83,1785095245972.9338
0.792,0.892,-0.441,32.01,67.29,142.16,1785095245978.3362
0.793,0.779,-0.401,27.04,75.01,155.71,1785095245989.4778
0.8,0.655,-0.358,22.06,81.76,167.64,1785095246002.798
0.815,0.515,-0.311,18.77,87.56,176.7,1785095246008.6812
0.833,0.366,-0.256,16.82,92.72,182.56,1785095246019.469
0.861,0.219,-0.184,14.47,97.32,187.02,1785095246032.647
0.905,0.06,-0.099,12.24,100.71,189.06,1785095246038.7112
0.951,-0.105,-0.018,10.99,102.69,187.38,1785095246049.596
0.988,-0.253,0.056,10.68,103.09,183.81,1785095246062.8218
1.012,-0.403,0.128,13.31,101.87,177.89,1785095246069.027
1.029,-0.56,0.189,17.49,99.8,167.33,1785095246082.1992
1.045,-0.73,0.245,22.77,95.92,151.98,1785095246088.2292
1.058,-0.879,0.309,27.86,89.54,132.73,1785095246098.956
1.07,-1.017,0.383,31.13,80.57,111.67,1785095246109.66
1.078,-1.117,0.441,29.85,67.75,87.53,1785095246123.018
1.059,-1.165,0.525,26.09,51.7,59.88,1785095246128.9038
1.035,-1.189,0.587,23.9,33.39,29.82,1785095246139.378
1.005,-1.177,0.621,23.01,13.37,-1.62,1785095246152.732
0.983,-1.126,0.624,22.95,-8.36,-31.65,1785095246158.578
0.95,-1.042,0.612,22.64,-30.0,-60.27,1785095246169.227
0.919,-0.956,0.586,19.78,-50.63,-88.35,1785095246179.5042
0.881,-0.892,0.543,14.19,-69.58,-113.83,1785095246192.8809
0.832,-0.81,0.484,9.67,-86.76,-136.3,1785095246198.778
0.772,-0.691,0.407,8.7,-102.15,-155.64,1785095246209.492
0.702,-0.55,0.313,11.75,-116.03,-172.4,1785095246222.7031
0.635,-0.375,0.185,16.54,-127.93,-186.04,1785095246228.601
0.591,-0.13,0.019,21.03,-137.39,-195.17,1785095246239.6719
0.59,0.16,-0.142,23.47,-143.93,-199.93,1785095246252.733
0.59,0.16,-0.142,18.71,-147.53,-202.15,1785095246258.789
0.615,0.432,-0.295,3.57,-145.3,-200.9,1785095246272.386
0.634,0.648,-0.432,-20.05,-136.91,-193.88,1785095246278.275
0.653,0.814,-0.527,-49.13,-125.25,-183.29,1785095246289.272
0.66,0.944,-0.567,-80.69,-109.96,-169.29,1785095246302.6072
0.653,1.048,-0.571,-80.69,-109.96,-169.29,1785095246308.3992
0.653,1.14,-0.6,-110.17,-91.16,-151.01,1785095246319.5442
0.669,1.218,-0.632,-128.33,-69.95,-129.06,1785095246332.781
0.698,1.237,-0.626,-118.87,-50.42,-105.26,1785095246338.7708
0.625,1.257,-0.663,-77.09,-35.25,-78.49,1785095246349.47
0.773,1.128,-0.662,-15.9,-12.91,-21.79,1785095246362.737
0.817,1.316,-0.773,44.62,-6.38,0.43,1785095246368.832
0.728,1.572,-0.816,80.81,2.99,10.25,1785095246378.947
0.762,1.459,-0.804,80.36,19.2,39.06,1785095246389.617
0.823,1.323,-0.665,60.43,37.6,73.15,1785095246402.9287
0.884,1.263,-0.549,50.66,50.26,98.12,1785095246408.772
0.803,1.246,-0.495,44.95,52.46,107.15,1785095246419.444
0.779,1.022,-0.391,31.89,62.59,129.37,1785095246432.606
1.003,0.855,-0.397,18.04,69.46,148.01,1785095246438.654
0.822,0.877,-0.299,8.33,73.73,146.28,1785095246449.2559
0.824,0.673,-0.305,1.59,77.3,162.45,1785095246462.584
0.917,0.479,-0.266,-8.85,75.59,171.0,1785095246468.4282
0.929,0.355,-0.226,-14.01,78.52,173.99,1785095246479.1812
0.92,0.207,-0.188,-13.58,78.95,180.18,1785095246492.5188
0.947,0.079,-0.157,-11.81,78.37,183.05,1785095246498.208
0.985,-0.019,-0.137,-10.19,78.13,182.23,1785095246509.013
1.0,-0.122,-0.086,-8.61,77.82,179.45,1785095246519.736
0.997,-0.258,-0.032,-4.24,77.18,176.64,1785095246532.856
1.008,-0.408,0.025,3.69,76.51,173.56,1785095246538.9011
1.022,-0.501,0.063,12.48,75.66,166.66,1785095246549.4321
1.018,-0.57,0.068,19.96,74.37,156.29,1785095246562.686
0.986,-0.658,0.061,23.68,73.52,143.83,1785095246568.661
0.963,-0.751,0.081,22.83,72.54,130.71,1785095246579.3718
0.959,-0.826,0.093,19.81,69.86,116.43,1785095246592.618
0.939,-0.883,0.117,15.14,66.62,100.96,1785095246598.6208
0.906,-0.955,0.159,11.11,62.23,83.13,1785095246609.296
0.876,-1.034,0.199,10.07,56.12,63.48,1785095246622.6282
0.854,-1.097,0.218,12.94,49.23,43.43,1785095246628.447
0.841,-1.105,0.237,18.86,41.57,22.49,1785095246639.0002
0.849,-1.087,0.258,25.24,32.72,0.76,1785095246649.518
0.865,-1.061,0.28,28.99,23.56,-21.39,1785095246662.808
0.859,-1.004,0.302,31.04,14.65,-42.85,1785095246668.739
0.838,-0.929,0.323,33.2,5.13,-62.5,1785095246679.1099
0.825,-0.856,0.328,34.91,-4.79,-80.11,1785095246692.511
0.821,-0.792,0.321,35.16,-14.44,-96.29,1785095246698.315
0.817,-0.727,0.312,33.94,-23.74,-111.3,1785095246708.8508
0.821,-0.666,0.304,32.9,-33.17,-125.89,1785095246719.5981
0.822,-0.615,0.28,33.39,-43.18,-140.84,1785095246732.817
0.799,-0.532,0.257,32.99,-52.83,-154.67,1785095246738.454
0.771,-0.429,0.24,31.86,-62.41,-167.03,1785095246749.4998
0.74,-0.339,0.216,31.46,-71.93,-178.72,1785095246762.796
0.713,-0.256,0.185,29.73,-81.36,-189.25,1785095246768.852
0.692,-0.175,0.142,26.28,-89.94,-197.49,1785095246779.5488
0.676,-0.109,0.107,22.03,-97.02,-204.32,1785095246792.7969
0.66,-0.078,0.076,17.0,-103.95,-210.36,1785095246798.722
0.64,-0.044,0.033,12.09,-110.6,-216.8,1785095246809.7
0.598,0.026,-0.036,10.16,-116.0,-221.87,1785095246823.062
0.552,0.168,-0.124,9.0,-119.17,-223.49,1785095246828.8372
0.525,0.369,-0.218,5.98,-119.91,-221.63,1785095246842.203
0.513,0.569,-0.302,-0.24,-117.59,-216.56,1785095246848.173
0.505,0.742,-0.389,-9.61,-112.13,-209.42,1785095246858.956
0.512,0.873,-0.433,-20.87,-103.27,-199.93,1785095246872.195
0.516,0.938,-0.448,-31.98,-93.23,-190.01,1785095246878.15
0.509,0.966,-0.425,-42.21,-82.06,-178.96,1785095246889.009
0.498,0.938,-0.423,-43.98,-70.74,-166.91,1785095246902.252
0.485,0.963,-0.459,-37.57,-60.24,-153.48,1785095246908.171
0.49,1.058,-0.492,-22.52,-50.9,-135.96,1785095246918.997
0.501,1.119,-0.526,0.09,-42.15,-117.1,1785095246929.606
0.502,1.157,-0.556,20.6,-34.09,-99.58,1785095246942.6638
0.499,1.197,-0.581,34.73,-26.7,-81.94,1785095246948.8242
0.494,1.252,-0.581,42.94,-19.53,-62.5,1785095246959.3489
0.488,1.322,-0.589,46.45,-12.67,-42.57,1785095246972.759
0.487,1.383,-0.596,44.5,-5.13,-23.8,1785095246978.261
0.495,1.406,-0.589,37.35,3.02,-6.71,1785095246988.769
0.509,1.395,-0.567,26.73,11.32,10.74,1785095246999.386
0.521,1.346,-0.533,15.69,19.01,28.44,1785095247012.782
0.544,1.261,-0.498,7.9,25.79,44.74,1785095247018.6082
0.556,1.16,-0.484,4.61,31.22,58.84,1785095247028.9058
0.554,1.079,-0.476,4.79,35.25,72.27,1785095247039.509
0.55,1.02,-0.486,6.38,38.24,85.67,1785095247052.9302
0.548,0.999,-0.488,6.01,40.8,99.09,1785095247058.472
0.54,0.968,-0.489,3.63,42.94,111.91,1785095247069.152
0.537,0.894,-0.457,-1.77,45.01,122.5,1785095247079.659
0.561,0.811,-0.406,-8.09,45.93,130.44,1785095247093.041
0.617,0.747,-0.372,-11.69,46.3,137.52,1785095247098.6729
0.66,0.701,-0.365,-13.61,47.12,145.36,1785095247109.5623
0.681,0.66,-0.355,-15.72,48.55,154.3,1785095247122.887
0.69,0.615,-0.343,-18.56,50.78,163.03,1785095247128.746
0.693,0.525,-0.319,-20.36,53.1,171.33,1785095247139.502
0.715,0.416,-0.283,-21.27,54.23,176.52,1785095247152.791
0.749,0.321,-0.245,-19.99,54.51,178.84,1785095247158.7
0.788,0.254,-0.226,-15.41,54.96,180.3,1785095247169.549
0.827,0.241,-0.238,-10.5,57.1,182.1,1785095247182.7168
0.868,0.252,-0.251,-8.06,61.59,185.74,1785095247188.728
0.924,0.234,-0.254,-11.81,66.93,189.15,1785095247199.357
0.97,0.177,-0.234,-24.05,72.63,190.53,1785095247212.7139
0.993,0.043,-0.194,-38.61,77.64,190.34,1785095247218.581
1.001,-0.141,-0.129,-48.8,81.42,188.7,1785095247229.3079
1.017,-0.3,-0.084,-50.78,83.07,186.16,1785095247242.551
0.947,-0.406,-0.005,-44.89,85.39,182.04,1785095247248.501
1.036,-0.444,0.017,-34.27,83.25,174.17,1785095247259.288
1.045,-0.481,0.067,-24.66,81.09,166.63,1785095247272.5571
1.044,-0.548,0.111,-15.93,82.67,158.79,1785095247278.444
1.048,-0.594,0.137,-9.95,81.06,147.25,1785095247289.1829
1.018,-0.606,0.19,-6.44,77.33,135.26,1785095247302.581
0.985,-0.637,0.223,-2.35,73.61,122.99,1785095247308.384
0.97,-0.692,0.232,1.07,69.31,109.1,1785095247319.0642
0.966,-0.74,0.256,2.93,63.57,94.82,1785095247329.391
0.97,-0.782,0.292,2.93,57.04,80.69,1785095247342.686
0.941,-0.845,0.324,1.25,50.66,66.32,1785095247348.3909
0.987,-0.895,0.36,-2.04,43.0,49.84,1785095247358.839
0.954,-0.949,0.405,-3.85,34.27,35.83,1785095247369.5637
0.972,-0.969,0.425,-1.95,23.62,23.38,1785095247382.685
0.925,-0.857,0.412,3.85,11.93,1.1,1785095247388.747
0.923,-0.836,0.396,10.56,1.86,-16.42,1785095247398.709
0.887,-0.824,0.398,14.1,-7.57,-31.43,1785095247409.3608
0.907,-0.771,0.407,18.13,-18.56,-46.78,1785095247422.657
0.905,-0.717,0.391,23.29,-28.32,-62.38,1785095247428.522
0.883,-0.653,0.381,24.32,-36.9,-75.08,1785095247439.04
0.891,-0.602,0.367,23.56,-44.89,-85.57,1785095247449.717
0.887,-0.56,0.344,22.64,-52.92,-95.28,1785095247462.954
0.882,-0.515,0.316,22.25,-60.58,-104.89,1785095247469.0981
0.879,-0.473,0.287,22.77,-67.54,-114.08,1785095247479.6072
0.863,-0.423,0.256,24.78,-74.89,-123.02,1785095247492.8809
0.841,-0.362,0.222,27.95,-82.31,-131.63,1785095247498.76
0.824,-0.306,0.178,31.74,-89.27,-139.56,1785095247509.57
0.809,-0.256,0.13,36.07,-95.74,-146.18,1785095247522.8127
0.797,-0.192,0.08,40.19,-101.84,-150.76,1785095247528.727
0.797,-0.192,0.08,44.59,-107.09,-154.09,1785095247539.728
0.778,-0.109,0.023,48.25,-111.3,-156.77,1785095247553.071
0.762,-0.023,-0.035,48.83,-114.2,-158.57,1785095247558.904
0.741,0.067,-0.099,45.23,-115.39,-158.3,1785095247572.517
0.743,0.159,-0.16,39.22,-115.57,-156.71,1785095247578.297
0.75,0.244,-0.219,39.22,-115.57,-156.71,1785095247589.3372
0.747,0.332,-0.273,30.73,-114.81,-153.51,1785095247602.8188
0.747,0.432,-0.342,19.01,-112.06,-149.24,1785095247608.554
0.74,0.538,-0.387,4.0,-107.15,-144.41,1785095247619.591
0.732,0.601,-0.403,-11.08,-100.77,-139.16,1785095247632.865
0.723,0.616,-0.43,-25.79,-92.5,-132.79,1785095247639.476
0.721,0.626,-0.454,-38.03,-83.16,-124.0,1785095247649.5317
0.714,0.646,-0.483,-42.24,-73.92,-113.62,1785095247662.776
0.705,0.681,-0.529,-39.12,-64.0,-101.75,1785095247668.7932
0.7,0.729,-0.577,-30.15,-54.29,-88.5,1785095247679.38
0.695,0.771,-0.617,-14.71,-45.2,-75.01,1785095247692.706
0.69,0.818,-0.662,3.69,-35.89,-60.98,1785095247698.601
0.692,0.878,-0.675,20.97,-26.43,-46.11,1785095247709.016
