ax,ay,az,gx,gy,gz,timestamp_ms
0.425,0.42,-0.657,48.86,-90.06,-118.99,1785095180360.1238
0.405,0.48,-0.69,53.99,-86.25,-113.53,1785095180360.5142
0.394,0.527,-0.719,60.0,-81.67,-107.49,1785095180360.9019
0.388,0.552,-0.72,67.23,-77.49,-101.08,1785095180361.2822
0.383,0.536,-0.7,67.23,-77.49,-101.08,1785095180361.645
0.378,0.503,-0.706,72.88,-73.31,-95.52,1785095180362.005
0.363,0.492,-0.731,75.72,-69.43,-89.54,1785095180362.356
0.347,0.51,-0.785,75.66,-65.61,-82.58,1785095180362.7039
0.347,0.563,-0.852,73.67,-61.37,-75.41,1785095180363.0452
0.358,0.616,-0.898,71.66,-55.76,-67.84,1785095180363.39
0.378,0.623,-0.906,69.22,-49.62,-61.46,1785095180363.736
0.385,0.592,-0.894,67.45,-44.07,-57.1,1785095180364.0781
0.383,0.57,-0.873,69.0,-39.25,-52.86,1785095180364.4219
0.392,0.566,-0.883,73.64,-34.76,-46.85,1785095180364.774
0.393,0.571,-0.907,79.07,-29.88,-39.89,1785095180365.1042
0.393,0.564,-0.928,83.32,-24.69,-33.11,1785095180365.4023
0.396,0.548,-0.939,86.46,-19.93,-27.38,1785095180365.71
0.403,0.537,-0.958,88.08,-15.69,-21.55,1785095180366.014
0.416,0.542,-0.976,87.41,-12.12,-14.98,1785095180366.3208
0.425,0.55,-0.998,84.63,-9.4,-8.55,1785095180366.6292
0.422,0.569,-1.022,79.71,-6.78,-2.81,1785095180366.933
0.418,0.582,-1.029,74.07,-3.97,2.66,1785095180367.244
0.427,0.568,-1.033,69.22,-2.04,6.44,1785095180367.5369
0.439,0.544,-1.022,64.82,-0.64,8.39,1785095180367.832
0.441,0.516,-1.021,62.35,0.24,9.61,1785095180368.13
0.444,0.506,-1.033,60.09,1.22,11.2,1785095180368.4402
0.447,0.512,-1.048,57.53,1.65,12.97,1785095180368.809
0.451,0.517,-1.064,54.66,2.29,14.59,1785095180369.2002
0.449,0.514,-1.076,50.36,3.39,16.39,1785095180369.511
0.451,0.509,-1.089,42.79,4.76,18.13,1785095180369.8572
0.458,0.502,-1.098,32.9,6.26,19.47,1785095180370.1848
0.464,0.489,-1.101,23.9,7.69,21.0,1785095180370.492
0.464,0.472,-1.106,18.13,9.37,22.37,1785095180370.815
0.465,0.466,-1.108,14.95,11.29,23.62,1785095180371.1108
0.476,0.462,-1.111,12.97,13.18,24.9,1785095180371.416
0.481,0.452,-1.103,11.66,15.29,26.4,1785095180371.734
0.482,0.429,-1.094,11.05,18.01,28.14,1785095180372.052
0.484,0.403,-1.096,10.28,21.27,30.18,1785095180372.344
0.476,0.394,-1.096,9.28,24.99,32.69,1785095180372.639
0.509,0.372,-1.089,9.74,32.65,36.74,1785095180372.9229
0.525,0.369,-1.11,11.38,36.5,39.03,1785095180373.209
0.499,0.364,-1.132,11.54,33.17,41.38,1785095180373.482
0.497,0.34,-1.131,10.65,36.74,42.88,1785095180373.748
0.507,0.32,-1.113,8.51,45.17,43.49,1785095180374.013
0.498,0.308,-1.068,6.32,53.87,44.34,1785095180374.314
0.487,0.286,-1.028,6.26,58.69,46.27,1785095180374.594
0.492,0.272,-1.011,5.98,59.14,48.77,1785095180374.9
0.509,0.284,-0.998,4.76,60.82,50.54,1785095180375.188
0.52,0.294,-0.989,3.72,65.98,51.12,1785095180375.452
0.524,0.283,-0.978,1.59,71.35,51.61,1785095180375.714
0.523,0.258,-0.968,-1.4,76.14,52.28,1785095180375.977
0.517,0.236,-0.952,-4.03,81.64,54.14,1785095180376.232
0.513,0.212,-0.924,-5.13,87.44,57.13,1785095180376.49
0.511,0.194,-0.898,-5.25,92.01,58.93,1785095180376.7522
0.509,0.179,-0.867,-5.16,95.4,60.12,1785095180377.006
0.513,0.16,-0.848,-5.01,98.09,61.28,1785095180377.264
0.525,0.16,-0.835,-5.49,101.17,62.47,1785095180377.524
0.544,0.169,-0.802,-5.52,104.34,64.64,1785095180377.783
0.573,0.162,-0.787,-5.25,106.91,66.23,1785095180378.04
0.585,0.149,-0.763,-7.14,109.38,66.35,1785095180378.303
0.583,0.124,-0.744,-9.61,110.87,66.32,1785095180378.56
0.571,0.109,-0.738,-12.05,112.58,66.5,1785095180378.8218
0.556,0.106,-0.694,-13.73,114.78,67.87,1785095180379.075
0.571,0.09,-0.654,-12.85,115.91,69.06,1785095180379.3389
0.598,0.078,-0.641,-12.05,117.22,68.94,1785095180379.602
0.625,0.07,-0.625,-12.76,119.3,68.91,1785095180379.874
0.643,0.057,-0.598,-14.16,120.94,69.55,1785095180380.132
0.654,0.037,-0.596,-15.84,122.32,70.22,1785095180380.4001
0.646,0.034,-0.579,-18.56,124.67,71.69,1785095180380.655
0.63,0.026,-0.545,-20.75,126.29,74.16,1785095180380.893
0.623,0.009,-0.515,-23.32,127.29,75.75,1785095180381.138
0.62,-0.006,-0.473,-26.95,127.45,76.11,1785095180381.381
0.636,-0.018,-0.445,-30.52,126.59,75.66,1785095180381.624
0.657,-0.007,-0.418,-33.88,125.74,75.69,1785095180381.8638
0.669,0.001,-0.388,-35.8,124.85,76.6,1785095180382.106
0.686,-0.01,-0.375,-37.81,124.09,77.0,1785095180382.346
0.693,-0.02,-0.363,-42.05,123.94,76.6,1785095180382.586
0.695,-0.042,-0.339,-47.33,123.63,77.27,1785095180382.825
0.701,-0.071,-0.313,-52.89,123.2,77.88,1785095180383.0771
0.715,-0.077,-0.294,-59.02,122.38,78.37,1785095180383.325
0.73,-0.09,-0.286,-64.52,120.88,79.65,1785095180383.564
0.736,-0.102,-0.269,-69.31,119.94,81.42,1785095180383.826
0.729,-0.119,-0.238,-72.76,119.57,83.47,1785095180384.0698
0.728,-0.141,-0.209,-75.78,118.23,84.96,1785095180384.346
0.743,-0.16,-0.174,-78.49,116.28,86.06,1785095180384.584
0.775,-0.18,-0.156,-80.2,114.17,86.76,1785095180384.825
0.8,-0.185,-0.127,-81.64,113.16,87.74,1785095180385.064
0.811,-0.204,-0.102,-82.46,111.88,89.21,1785095180385.3079
0.815,-0.229,-0.089,-84.14,110.54,90.18,1785095180385.543
0.816,-0.24,-0.066,-87.1,109.1,91.1,1785095180385.8262
0.816,-0.255,-0.041,-89.54,107.09,92.62,1785095180386.086
0.808,-0.271,-0.021,-91.62,104.4,94.03,1785095180386.3362
0.812,-0.278,0.026,-92.87,101.05,95.25,1785095180386.567
0.833,-0.297,0.07,-91.37,96.47,95.65,1785095180386.791
0.855,-0.332,0.107,-87.77,91.65,94.64,1785095180387.038
0.869,-0.38,0.125,-83.56,86.86,92.44,1785095180387.275
0.875,-0.408,0.123,-79.32,82.77,90.58,1785095180387.5032
0.873,-0.417,0.136,-73.89,79.04,90.7,1785095180387.723
0.873,-0.426,0.144,-67.26,74.74,91.16,1785095180387.947
0.873,-0.422,0.152,-61.49,70.25,90.18,1785095180388.162
0.876,-0.423,0.158,-57.41,65.58,88.11,1785095180388.3882
0.877,-0.436,0.164,-55.76,60.98,84.96,1785095180388.615
0.872,-0.454,0.151,-56.7,55.94,81.67,1785095180388.835
0.872,-0.464,0.122,-60.46,51.48,78.92,1785095180389.062
0.871,-0.471,0.125,-65.8,47.61,77.39,1785095180389.2852
0.869,-0.484,0.138,-70.22,43.21,76.02,1785095180389.52
0.87,-0.499,0.137,-73.82,38.82,74.07,1785095180389.7358
0.877,-0.51,0.145,-76.75,35.0,71.75,1785095180389.9697
0.891,-0.522,0.143,-78.34,31.16,69.4,1785095180390.207
0.902,-0.537,0.139,-78.28,27.56,67.35,1785095180390.429
0.895,-0.556,0.132,-77.79,24.08,65.74,1785095180390.6528
0.886,-0.569,0.121,-77.79,21.24,64.55,1785095180390.8748
0.901,-0.575,0.103,-77.43,19.35,63.84,1785095180391.0981
0.925,-0.587,0.096,-75.72,18.59,62.87,1785095180391.315
0.938,-0.605,0.084,-71.78,18.77,61.95,1785095180391.5388
0.936,-0.631,0.07,-64.36,20.02,60.82,1785095180391.766
0.928,-0.652,0.066,-56.49,21.58,59.72,1785095180391.989
0.927,-0.651,0.08,-51.85,22.77,59.05,1785095180392.207
0.932,-0.661,0.101,-48.16,23.5,58.47,1785095180392.431
0.933,-0.701,0.119,-43.79,24.26,56.76,1785095180392.645
0.922,-0.739,0.136,-40.16,24.72,53.87,1785095180392.8508
0.908,-0.776,0.155,-37.6,24.02,50.72,1785095180393.0837
0.908,-0.818,0.176,-35.68,22.28,47.36,1785095180393.2979
0.924,-0.86,0.193,-32.81,20.29,43.73,1785095180393.514
0.934,-0.891,0.199,-27.47,18.04,39.67,1785095180393.727
0.931,-0.892,0.212,-20.66,15.59,35.43,1785095180393.9421
0.924,-0.884,0.218,-13.43,13.18,30.55,1785095180394.16
0.924,-0.884,0.218,-8.39,10.71,25.06,1785095180394.366
0.921,-0.88,0.227,-6.07,8.0,20.33,1785095180394.578
0.912,-0.883,0.243,-4.79,4.85,15.2,1785095180394.79
0.907,-0.882,0.251,-4.33,1.56,10.71,1785095180395.005
0.901,-0.881,0.232,-5.83,-1.5,5.58,1785095180395.207
0.897,-0.869,0.212,-5.83,-1.5,5.58,1785095180395.415
0.905,-0.873,0.189,-8.55,-5.22,-1.53,1785095180395.6248
0.929,-0.88,0.163,-11.6,-8.21,-10.22,1785095180395.8289
0.946,-0.888,0.159,-13.92,-9.89,-19.17,1785095180396.043
0.953,-0.903,0.166,-15.63,-11.93,-26.92,1785095180396.253
0.943,-0.915,0.165,-16.36,-14.44,-33.66,1785095180396.456
0.929,-0.911,0.175,-16.45,-16.97,-39.7,1785095180396.669
0.927,-0.907,0.189,-14.98,-19.71,-45.93,1785095180396.883
0.939,-0.908,0.187,-11.75,-22.55,-52.77,1785095180397.0981
0.943,-0.892,0.158,-8.45,-24.75,-58.87,1785095180397.301
0.938,-0.866,0.116,-6.59,-26.4,-64.15,1785095180397.519
0.94,-0.85,0.056,-5.65,-27.53,-70.31,1785095180397.7302
0.924,-0.834,0.031,-5.01,-27.38,-77.06,1785095180397.9578
0.895,-0.814,0.039,-3.48,-27.5,-83.32,1785095180398.1719
0.884,-0.779,0.049,-0.82,-28.38,-88.9,1785095180398.3848
0.886,-0.739,0.058,2.81,-29.51,-93.97,1785095180398.597
0.887,-0.706,0.055,6.29,-30.73,-99.15,1785095180398.804
0.879,-0.68,0.037,8.36,-31.8,-104.25,1785095180399.02
0.864,-0.667,0.017,9.7,-32.75,-108.65,1785095180399.235
0.85,-0.652,0.003,11.75,-33.54,-112.55,1785095180399.445
0.834,-0.631,0.001,15.41,-34.79,-116.15,1785095180399.662
0.82,-0.604,0.001,20.97,-36.53,-119.79,1785095180399.8862
0.803,-0.58,0.003,28.78,-38.64,-123.23,1785095180400.1028
0.785,-0.562,0.004,39.43,-41.11,-127.23,1785095180400.309
0.772,-0.544,-0.007,53.13,-44.13,-131.47,1785095180400.512
0.761,-0.512,-0.012,68.18,-46.88,-135.29,1785095180400.715
0.747,-0.475,-0.003,84.11,-50.45,-137.79,1785095180400.913
0.74,-0.429,-0.009,99.83,-55.57,-139.1,1785095180401.119
0.726,-0.365,-0.024,111.76,-60.34,-139.29,1785095180401.3262
0.705,-0.314,-0.039,119.54,-65.1,-138.74,1785095180401.532
0.701,-0.262,-0.074,120.76,-69.89,-138.1,1785095180401.7332
0.707,-0.174,-0.107,112.46,-73.27,-136.88,1785095180401.9358
0.717,-0.106,-0.126,99.83,-76.05,-134.31,1785095180402.138
0.73,-0.073,-0.139,86.12,-78.71,-132.42,1785095180402.336
0.739,-0.054,-0.158,73.7,-80.78,-131.57,1785095180402.533
0.751,-0.036,-0.164,62.93,-81.94,-130.38,1785095180402.742
0.773,-0.056,-0.122,46.94,-84.14,-124.42,1785095180403.3433
0.765,-0.085,-0.123,45.63,-85.88,-1573202.0,1785095180403.7112
-0.933,-0.8,-0.31,24.29,18.22,-14.34,1785095180403.913
-0.957,-0.764,-0.331,31.56,19.68,-19.78,1785095180404.1082
-0.984,-0.784,-0.378,35.8,20.36,-25.61,1785095180411.301
-1.012,-0.809,-0.425,33.91,21.76,-32.65,1785095180419.4229
-1.05,-0.814,-0.465,30.73,25.61,-39.12,1785095180427.719
-1.083,-0.799,-0.457,26.31,28.87,-43.46,1785095180441.0159
-1.098,-0.785,-0.437,24.11,30.7,-46.45,1785095180446.6611
-1.1,-0.775,-0.406,26.98,32.72,-48.92,1785095180457.434
-1.087,-0.778,-0.373,36.74,34.18,-51.0,1785095180468.104
-1.054,-0.787,-0.366,51.36,34.88,-53.07,1785095180481.3828
-1.023,-0.798,-0.361,66.38,34.64,-55.24,1785095180487.073
-0.976,-0.819,-0.345,79.56,32.26,-55.82,1785095180497.822
-0.93,-0.824,-0.361,90.55,28.99,-54.93,1785095180511.117
-0.895,-0.791,-0.353,97.84,26.28,-49.99,1785095180516.7898
-0.865,-0.767,-0.312,103.58,22.61,-41.81,1785095180527.6768
-0.84,-0.772,-0.278,110.57,18.19,-35.19,1785095180540.9138
-0.808,-0.788,-0.254,119.88,14.04,-29.94,1785095180546.722
-0.763,-0.788,-0.247,130.86,11.6,-23.83,1785095180557.677
-0.707,-0.716,-0.257,136.36,9.98,-15.56,1785095180568.309
-0.643,-0.598,-0.27,131.02,6.5,-3.66,1785095180581.552
-0.543,-0.584,-0.286,114.35,0.58,12.85,1785095180587.71
-0.494,-0.602,-0.282,88.72,-2.17,20.39,1785095180598.0151
-0.485,-0.678,-0.224,63.54,-5.04,27.28,1785095180611.26
-0.457,-0.815,-0.176,49.1,-9.03,35.8,1785095180617.191
-0.446,-0.892,-0.169,45.75,-11.84,39.67,1785095180627.6082
-0.418,-0.968,-0.212,53.59,-11.47,44.19,1785095180638.22
-0.372,-1.029,-0.234,66.41,-9.34,50.94,1785095180651.433
-0.312,-1.031,-0.232,80.23,-8.15,60.12,1785095180657.3481
-0.242,-1.002,-0.208,95.1,-5.92,70.16,1785095180667.625
-0.205,-0.987,-0.17,111.48,-1.25,75.59,1785095180678.288
-0.229,-0.998,-0.149,125.89,3.39,74.25,1785095180691.4922
-0.259,-1.008,-0.152,135.35,7.75,71.96,1785095180697.4312
-0.272,-0.993,-0.199,139.71,13.4,70.89,1785095180708.093
-0.27,-0.986,-0.266,138.86,19.84,69.03,1785095180721.3381
-0.252,-1.037,-0.311,133.73,26.49,64.33,1785095180727.437
-0.211,-1.105,-0.323,125.03,33.51,56.43,1785095180738.066
-0.169,-1.126,-0.286,114.66,40.28,48.98,1785095180751.2668
-0.141,-1.109,-0.25,103.27,46.33,44.31,1785095180756.9612
-0.14,-1.086,-0.193,91.07,51.97,40.22,1785095180767.751
-0.157,-1.07,-0.126,82.74,56.22,34.58,1785095180781.113
-0.171,-1.064,-0.068,82.37,59.72,27.71,1785095180787.0872
-0.191,-1.056,-0.005,89.57,62.32,19.96,1785095180797.586
-0.203,-1.032,0.021,101.41,63.17,11.9,1785095180808.319
-0.191,-0.977,-0.058,110.42,63.45,4.58,1785095180821.5881
-0.188,-0.901,-0.18,107.09,65.19,-1.01,1785095180827.539
-0.206,-0.88,-0.249,91.68,67.75,-5.65,1785095180837.941
-0.206,-0.88,-0.249,71.99,69.34,-10.86,1785095180851.0469
-0.229,-0.946,-0.244,55.33,70.62,-16.91,1785095180856.9421
-0.251,-1.041,-0.188,46.72,72.57,-22.46,1785095180867.653
-0.271,-1.101,-0.102,48.19,74.43,-26.83,1785095180878.29
-0.279,-1.151,-0.029,54.66,75.9,-31.68,1785095180891.542
-0.285,-1.18,0.023,54.66,75.9,-31.68,1785095180897.4622
-0.28,-1.219,0.029,62.69,76.57,-37.39,1785095180908.0168
-0.257,-1.277,0.003,68.7,76.24,-43.7,1785095180921.27
-0.193,-1.339,-0.063,70.25,76.82,-52.4,1785095180927.33
-0.277,-1.255,-0.127,61.04,76.51,-68.94,1785095180938.059
-0.258,-1.3,-0.122,47.18,72.63,-66.01,1785095180948.3608
-0.291,-1.317,-0.095,40.53,71.11,-70.41,1785095180961.642
-0.261,-1.387,-0.075,41.17,64.15,-70.5,1785095180967.77
-0.192,-1.422,-0.043,51.09,65.31,-79.62,1785095180978.071
-0.217,-1.389,-0.061,60.88,67.42,-99.06,1785095180991.309
-0.203,-1.363,-0.078,57.37,62.69,-112.31,1785095181002.354
-0.167,-1.294,-0.097,41.72,56.61,-123.26,1785095181007.816
-0.08,-1.245,-0.103,22.98,52.98,-128.91,1785095181021.2961
-0.029,-1.211,-0.129,7.93,51.52,-136.2,1785095181027.1978
-0.021,-1.218,-0.151,-3.91,48.62,-140.14,1785095181037.8052
0.007,-1.279,-0.131,-11.9,46.21,-138.28,1785095181048.474
0.013,-1.342,-0.096,-13.61,45.78,-139.87,1785095181061.703
-0.0,-1.359,-0.065,-12.24,45.53,-145.73,1785095181067.6448
-0.01,-1.345,-0.049,-11.14,45.2,-152.2,1785095181078.476
-0.01,-1.274,-0.047,-12.57,46.27,-158.76,1785095181091.697
0.015,-1.171,-0.051,-18.31,46.78,-163.95,1785095181097.614
0.063,-1.081,-0.07,-27.16,47.12,-167.21,1785095181108.4001
0.108,-1.034,-0.09,-37.75,48.25,-169.29,1785095181121.6982
0.121,-1.049,-0.092,-48.22,49.84,-170.75,1785095181127.296
0.11,-1.098,-0.07,-56.34,51.82,-172.64,1785095181138.376
0.109,-1.128,-0.042,-60.15,53.96,-174.81,1785095181151.629
0.118,-1.146,-0.01,-60.0,55.39,-177.16,1785095181157.595
0.125,-1.131,0.02,-57.59,56.52,-179.2,1785095181168.305
0.154,-1.082,0.043,-53.74,57.31,-178.66,1785095181181.533
0.188,-1.025,0.047,-50.63,57.8,-176.34,1785095181187.5908
0.192,-0.991,0.037,-50.45,58.63,-173.28,1785095181198.304
0.192,-0.967,0.026,-53.96,59.54,-170.35,1785095181211.54
0.21,-0.95,0.007,-59.42,60.79,-167.33,1785095181217.632
0.23,-0.94,-0.012,-65.0,62.81,-164.31,1785095181228.295
0.245,-0.943,-0.014,-68.79,64.67,-162.05,1785095181241.516
0.263,-0.954,-0.013,-68.39,65.61,-160.77,1785095181247.4392
0.277,-0.949,-0.016,-63.75,66.77,-160.16,1785095181258.229
0.279,-0.928,-0.021,-57.59,68.06,-160.13,1785095181271.5562
0.27,-0.898,-0.031,-51.45,69.7,-160.31,1785095181277.426
0.274,-0.874,-0.016,-46.36,70.93,-160.65,1785095181288.2332
0.289,-0.853,0.005,-40.53,71.29,-160.71,1785095181301.496
0.322,-0.818,0.03,-34.64,70.71,-159.67,1785095181307.461
0.366,-0.762,0.025,-31.19,69.19,-156.96,1785095181318.1692
0.407,-0.717,0.02,-33.57,67.35,-152.75,1785095181331.435
0.426,-0.715,0.008,-40.44,65.43,-148.69,1785095181337.468
0.422,-0.73,0.004,-49.56,64.79,-143.68,1785095181348.1118
0.421,-0.746,0.002,-58.5,64.58,-137.64,1785095181361.363
0.449,-0.753,0.012,-65.4,64.12,-130.8,1785095181367.314
0.487,-0.756,0.018,-68.79,63.6,-124.97,1785095181378.164
0.513,-0.779,0.017,-67.45,63.26,-119.82,1785095181391.351
0.513,-0.81,0.013,-62.78,62.69,-115.05,1785095181397.248
0.503,-0.814,0.037,-56.98,61.1,-109.81,1785095181408.077
0.515,-0.824,0.053,-49.04,57.71,-104.46,1785095181421.35
0.544,-0.814,0.074,-42.12,53.74,-99.98,1785095181427.238
0.55,-0.812,0.085,-36.19,49.65,-96.19,1785095181437.8518
0.549,-0.794,0.085,-33.57,45.05,-93.72,1785095181448.558
0.576,-0.77,0.097,-33.63,39.58,-91.07,1785095181461.723
0.616,-0.771,0.095,-32.78,34.06,-90.03,1785095181467.7063
0.637,-0.762,0.087,-31.62,29.85,-89.94,1785095181478.2788
0.646,-0.746,0.091,-29.02,26.12,-89.18,1785095181491.463
0.645,-0.73,0.088,-25.09,22.19,-88.78,1785095181497.3472
0.653,-0.702,0.078,-23.47,18.19,-88.56,1785095181507.9
0.677,-0.683,0.064,-24.17,14.5,-88.53,1785095181521.196
0.698,-0.67,0.05,-27.92,11.02,-89.6,1785095181527.064
0.715,-0.683,0.048,-32.53,7.6,-91.56,1785095181537.5518
0.73,-0.69,0.048,-37.54,4.18,-94.33,1785095181548.0352
0.747,-0.676,0.061,-42.15,0.92,-96.44,1785095181561.3179
0.75,-0.691,0.061,-42.42,-2.23,-98.82,1785095181567.232
0.757,-0.708,0.054,-38.82,-5.37,-102.08,1785095181577.644
0.77,-0.709,0.028,-32.69,-8.67,-105.38,1785095181588.244
0.776,-0.67,-0.003,-27.47,-11.02,-107.58,1785095181601.4888
0.777,-0.644,-0.019,-23.22,-13.4,-108.8,1785095181607.4822
0.77,-0.635,-0.043,-19.29,-16.05,-110.97,1785095181618.277
0.767,-0.61,-0.057,-15.93,-19.17,-112.09,1785095181631.467
0.771,-0.591,-0.073,-11.96,-22.71,-112.4,1785095181637.498
0.772,-0.574,-0.087,-8.24,-26.09,-113.41,1785095181648.0798
0.773,-0.552,-0.104,-4.91,-29.05,-114.66,1785095181661.3318
0.767,-0.527,-0.129,-2.32,-31.59,-115.45,1785095181667.251
0.762,-0.504,-0.149,-0.85,-34.06,-115.82,1785095181677.761
0.757,-0.492,-0.189,-0.61,-36.59,-117.22,1785095181688.4119
0.756,-0.471,-0.221,-1.1,-38.42,-119.82,1785095181701.667
0.749,-0.449,-0.257,-0.27,-39.92,-122.47,1785095181707.667
0.746,-0.408,-0.273,-0.24,-40.19,-123.57,1785095181718.135
0.746,-0.37,-0.266,-0.61,-40.65,-124.24,1785095181731.366
0.741,-0.336,-0.248,-1.4,-41.72,-125.61,1785095181737.33
0.73,-0.308,-0.232,-1.56,-43.49,-128.48,1785095181747.823
0.717,-0.275,-0.233,-1.56,-45.78,-130.59,1785095181758.443
0.714,-0.227,-0.246,-1.46,-47.98,-130.68,1785095181771.71
0.7,-0.175,-0.278,-1.07,-49.5,-131.08,1785095181777.635
0.686,-0.146,-0.32,0.49,-50.48,-131.84,1785095181788.205
0.673,-0.155,-0.365,3.08,-50.23,-133.18,1785095181801.426
0.651,-0.169,-0.359,5.07,-49.5,-134.07,1785095181807.4429
0.66,-0.185,-0.338,8.27,-50.45,-133.46,1785095181817.8967
0.686,-0.186,-0.32,13.98,-52.34,-132.91,1785095181831.1438
0.711,-0.161,-0.299,21.91,-54.99,-132.36,1785095181837.0837
0.729,-0.113,-0.291,31.13,-58.35,-132.11,1785095181847.847
0.746,-0.069,-0.291,41.44,-61.56,-132.48,1785095181861.1519
0.746,-0.04,-0.304,50.51,-64.15,-132.85,1785095181867.0298
0.731,-0.004,-0.348,55.64,-66.47,-132.73,1785095181877.814
0.713,0.027,-0.408,58.5,-68.15,-132.63,1785095181891.0679
0.687,0.059,-0.44,58.66,-68.58,-131.41,1785095181896.996
0.674,0.068,-0.443,55.48,-69.12,-128.15,1785095181907.7693
0.674,0.052,-0.428,51.91,-70.99,-124.97,1785095181921.05
0.674,0.039,-0.428,49.62,-73.31,-123.36,1785095181926.62
0.679,0.063,-0.423,47.3,-75.66,-122.96,1785095181937.8271
0.676,0.089,-0.428,46.75,-78.98,-123.75,1785095181948.617
0.654,0.137,-0.445,47.49,-81.97,-125.03,1785095181961.818
0.633,0.205,-0.466,48.77,-84.48,-124.61,1785095181967.769
0.614,0.254,-0.506,48.89,-86.09,-123.36,1785095181978.2588
0.589,0.307,-0.563,45.63,-86.79,-122.01,1785095181991.693
0.563,0.359,-0.634,41.2,-85.97,-119.48,1785095181997.625
0.541,0.401,-0.672,36.93,-83.5,-115.09,1785095182008.438
0.535,0.412,-0.69,33.91,-80.14,-109.26,1785095182021.709
0.552,0.405,-0.699,30.46,-75.81,-102.79,1785095182027.68
0.559,0.38,-0.681,26.7,-71.35,-96.65,1785095182038.343
0.543,0.35,-0.672,26.58,-67.78,-91.53,1785095182051.5552
0.527,0.364,-0.703,31.65,-64.55,-86.89,1785095182057.48
0.518,0.433,-0.744,42.21,-60.49,-80.39,1785095182068.0032
0.508,0.491,-0.786,56.83,-55.45,-72.3,1785095182081.2568
0.503,0.508,-0.843,70.56,-49.62,-65.13,1785095182087.2642
0.483,0.535,-0.939,76.85,-42.73,-59.08,1785095182097.677
0.461,0.584,-1.006,75.66,-34.36,-51.21,1785095182108.347
0.449,0.606,-1.046,73.31,-26.15,-42.54,1785095182121.559
0.452,0.619,-1.071,71.57,-18.37,-35.37,1785095182127.177
0.452,0.619,-1.071,70.53,-10.8,-28.84,1785095182138.1272
0.461,0.634,-1.084,70.99,-2.75,-21.91,1785095182151.289
0.457,0.64,-1.09,72.18,5.68,-14.95,1785095182157.223
0.442,0.646,-1.103,74.04,14.5,-7.97,1785095182167.5022
0.428,0.661,-1.109,74.04,14.5,-7.97,1785095182178.075
0.412,0.657,-1.091,76.78,23.22,-1.04,1785095182191.3118
0.395,0.632,-1.088,78.4,31.89,5.19,1785095182197.2659
0.386,0.615,-1.089,76.3,40.47,11.2,1785095182207.581
0.387,0.607,-1.084,71.9,48.37,17.18,1785095182218.2268
0.404,0.6,-1.078,67.23,55.3,22.92,1785095182231.494
0.41,0.585,-1.051,63.39,61.62,28.66,1785095182237.499
0.416,0.566,-1.028,60.12,66.84,34.15,1785095182247.684
0.429,0.556,-1.022,54.84,71.66,38.82,1785095182261.291
0.451,0.565,-0.999,44.47,76.57,43.43,1785095182267.072
0.499,0.547,-0.974,33.33,80.63,48.34,1785095182277.674
0.554,0.51,-0.95,21.7,84.66,52.74,1785095182288.378
0.606,0.475,-0.924,10.35,88.78,57.95,1785095182301.518
0.636,0.419,-0.901,1.46,92.56,64.24,1785095182307.5042
0.645,0.368,-0.893,-4.39,96.59,70.74,1785095182317.855
0.641,0.307,-0.851,-5.31,101.32,77.39,1785095182328.5151
0.633,0.22,-0.81,-2.72,105.14,82.0,1785095182341.717
0.632,0.161,-0.766,-1.28,108.49,84.17,1785095182347.614
0.651,0.131,-0.73,-0.15,111.36,85.97,1785095182358.229
0.691,0.124,-0.697,0.46,114.35,87.34,1785095182371.4558
0.736,0.119,-0.668,0.85,117.89,89.02,1785095182377.3132
0.762,0.099,-0.645,0.4,122.44,91.01,1785095182387.8982
0.77,0.071,-0.621,-2.29,127.54,92.99,1785095182398.4749
0.768,0.056,-0.608,-8.48,132.6,94.91,1785095182411.818
0.744,0.06,-0.59,-19.01,137.52,98.39,1785095182417.748
0.712,0.052,-0.552,-31.65,141.21,101.84,1785095182428.544
0.696,0.031,-0.479,-43.46,143.83,103.61,1785095182441.7888
0.726,-0.002,-0.416,-53.16,145.76,103.7,1785095182447.7173
0.767,-0.042,-0.38,-61.19,149.05,102.66,1785095182461.1453
0.783,-0.078,-0.336,-68.15,153.72,103.0,1785095182467.819
0.781,-0.117,-0.293,-72.36,157.6,104.71,1785095182478.2842
0.779,-0.16,-0.259,-74.77,160.13,105.66,1785095182491.447
0.78,-0.184,-0.243,-77.97,161.32,105.62,1785095182497.302
0.784,-0.191,-0.217,-83.9,162.82,106.54,1785095182508.354
0.777,-0.223,-0.175,-90.0,164.01,107.46,1785095182521.74
0.786,-0.268,-0.12,-93.69,165.11,107.88,1785095182527.597
0.804,-0.322,-0.065,-92.72,166.11,108.31,1785095182541.0308
0.812,-0.369,0.001,-89.42,166.94,108.55,1785095182547.0222
0.822,-0.417,0.085,-85.18,165.99,108.25,1785095182558.002
0.842,-0.45,0.141,-81.18,162.63,106.3,1785095182571.3123
0.855,-0.476,0.185,-76.75,158.51,103.61,1785095182577.198
0.858,-0.5,0.221,-71.14,154.0,100.47,1785095182588.1392
0.863,-0.53,0.243,-65.1,148.66,95.55,1785095182601.5579
0.875,-0.549,0.256,-60.85,143.38,88.84,1785095182607.465
0.877,-0.556,0.3,-59.85,138.1,82.55,1785095182617.912
0.881,-0.576,0.342,-60.09,131.5,76.91,1785095182631.166
0.888,-0.595,0.39,-60.76,123.42,70.53,1785095182637.4028
0.897,-0.617,0.434,-59.94,114.05,63.26,1785095182647.952
0.908,-0.642,0.489,-58.81,103.58,55.51,1785095182661.3718
0.922,-0.673,0.543,-58.02,91.68,47.46,1785095182667.288
0.933,-0.709,0.569,-57.28,79.68,39.46,1785095182677.9001
0.929,-0.741,0.59,-56.22,69.03,30.37,1785095182691.138
0.924,-0.783,0.578,-53.16,57.47,21.7,1785095182697.132
1.003,-0.831,0.563,-50.81,47.18,18.22,1785095182707.603
0.971,-0.765,0.544,-48.13,35.58,6.68,1785095182718.1958
0.952,-0.74,0.549,-43.4,27.99,-2.66,1785095182731.3962
0.986,-0.784,0.55,-39.77,20.42,-7.48,1785095182737.346
1.0,-0.781,0.557,-34.36,11.54,-12.51,1785095182747.6953
0.997,-0.751,0.551,-24.51,5.07,-21.64,1785095182758.2888
1.01,-0.738,0.529,-17.52,-1.16,-29.05,1785095182771.544
0.997,-0.706,0.513,-15.96,-7.39,-35.0,1785095182777.418
0.984,-0.678,0.51,-14.65,-12.73,-41.32,1785095182787.7
0.988,-0.683,0.494,-12.27,-18.34,-46.69,1785095182798.4277
0.972,-0.664,0.469,-10.62,-23.87,-52.03,1785095182811.696
0.967,-0.611,0.433,-9.0,-28.6,-57.04,1785095182817.644
0.976,-0.585,0.399,-7.08,-32.59,-61.59,1785095182827.937
0.98,-0.575,0.371,-5.55,-35.77,-66.62,1785095182841.213
0.972,-0.556,0.356,-4.15,-38.97,-71.05,1785095182847.0881
0.96,-0.531,0.351,-1.95,-42.54,-75.01,1785095182857.418
0.961,-0.499,0.346,1.04,-46.57,-79.26,1785095182867.9668
0.96,-0.467,0.335,4.33,-50.45,-83.68,1785095182881.2402
0.954,-0.441,0.328,8.21,-54.51,-87.62,1785095182887.1482
0.955,-0.421,0.301,12.57,-59.05,-91.4,1785095182897.534
0.962,-0.381,0.265,16.14,-63.63,-94.91,1785095182908.19
0.961,-0.334,0.227,18.65,-67.54,-98.54,1785095182921.782
0.951,-0.29,0.195,19.07,-70.86,-102.15,1785095182927.572
0.945,-0.25,0.167,16.48,-73.89,-104.71,1785095182938.1409
0.934,-0.224,0.135,13.03,-76.33,-107.06,1785095182951.306
0.913,-0.214,0.104,8.73,-78.37,-108.86,1785095182956.94
0.892,-0.209,0.087,4.09,-80.54,-110.2,1785095182967.854
0.894,-0.195,0.075,0.21,-83.01,-111.79,1785095182978.5002
0.905,-0.17,0.056,-1.37,-84.87,-113.47,1785095182991.726
0.905,-0.133,0.025,-0.58,-85.97,-115.05,1785095182997.64
0.893,-0.098,0.005,2.35,-87.04,-116.4,1785095183008.29
0.874,-0.071,-0.021,5.65,-88.41,-117.25,1785095183021.478
0.849,-0.049,-0.049,8.09,-89.27,-117.31,1785095183027.4072
0.821,-0.038,-0.079,9.89,-90.21,-117.31,1785095183038.0
0.794,-0.029,-0.096,10.93,-91.46,-118.08,1785095183051.125
0.788,-0.021,-0.108,12.57,-92.96,-118.99,1785095183057.1157
0.789,-0.013,-0.125,14.65,-94.3,-119.36,1785095183067.8699
0.791,0.005,-0.154,15.75,-95.1,-119.51,1785095183081.0781
0.777,0.029,-0.169,14.1,-95.16,-119.97,1785095183087.096
0.753,0.038,-0.166,11.23,-96.26,-120.76,1785095183097.814
0.736,0.045,-0.161,10.28,-98.15,-122.32,1785095183108.5352
0.713,0.076,-0.167,11.41,-99.83,-124.18,1785095183121.8682
0.682,0.104,-0.176,13.73,-100.99,-124.91,1785095183127.491
0.656,0.121,-0.213,15.26,-102.73,-125.95,1785095183141.1462
0.642,0.165,-0.251,13.82,-103.82,-126.71,1785095183147.0918
0.63,0.19,-0.287,12.67,-104.31,-127.05,1785095183158.1108
0.62,0.211,-0.304,9.06,-104.22,-127.96,1785095183171.362
0.608,0.236,-0.309,4.91,-104.07,-128.51,1785095183177.2512
0.594,0.253,-0.312,1.22,-103.46,-128.97,1785095183188.077
0.572,0.259,-0.314,-2.99,-103.12,-129.49,1785095183201.304
0.56,0.188,-0.307,-5.83,-102.15,-129.12,1785095183207.262
0.544,0.318,-0.351,-3.63,-101.32,-127.9,1785095183218.014
0.519,0.42,-0.427,-8.36,-101.63,-128.48,1785095183231.241
0.526,0.437,-0.457,-17.55,-97.11,-127.57,1785095183237.3318
0.502,0.486,-0.47,-20.66,-91.68,-127.96,1785095183247.9849
0.529,0.507,-0.469,-20.75,-87.25,-121.8,1785095183261.2568
0.481,0.534,-0.44,-18.43,-82.28,-117.37,1785095183267.189
0.507,0.482,-0.449,-11.23,-75.05,-109.32,1785095183277.958
0.494,0.53,-0.484,-2.93,-71.44,-107.79,1785095183291.2441
0.478,0.585,-0.52,7.42,-68.45,-103.52,1785095183297.127
0.482,0.591,-0.562,18.31,-62.72,-96.29,1785095183307.6511
0.483,0.643,-0.584,28.38,-57.71,-90.55,1785095183318.337
0.474,0.7,-0.625,38.82,-55.91,-85.42,1785095183331.5671
0.448,0.763,-0.677,44.65,-51.67,-78.92,1785095183337.604
0.441,0.819,-0.701,47.3,-44.19,-68.61,1785095183347.9878
0.462,0.854,-0.719,49.44,-38.51,-58.99,1785095183361.2668
0.442,0.888,-0.746,49.96,-34.64,-52.16,1785095183367.2068
0.422,0.911,-0.756,50.72,-27.47,-47.03,1785095183377.727
0.41,0.897,-0.761,53.04,-23.41,-40.04,1785095183388.3618
0.447,0.875,-0.761,55.91,-19.41,-31.71,1785095183401.6099
0.461,0.872,-0.77,58.5,-14.07,-25.39,1785095183407.603
0.461,0.872,-0.77,58.29,-9.74,-19.29,1785095183417.9639
0.451,0.903,-0.821,53.59,-5.28,-11.51,1785095183428.5068
0.423,0.956,-0.862,48.77,0.18,-3.3,1785095183441.755
0.411,0.953,-0.876,43.76,6.23,2.78,1785095183447.5698
0.412,0.936,-0.892,43.76,6.23,2.78,1785095183457.686
0.412,0.94,-0.892,39.92,12.02,8.55,1785095183468.239
0.429,0.921,-0.891,38.88,16.42,14.44,1785095183481.5203
0.449,0.906,-0.887,37.66,19.84,19.01,1785095183487.572
0.461,0.902,-0.893,34.88,21.94,24.38,1785095183497.952
0.466,0.894,-0.89,32.35,24.75,30.79,1785095183511.272
0.473,0.883,-0.884,31.46,27.65,37.08,1785095183517.185
0.478,0.872,-0.879,30.55,29.91,42.02,1785095183527.6843
0.477,0.839,-0.866,27.8,32.53,46.94,1785095183538.312
0.48,0.801,-0.853,23.13,36.1,51.39,1785095183551.548
0.492,0.784,-0.828,18.98,39.55,56.25,1785095183557.539
0.514,0.778,-0.818,16.17,42.09,62.84,1785095183568.0
0.528,0.778,-0.813,12.42,45.01,70.19,1785095183581.2422
0.522,0.746,-0.8,7.84,48.28,77.03,1785095183587.271
0.5,0.709,-0.782,2.72,51.36,82.09,1785095183597.5208
0.488,0.685,-0.769,-1.86,53.77,86.79,1785095183608.1338
0.493,0.678,-0.749,-4.88,56.09,92.26,1785095183621.4578
0.524,0.657,-0.742,-5.86,58.87,97.6,1785095183627.296
0.551,0.627,-0.72,-6.9,62.35,101.9,1785095183637.664
0.585,0.592,-0.702,-7.66,65.8,106.48,1785095183648.376
0.593,0.552,-0.699,-8.48,69.61,111.18,1785095183661.525
0.595,0.499,-0.665,-10.13,76.08,117.01,1785095183667.271
0.6,0.449,-0.661,-10.5,79.56,121.49,1785095183678.216
0.62,0.409,-0.642,-9.16,80.6,126.83,1785095183691.409
0.63,0.394,-0.63,-7.45,83.16,130.34,1785095183697.365
0.65,0.394,-0.624,-6.93,85.45,133.82,1785095183707.9302
0.666,0.371,-0.615,-7.08,86.43,135.56,1785095183718.4849
0.669,0.337,-0.592,-10.38,91.19,135.75,1785095183731.761
0.69,0.28,-0.528,-13.76,98.21,139.35,1785095183737.7798
0.724,0.199,-0.474,-14.98,102.82,142.95,1785095183751.005
0.73,0.141,-0.444,-15.44,105.44,144.23,1785095183756.968
0.721,0.097,-0.442,-14.89,108.1,146.79,1785095183768.01
0.716,0.076,-0.447,-14.53,111.58,148.26,1785095183781.254
0.71,0.069,-0.443,-14.89,114.63,148.32,1785095183787.185
0.725,0.051,-0.42,-15.5,116.67,148.14,1785095183798.208
0.752,0.017,-0.379,-15.59,119.42,146.79,1785095183811.438
0.776,-0.029,-0.341,-14.95,123.23,145.6,1785095183817.4038
0.788,-0.074,-0.295,-13.15,127.26,146.03,1785095183828.429
0.792,-0.121,-0.248,-10.16,130.86,147.1,1785095183841.654
0.801,-0.168,-0.203,-7.6,134.04,147.65,1785095183847.6228
0.812,-0.215,-0.175,-5.34,135.93,147.71,1785095183858.456
0.813,-0.251,-0.142,-2.38,137.61,146.79,1785095183871.742
0.812,-0.286,-0.108,0.58,139.53,144.99,1785095183877.655
0.822,-0.332,-0.076,2.72,140.87,142.55,1785095183888.4448
0.822,-0.378,-0.04,4.24,141.97,138.95,1785095183901.7542
0.825,-0.416,0.01,6.71,143.96,134.65,1785095183907.5542
0.83,-0.461,0.057,9.22,144.66,129.98,1785095183918.404
0.837,-0.503,0.102,9.0,143.59,124.64,1785095183931.773
0.843,-0.551,0.174,7.45,140.9,117.98,1785095183938.19
0.857,-0.602,0.247,5.4,136.48,109.53,1785095183948.438
0.865,-0.649,0.3,2.14,130.71,100.31,1785095183961.505
0.862,-0.691,0.359,-1.77,123.63,91.04,1785095183967.864
0.856,-0.726,0.4,-4.18,115.57,80.69,1785095183978.2368
0.855,-0.763,0.426,-4.15,107.91,69.25,1785095183991.552
0.818,-0.785,0.465,-4.3,100.1,57.71,1785095183997.401
0.855,-0.797,0.522,-5.55,92.23,46.75,1785095184007.797
0.88,-0.82,0.574,-6.5,79.65,36.9,1785095184018.355
0.89,-0.833,0.602,-7.29,67.54,25.51,1785095184031.575
0.886,-0.83,0.614,-8.18,56.76,12.05,1785095184037.78
0.895,-0.828,0.637,-11.57,45.72,1.83,1785095184048.11
0.904,-0.816,0.656,-15.5,34.24,-8.3,1785095184058.1902
0.913,-0.807,0.663,-17.0,23.26,-17.7,1785095184071.666
0.92,-0.784,0.659,-16.48,13.61,-26.12,1785095184077.5293
0.934,-0.744,0.643,-15.2,4.52,-34.39,1785095184088.043
0.948,-0.706,0.617,-13.4,-4.73,-42.27,1785095184098.487
0.959,-0.686,0.59,-11.26,-12.15,-48.98,1785095184111.829
0.968,-0.653,0.559,-9.03,-17.52,-55.88,1785095184117.812
0.978,-0.609,0.529,-6.78,-22.55,-62.07,1785095184128.0032
0.986,-0.574,0.502,-4.27,-27.47,-65.8,1785095184141.3171
0.984,-0.529,0.475,-1.5,-31.74,-68.21,1785095184147.1628
0.974,-0.484,0.449,1.83,-35.4,-70.65,1785095184157.523
0.971,-0.449,0.43,4.94,-38.7,-72.73,1785095184168.0442
0.967,-0.427,0.41,8.33,-41.66,-74.68,1785095184181.267
0.959,-0.411,0.389,12.3,-44.62,-76.33,1785095184187.244
0.96,-0.39,0.362,15.02,-47.76,-77.94,1785095184197.639
0.974,-0.359,0.335,16.85,-51.18,-79.41,1785095184208.38
0.982,-0.323,0.304,17.91,-54.2,-80.97,1785095184221.6033
0.976,-0.285,0.279,18.56,-56.79,-82.03,1785095184227.51
0.957,-0.254,0.251,18.77,-59.27,-83.07,1785095184238.056
0.94,-0.232,0.233,18.31,-61.62,-84.14,1785095184251.2222
0.931,-0.222,0.229,18.52,-64.09,-85.27,1785095184257.24
0.928,-0.228,0.225,19.14,-66.99,-86.83,1785095184267.727
0.923,-0.23,0.206,19.78,-70.25,-88.53,1785095184278.34
0.917,-0.214,0.173,20.39,-73.64,-89.94,1785095184291.59
0.917,-0.181,0.131,21.09,-76.97,-91.34,1785095184297.525
0.92,-0.137,0.091,21.73,-79.71,-93.26,1785095184308.1138
0.915,-0.106,0.059,22.46,-81.61,-95.1,1785095184321.375
0.89,-0.082,0.031,22.43,-83.47,-96.71,1785095184327.369
0.857,-0.058,0.009,21.82,-85.15,-97.93,1785095184337.95
0.833,-0.045,0.002,21.7,-87.07,-99.0,1785095184348.4048
0.826,-0.05,-0.007,21.85,-89.02,-100.62,1785095184361.6772
0.828,-0.051,-0.02,20.33,-91.43,-102.42,1785095184368.8628
0.829,-0.031,-0.037,18.28,-94.52,-103.79,1785095184378.393
0.824,-0.01,-0.071,17.88,-97.84,-105.23,1785095184391.696
0.809,0.027,-0.113,17.64,-100.47,-107.06,1785095184397.6692
0.791,0.071,-0.152,17.82,-102.48,-108.65,1785095184408.611
0.77,0.098,-0.177,18.28,-103.67,-109.78,1785095184421.886
0.745,0.117,-0.189,18.74,-104.34,-110.9,1785095184427.848
0.725,0.124,-0.192,20.02,-105.23,-111.64,1785095184441.233
0.72,0.128,-0.201,22.64,-107.0,-111.97,1785095184447.136
0.724,0.161,-0.239,24.05,-109.2,-112.83,1785095184458.2532
0.718,0.217,-0.277,23.19,-111.12,-113.99,1785095184471.467
0.704,0.265,-0.318,21.67,-113.07,-114.87,1785095184477.36
0.688,0.316,-0.359,16.36,-113.47,-115.73,1785095184488.429
0.668,0.339,-0.371,7.93,-113.28,-116.55,1785095184501.628
0.65,0.327,-0.384,0.55,-112.58,-117.83,1785095184507.7761
0.634,0.325,-0.408,-5.19,-111.24,-118.63,1785095184518.36
0.621,0.358,-0.435,-8.0,-109.68,-117.34,1785095184531.632
0.621,0.395,-0.457,-6.81,-107.94,-114.81,1785095184537.67
0.596,0.424,-0.529,-6.65,-105.56,-112.64,1785095184548.3142
0.549,0.476,-0.546,-11.69,-101.54,-110.9,1785095184561.5781
0.56,0.522,-0.565,-15.17,-99.09,-107.94,1785095184567.5142
0.572,0.567,-0.599,-14.59,-93.33,-106.63,1785095184578.392
0.565,0.596,-0.607,-16.69,-86.83,-103.85,1785095184591.6182
0.562,0.606,-0.603,-21.0,-80.05,-100.34,1785095184597.617
0.565,0.619,-0.618,-25.51,-72.85,-95.03,1785095184608.331
0.552,0.661,-0.624,-28.87,-67.02,-89.14,1785095184621.576
0.532,0.688,-0.661,-26.18,-61.59,-83.35,1785095184627.445
0.51,0.732,-0.688,-19.32,-56.0,-79.04,1785095184638.082
0.505,0.765,-0.694,-8.88,-50.66,-73.7,1785095184648.567
0.505,0.779,-0.705,3.2,-45.14,-68.12,1785095184661.755
0.496,0.818,-0.715,12.67,-39.98,-61.62,1785095184667.714
0.487,0.86,-0.738,19.01,-34.76,-53.35,1785095184678.1929
0.484,0.897,-0.772,21.15,-28.81,-44.59,1785095184691.409
0.484,0.897,-0.772,19.01,-21.94,-35.43,1785095184697.3179
0.493,0.937,-0.785,17.24,-14.37,-25.54,1785095184707.813
0.494,0.958,-0.794,16.85,-6.71,-14.89,1785095184718.423
0.485,0.982,-0.834,15.08,0.12,-4.82,1785095184731.575
0.489,1.004,-0.827,15.81,8.88,3.14,1785095184737.486
0.505,0.966,-0.82,15.81,8.88,3.14,1785095184747.521
0.508,0.947,-0.815,15.84,15.2,10.5,1785095184758.16
0.513,0.959,-0.799,17.49,21.09,19.56,1785095184771.44
0.526,0.951,-0.796,21.91,27.53,30.34,1785095184777.375
0.533,0.938,-0.785,25.27,33.39,39.98,1785095184787.8708
0.542,0.918,-0.761,27.53,38.45,49.38,1785095184798.511
0.558,0.891,-0.745,29.54,42.73,57.89,1785095184811.8247
0.567,0.874,-0.748,28.72,46.33,65.1,1785095184817.77
0.563,0.872,-0.745,24.14,49.32,72.21,1785095184828.243
0.554,0.869,-0.734,17.24,52.03,79.9,1785095184841.4878
0.545,0.845,-0.724,8.51,54.96,87.01,1785095184847.46
0.542,0.812,-0.703,-0.92,58.6,93.39,1785095184857.7769
0.552,0.766,-0.659,-7.51,61.53,100.16,1785095184868.4958
0.573,0.722,-0.608,-10.71,63.17,106.11,1785095184881.7039
0.609,0.676,-0.561,-11.05,64.24,111.24,1785095184887.6282
0.633,0.616,-0.544,-10.71,65.31,115.7,1785095184898.3918
0.627,0.565,-0.523,-11.29,66.07,120.43,1785095184911.629
0.618,0.514,-0.518,-11.08,66.13,125.86,1785095184917.639
0.601,0.483,-0.507,-11.38,66.87,130.89,1785095184928.374
0.596,0.442,-0.487,-12.09,67.23,135.65,1785095184941.489
0.617,0.404,-0.491,-14.1,67.54,138.52,1785095184947.5688
0.65,0.394,-0.483,-16.79,68.73,141.48,1785095184958.245
0.683,0.374,-0.455,-17.49,70.77,145.79,1785095184971.695
0.71,0.328,-0.439,-18.13,73.46,149.51,1785095184977.5842
0.723,0.279,-0.414,-20.97,76.72,152.84,1785095184988.3718
0.733,0.211,-0.386,-23.59,79.26,156.65,1785095185001.631
0.735,0.132,-0.377,-25.09,81.45,159.55,1785095185007.565
0.73,0.078,-0.363,-26.09,83.53,162.54,1785095185018.3198
0.733,0.034,-0.353,-25.03,85.36,165.07,1785095185031.538
0.74,0.0,-0.352,-23.1,87.89,166.08,1785095185037.5923
0.757,-0.029,-0.347,-20.75,92.87,165.41,1785095185048.255
0.755,-0.062,-0.335,-17.7,97.75,165.62,1785095185061.4678
0.766,-0.125,-0.292,-14.37,105.14,166.23,1785095185067.487
0.802,-0.201,-0.255,-12.82,109.44,164.43,1785095185078.389
0.826,-0.266,-0.198,-13.28,110.84,164.8,1785095185091.66
0.842,-0.324,-0.153,-10.99,113.47,165.32,1785095185097.6428
0.843,-0.355,-0.129,-5.46,116.4,163.85,1785095185108.522
0.838,-0.367,-0.1,1.37,118.59,160.04,1785095185121.908
0.839,-0.381,-0.072,7.02,119.91,153.54,1785095185127.735
0.844,-0.406,-0.035,8.88,121.19,146.55,1785095185138.5479
0.844,-0.457,0.012,8.79,122.35,140.81,1785095185151.712
0.843,-0.52,0.068,8.48,122.56,135.11,1785095185157.708
0.84,-0.57,0.111,8.91,121.71,129.34,1785095185168.4412
0.837,-0.589,0.138,8.85,120.03,123.23,1785095185181.678
0.836,-0.609,0.173,9.7,116.76,116.61,1785095185187.731
0.835,-0.637,0.215,10.56,111.73,107.88,1785095185198.5103
0.839,-0.659,0.281,8.76,105.44,96.87,1785095185211.663
0.856,-0.689,0.321,5.16,97.35,84.84,1785095185217.398
0.873,-0.701,0.352,0.7,88.5,72.7,1785095185227.8
0.876,-0.688,0.379,-2.41,79.62,62.07,1785095185241.228
0.873,-0.685,0.406,-4.85,70.71,53.38,1785095185246.989
0.878,-0.683,0.446,-9.46,62.23,45.78,1785095185257.169
0.863,-0.696,0.451,-13.21,53.13,40.35,1785095185267.841
0.939,-0.756,0.469,-16.24,47.09,40.31,1785095185281.445
0.918,-0.696,0.459,-20.23,34.49,24.99,1785095185287.53
0.887,-0.715,0.474,-22.83,27.83,13.37,1785095185297.838
0.945,-0.824,0.474,-26.49,21.42,9.8,1785095185308.3909
0.97,-0.832,0.491,-29.36,14.1,3.17,1785095185321.7358
0.94,-0.807,0.483,-26.98,9.31,-6.23,1785095185327.6128
0.944,-0.814,0.469,-25.79,4.94,-14.04,1785095185337.8381
