ax,ay,az,gx,gy,gz,timestamp_ms
-0.783,-0.555,-0.416,4.7,6.9,-11.75,1785094777685.234
-0.769,-0.575,-0.396,-0.58,6.71,-11.96,1785094777685.7842
-0.759,-0.584,-0.375,-1.89,6.1,-13.03,1785094777686.22
-0.751,-0.588,-0.364,-0.46,5.46,-13.12,1785094777686.6372
-0.751,-0.597,-0.359,2.99,4.58,-13.15,1785094777687.04
-0.758,-0.606,-0.358,7.35,3.72,-13.73,1785094777687.788
-0.76,-0.611,-0.349,11.32,2.2,-13.89,1785094777688.215
-0.759,-0.628,-0.356,15.56,0.79,-14.22,1785094777688.6443
-0.755,-0.648,-0.36,20.23,0.0,-15.05,1785094777689.056
-0.748,-0.652,-0.362,25.67,-1.04,-15.35,1785094777689.471
-0.739,-0.641,-0.358,30.98,-2.26,-14.53,1785094777689.85
-0.72,-0.632,-0.351,34.67,-3.48,-13.25,1785094777690.1938
-0.704,-0.63,-0.344,36.68,-4.91,-13.0,1785094777690.53
-0.7,-0.621,-0.341,37.39,-5.74,-12.48,1785094777690.871
-0.697,-0.61,-0.33,37.57,-6.35,-11.38,1785094777691.214
-0.691,-0.606,-0.333,37.9,-7.26,-10.99,1785094777691.5671
-0.69,-0.609,-0.342,37.78,-7.63,-10.9,1785094777691.911
-0.695,-0.617,-0.348,36.44,-8.09,-10.35,1785094777692.2751
-0.7,-0.638,-0.347,32.84,-9.0,-8.7,1785094777692.656
-0.7,-0.655,-0.342,26.46,-10.07,-6.59,1785094777692.9973
-0.702,-0.665,-0.356,17.46,-10.22,-3.66,1785094777693.341
-0.703,-0.662,-0.371,5.07,-9.4,0.18,1785094777693.68
-0.694,-0.645,-0.365,-7.81,-8.82,4.24,1785094777694.014
-0.683,-0.622,-0.348,-15.2,-8.67,6.87,1785094777694.347
-0.677,-0.605,-0.331,-14.1,-8.21,7.72,1785094777694.707
-0.673,-0.614,-0.333,-5.77,-7.23,6.47,1785094777695.067
-0.675,-0.633,-0.352,6.13,-5.46,2.99,1785094777695.4062
-0.672,-0.654,-0.368,17.91,-3.85,-0.67,1785094777695.752
-0.664,-0.663,-0.382,26.86,-2.56,-3.33,1785094777696.0928
-0.659,-0.649,-0.388,31.59,-1.28,-3.72,1785094777696.4539
-0.652,-0.629,-0.383,32.84,-0.7,-2.35,1785094777696.814
-0.645,-0.608,-0.365,31.68,-0.85,-0.76,1785094777697.175
-0.633,-0.591,-0.345,28.5,-1.59,0.73,1785094777697.544
-0.621,-0.593,-0.334,26.12,-2.08,1.53,1785094777697.8418
-0.617,-0.598,-0.327,25.15,-2.23,1.28,1785094777698.136
-0.616,-0.598,-0.322,24.57,-2.96,1.13,1785094777698.435
-0.618,-0.604,-0.317,24.48,-3.54,1.01,1785094777698.7441
-0.616,-0.593,-0.328,22.74,-3.97,1.53,1785094777699.032
-0.615,-0.577,-0.338,19.26,-4.61,2.59,1785094777699.327
-0.607,-0.582,-0.34,15.53,-5.92,2.84,1785094777699.6238
-0.606,-0.589,-0.328,11.84,-7.45,2.11,1785094777699.915
-0.607,-0.594,-0.317,9.55,-9.22,2.5,1785094777700.216
-0.608,-0.589,-0.325,7.17,-10.62,3.66,1785094777700.5159
-0.615,-0.575,-0.332,4.12,-11.63,5.58,1785094777700.809
-0.619,-0.57,-0.341,0.76,-12.54,7.57,1785094777701.092
-0.62,-0.572,-0.344,-3.11,-13.0,8.82,1785094777701.455
-0.625,-0.573,-0.326,-6.53,-13.76,10.25,1785094777701.7542
-0.629,-0.561,-0.305,-9.77,-15.38,12.36,1785094777702.083
-0.63,-0.554,-0.298,-12.09,-17.06,14.56,1785094777702.406
-0.637,-0.559,-0.308,-13.79,-18.28,16.24,1785094777702.739
-0.652,-0.562,-0.324,-16.54,-19.44,17.98,1785094777703.036
-0.652,-0.566,-0.345,-20.6,-20.2,20.51,1785094777703.3333
-0.651,-0.554,-0.378,-25.94,-19.9,22.95,1785094777703.635
-0.651,-0.534,-0.405,-31.77,-18.13,26.0,1785094777703.9348
-0.647,-0.535,-0.432,-37.39,-15.81,29.21,1785094777704.236
-0.651,-0.56,-0.441,-41.87,-13.0,31.1,1785094777704.545
-0.655,-0.599,-0.411,-42.6,-9.77,31.65,1785094777704.89
-0.653,-0.661,-0.363,-36.71,-6.56,31.31,1785094777705.248
-0.659,-0.738,-0.309,-22.37,-2.81,30.06,1785094777705.515
-0.674,-0.802,-0.266,-0.95,1.07,28.87,1785094777705.7732
-0.683,-0.833,-0.245,25.18,4.58,29.08,1785094777706.053
-0.69,-0.819,-0.259,52.46,7.57,30.06,1785094777706.324
-0.695,-0.779,-0.297,76.78,9.83,31.89,1785094777706.5752
-0.697,-0.724,-0.346,94.91,12.57,34.46,1785094777706.86
-0.703,-0.678,-0.384,107.09,16.02,36.56,1785094777707.1272
-0.713,-0.652,-0.41,113.56,19.44,37.39,1785094777707.383
-0.721,-0.638,-0.414,114.63,22.71,38.12,1785094777707.66
-0.722,-0.629,-0.398,111.09,25.88,38.24,1785094777707.926
-0.722,-0.635,-0.374,104.04,28.81,37.81,1785094777708.2
-0.731,-0.653,-0.346,95.25,31.04,35.95,1785094777708.4548
-0.747,-0.684,-0.325,87.47,32.29,33.88,1785094777708.732
-0.762,-0.709,-0.307,82.71,32.75,32.44,1785094777708.997
-0.775,-0.708,-0.298,81.21,32.96,31.25,1785094777709.2842
-0.772,-0.7,-0.29,81.58,32.56,30.49,1785094777709.539
-0.766,-0.679,-0.291,82.74,31.37,29.85,1785094777709.825
-0.756,-0.659,-0.291,82.89,30.09,29.91,1785094777710.1052
-0.748,-0.65,-0.289,81.64,28.9,29.48,1785094777710.3638
-0.742,-0.629,-0.294,78.4,27.22,27.95,1785094777710.6262
-0.73,-0.613,-0.3,73.64,25.51,27.71,1785094777710.897
-0.719,-0.6,-0.309,67.96,23.99,27.68,1785094777711.164
-0.719,-0.58,-0.326,61.68,22.22,28.02,1785094777711.4219
-0.721,-0.568,-0.342,54.35,19.71,29.3,1785094777711.685
-0.719,-0.555,-0.35,45.44,17.33,29.27,1785094777711.966
-0.742,-0.523,-0.355,33.63,13.79,28.66,1785094777712.226
-0.739,-0.525,-0.344,20.29,8.91,31.1,1785094777712.485
-0.727,-0.541,-0.333,10.28,9.0,29.73,1785094777712.754
-0.769,-0.558,-0.349,1.25,6.13,27.62,1785094777713.0361
-0.769,-0.558,-0.349,-6.99,0.55,30.24,1785094777713.294
-0.76,-0.596,-0.355,-10.32,0.49,27.8,1785094777713.5562
-0.768,-0.59,-0.372,-14.8,-2.2,28.78,1785094777713.8162
-0.778,-0.595,-0.393,-21.15,-4.09,28.96,1785094777714.057
-0.781,-0.577,-0.397,-26.37,-4.64,28.41,1785094777714.2883
-0.782,-0.578,-0.403,-26.37,-4.64,28.41,1785094777714.5269
-0.78,-0.582,-0.395,-31.71,-5.55,27.92,1785094777714.7979
-0.774,-0.588,-0.391,-33.48,-6.13,28.2,1785094777715.042
-0.769,-0.585,-0.395,-33.54,-6.04,28.6,1785094777715.311
-0.76,-0.582,-0.396,-33.81,-6.2,28.47,1785094777715.573
-0.75,-0.574,-0.396,-33.97,-6.13,28.6,1785094777715.82
-0.742,-0.568,-0.389,-32.78,-5.86,30.06,1785094777716.053
-0.727,-0.557,-0.384,-30.46,-5.68,30.73,1785094777716.3132
-0.718,-0.544,-0.373,-27.25,-5.16,30.34,1785094777716.549
-0.7,-0.577,-0.367,-21.85,-5.46,31.16,1785094777716.775
-0.701,-0.567,-0.358,-15.56,-5.19,29.36,1785094777717.031
-0.711,-0.559,-0.344,-7.26,-4.58,30.67,1785094777717.2769
-0.71,-0.553,-0.349,-0.37,-5.55,32.62,1785094777717.505
-0.707,-0.524,-0.364,4.49,-6.01,33.48,1785094777717.773
-0.71,-0.512,-0.378,7.84,-6.41,34.88,1785094777718.0437
-0.713,-0.495,-0.4,7.87,-6.93,36.16,1785094777718.2798
-0.706,-0.479,-0.418,3.57,-7.39,36.77,1785094777718.511
-0.7,-0.49,-0.429,-2.41,-7.02,37.11,1785094777718.771
-0.705,-0.496,-0.42,-7.66,-6.13,36.9,1785094777719.028
-0.703,-0.497,-0.401,-10.93,-5.74,36.53,1785094777719.257
-0.704,-0.493,-0.389,-12.42,-4.79,35.86,1785094777719.481
-0.707,-0.51,-0.379,-13.46,-3.75,34.88,1785094777719.736
-0.717,-0.522,-0.37,-14.68,-3.54,33.36,1785094777719.954
-0.725,-0.529,-0.363,-14.07,-3.91,32.87,1785094777720.169
-0.732,-0.523,-0.36,-11.84,-4.18,31.65,1785094777720.3892
-0.736,-0.508,-0.358,-9.58,-5.04,30.49,1785094777720.61
-0.737,-0.491,-0.354,-7.57,-6.38,29.24,1785094777720.8262
-0.734,-0.486,-0.349,-5.04,-7.39,27.28,1785094777721.049
-0.735,-0.497,-0.356,-2.11,-7.6,24.66,1785094777721.275
-0.745,-0.51,-0.362,-0.09,-7.42,22.1,1785094777721.494
-0.748,-0.524,-0.357,0.64,-7.78,19.35,1785094777721.705
-0.744,-0.519,-0.352,-0.73,-8.58,16.39,1785094777721.926
-0.736,-0.491,-0.339,-4.61,-9.43,14.37,1785094777722.15
-0.731,-0.465,-0.333,-9.67,-10.47,12.7,1785094777722.367
-0.732,-0.438,-0.361,-16.91,-11.05,10.01,1785094777722.594
-0.738,-0.436,-0.4,-27.07,-10.16,6.29,1785094777722.837
-0.749,-0.49,-0.409,-37.45,-8.55,1.46,1785094777723.058
-0.768,-0.568,-0.383,-43.06,-7.2,-3.63,1785094777723.273
-0.81,-0.618,-0.348,-41.2,-6.2,-6.5,1785094777723.499
-0.871,-0.642,-0.324,-33.33,-5.86,-6.96,1785094777723.727
-0.935,-0.647,-0.309,-23.19,-6.62,-6.13,1785094777723.958
-0.978,-0.626,-0.292,-13.76,-8.42,-4.36,1785094777724.183
-0.987,-0.573,-0.277,-6.62,-11.6,-2.08,1785094777724.4028
-0.949,-0.521,-0.276,-2.26,-14.62,0.18,1785094777724.653
-0.884,-0.49,-0.314,-2.11,-15.11,0.89,1785094777724.905
-0.814,-0.463,-0.361,-6.47,-11.9,-0.24,1785094777725.158
-0.757,-0.446,-0.378,-12.27,-6.68,-2.72,1785094777725.378
-0.709,-0.427,-0.35,-18.65,-2.47,-5.65,1785094777725.581
-0.673,-0.409,-0.286,-23.93,1.53,-9.98,1785094777725.796
-0.647,-0.438,-0.235,-25.03,4.67,-14.71,1785094777726.019
-0.647,-0.47,-0.198,-21.55,6.13,-19.93,1785094777726.2249
-0.66,-0.491,-0.177,-11.47,6.5,-23.62,1785094777726.4321
-0.678,-0.482,-0.181,2.2,6.26,-26.31,1785094777726.6472
-0.707,-0.44,-0.194,14.98,5.46,-28.53,1785094777726.85
-0.737,-0.389,-0.207,23.96,3.69,-28.05,1785094777727.073
-0.765,-0.357,-0.217,28.96,1.74,-25.7,1785094777727.303
-0.793,-0.345,-0.231,30.12,-0.64,-22.49,1785094777727.514
-0.82,-0.329,-0.252,26.46,-3.08,-17.64,1785094777727.7178
-0.842,-0.308,-0.27,17.37,-5.4,-11.26,1785094777727.9292
-0.862,-0.299,-0.276,4.55,-7.6,-4.0,1785094777728.137
-0.881,-0.311,-0.285,-9.13,-9.52,3.14,1785094777728.336
-0.899,-0.327,-0.286,-22.64,-10.99,10.77,1785094777728.551
-0.907,-0.349,-0.279,-34.42,-12.88,18.43,1785094777728.763
-0.907,-0.366,-0.276,-44.5,-14.89,24.84,1785094777728.978
-0.901,-0.385,-0.264,-52.46,-16.05,30.0,1785094777729.182
-0.898,-0.417,-0.256,-57.71,-16.45,33.6,1785094777729.397
-0.899,-0.446,-0.254,-59.88,-16.33,36.23,1785094777729.613
-0.9,-0.471,-0.256,-58.84,-16.27,38.0,1785094777729.8188
-0.898,-0.482,-0.251,-55.57,-16.17,39.22,1785094777730.055
-0.889,-0.485,-0.252,-50.54,-16.08,39.28,1785094777730.2808
-0.87,-0.486,-0.257,-44.13,-15.75,37.66,1785094777730.4941
-0.845,-0.488,-0.252,-36.99,-15.05,35.1,1785094777730.6978
-0.821,-0.483,-0.25,-29.39,-14.07,32.26,1785094777730.916
-0.797,-0.466,-0.241,-22.06,-12.48,28.72,1785094777731.125
-0.781,-0.439,-0.228,-15.11,-10.74,25.06,1785094777731.332
-0.779,-0.418,-0.227,-8.27,-8.88,20.91,1785094777731.539
-0.787,-0.41,-0.236,-2.26,-6.62,15.63,1785094777731.761
-0.801,-0.417,-0.25,1.53,-4.46,9.43,1785094777731.959
-0.847,-0.441,-0.257,4.15,-0.98,-0.52,1785094777732.366
-0.876,-0.435,-0.258,4.61,0.0,-2.81,1785094777732.569
-0.89827,-0.562,-0.493,-13.64,4.82,0.37,1785094777732.7769
-0.758,-0.557,-0.439,-15.17,4.55,1.25,1785094777732.979
-0.734,-0.565,-0.414,-11.17,3.36,1.53,1785094777733.1782
-0.713,-0.551,-0.42,-3.57,3.78,0.79,1785094777733.366
-0.655,-0.541,-0.46,3.72,5.71,0.52,1785094777740.591
-0.58,-0.547,-0.524,8.27,8.91,-1.4,1785094777750.9739
-0.538,-0.56,-0.58,8.33,13.25,-5.62,1785094777764.2568
-0.52,-0.586,-0.61,4.12,17.21,-9.09,1785094777769.866
-0.509,-0.606,-0.618,-2.5,19.78,-10.77,1785094777780.3071
-0.518,-0.622,-0.603,-7.6,21.76,-10.74,1785094777790.83
-0.589,-0.656,-0.582,-9.46,23.41,-10.65,1785094777804.188
-0.722,-0.69,-0.532,-8.21,24.45,-10.28,1785094777809.7952
-0.849,-0.725,-0.465,-1.89,24.23,-9.95,1785094777820.195
-0.943,-0.75,-0.386,11.51,24.11,-10.19,1785094777830.889
-1.027,-0.765,-0.297,31.53,24.51,-10.28,1785094777844.1392
-1.074,-0.78,-0.224,55.97,24.69,-10.32,1785094777849.923
-1.086,-0.777,-0.221,81.85,25.51,-12.57,1785094777860.6028
-1.096,-0.753,-0.255,105.84,27.59,-16.82,1785094777873.889
-1.119,-0.727,-0.286,124.21,29.73,-21.97,1785094777879.6082
-1.121,-0.689,-0.319,133.76,31.04,-26.95,1785094777890.5898
-1.109,-0.628,-0.363,133.88,31.34,-31.43,1785094777903.904
-1.097,-0.55,-0.405,126.35,31.22,-34.73,1785094777909.625
-1.095,-0.482,-0.414,113.65,30.43,-36.5,1785094777920.755
-1.072,-0.459,-0.379,98.97,28.6,-38.15,1785094777934.065
-1.036,-0.451,-0.333,85.12,26.18,-39.67,1785094777940.2139
-1.001,-0.453,-0.284,72.97,22.92,-39.61,1785094777950.466
-0.979,-0.474,-0.239,61.4,18.25,-38.61,1785094777960.9202
-0.969,-0.503,-0.194,48.55,12.24,-37.42,1785094777974.302
-0.949,-0.53,-0.157,35.04,5.04,-34.79,1785094777980.31
-0.921,-0.554,-0.152,23.71,-2.72,-32.38,1785094777990.654
-0.891,-0.546,-0.16,13.95,-9.55,-28.93,1785094778001.149
-0.85,-0.532,-0.167,5.04,-15.66,-23.62,1785094778014.403
-0.812,-0.524,-0.173,-3.33,-21.15,-18.16,1785094778020.3608
-0.77,-0.517,-0.196,-10.74,-26.28,-12.45,1785094778030.668
-0.724,-0.51,-0.211,-16.05,-29.91,-5.68,1785094778041.2522
-0.696,-0.515,-0.213,-20.17,-32.47,1.22,1785094778054.485
-0.666,-0.541,-0.213,-23.29,-34.67,7.87,1785094778060.411
-0.629,-0.589,-0.191,-24.14,-36.56,14.62,1785094778070.773
-0.581,-0.649,-0.196,-21.33,-38.48,20.78,1785094778084.0361
-0.507,-0.675,-0.244,-15.14,-39.43,26.06,1785094778090.433
-0.414,-0.658,-0.292,-6.78,-38.97,32.56,1785094778100.364
-0.334,-0.647,-0.343,2.66,-37.42,39.43,1785094778111.0078
-0.3,-0.669,-0.374,10.9,-35.07,44.19,1785094778124.268
-0.305,-0.719,-0.382,17.4,-32.14,47.52,1785094778130.152
-0.332,-0.785,-0.394,23.04,-28.84,49.5,1785094778140.666
-0.355,-0.825,-0.438,28.69,-24.78,50.9,1785094778151.284
-0.355,-0.825,-0.438,35.13,-19.65,53.83,1785094778164.562
-0.365,-0.828,-0.473,42.57,-14.37,56.25,1785094778170.46
-0.361,-0.831,-0.503,51.88,-8.97,55.85,1785094778180.928
-0.356,-0.85,-0.524,62.65,-3.85,52.92,1785094778194.201
-0.347,-0.88,-0.532,62.65,-3.85,52.92,1785094778200.0608
-0.351,-0.894,-0.541,73.98,0.82,49.32,1785094778210.345
-0.38,-0.894,-0.577,85.27,6.35,46.51,1785094778220.9878
-0.406,-0.899,-0.604,95.55,12.36,43.95,1785094778234.182
-0.414,-0.896,-0.604,104.04,17.82,40.5,1785094778240.2393
-0.419,-0.895,-0.601,112.03,22.8,36.77,1785094778250.7952
-0.429,-0.883,-0.591,118.75,27.92,33.05,1785094778264.1123
-0.425,-0.847,-0.566,122.93,32.01,31.1,1785094778270.035
-0.427,-0.829,-0.542,125.49,34.97,29.97,1785094778280.7568
-0.445,-0.84,-0.503,127.02,37.48,27.59,1785094778294.063
-0.459,-0.865,-0.445,129.15,39.03,24.08,1785094778299.9512
-0.469,-0.878,-0.387,133.58,39.16,21.15,1785094778310.7651
-0.492,-0.861,-0.366,139.29,38.39,19.81,1785094778324.1711
-0.519,-0.822,-0.363,144.78,38.03,20.02,1785094778329.957
-0.576,-0.786,-0.369,147.5,36.87,22.06,1785094778340.753
-0.539,-0.802,-0.377,145.82,34.46,27.86,1785094778354.03
-0.517,-0.683,-0.381,137.09,35.28,17.88,1785094778359.942
-0.647,-0.59,-0.372,125.46,39.34,8.55,1785094778370.5542
-0.656,-0.735,-0.347,107.15,33.39,23.44,1785094778381.344
-0.608,-0.725,-0.268,89.3,29.21,24.29,1785094778394.6062
-0.649,-0.685,-0.226,84.17,28.05,19.78,1785094778400.516
-0.583,-0.805,-0.242,80.23,22.61,24.57,1785094778411.172
-0.621,-0.795,-0.245,75.23,22.95,14.68,1785094778424.3928
-0.66,-0.855,-0.268,75.17,24.08,12.42,1785094778430.228
-0.662,-0.927,-0.268,74.16,22.98,13.31,1785094778440.722
-0.659,-0.986,-0.252,78.07,23.56,7.45,1785094778451.2498
-0.661,-1.083,-0.236,88.05,23.93,-0.55,1785094778464.524
-0.648,-1.174,-0.244,101.47,23.93,-9.34,1785094778470.4521
-0.662,-1.185,-0.24,115.79,26.37,-22.77,1785094778481.0232
-0.661,-1.172,-0.212,129.25,28.5,-33.17,1785094778494.26
-0.642,-1.146,-0.218,140.29,31.22,-43.37,1785094778500.157
-0.638,-1.1,-0.233,145.24,34.7,-54.81,1785094778511.022
-0.616,-1.064,-0.266,141.85,37.23,-64.61,1785094778524.252
-0.595,-1.073,-0.282,132.36,41.29,-75.9,1785094778529.992
-0.571,-1.134,-0.272,120.33,45.81,-85.85,1785094778541.019
-0.536,-1.233,-0.264,111.91,51.0,-94.03,1785094778553.9949
-0.511,-1.262,-0.237,106.45,57.1,-101.02,1785094778560.179
-0.483,-1.184,-0.197,98.24,61.1,-103.67,1785094778571.024
-0.435,-1.162,-0.158,89.75,62.75,-107.0,1785094778584.239
-0.4,-1.197,-0.149,80.11,64.03,-116.7,1785094778590.26
-0.352,-1.287,-0.164,73.03,66.29,-127.57,1785094778600.9878
-0.3,-1.389,-0.145,71.57,69.98,-137.73,1785094778613.951
-0.261,-1.481,-0.117,75.56,73.64,-146.61,1785094778619.867
-0.231,-1.571,-0.068,84.02,77.06,-153.51,1785094778630.943
-0.212,-1.597,-0.0,94.24,78.92,-160.01,1785094778644.251
-0.229,-1.583,0.027,106.51,81.09,-165.53,1785094778650.1062
-0.247,-1.622,0.053,117.22,80.57,-165.75,1785094778661.109
-0.236,-1.647,0.067,124.18,78.8,-172.67,1785094778674.314
-0.244,-1.608,0.042,128.27,79.87,-189.09,1785094778680.2937
-0.229,-1.575,0.055,126.19,78.25,-199.68,1785094778691.2908
-0.22,-1.522,0.101,119.88,74.89,-207.13,1785094778704.6667
-0.252,-1.477,0.148,114.66,72.05,-212.96,1785094778710.6812
-0.281,-1.448,0.175,109.13,68.27,-216.28,1785094778723.984
-0.298,-1.398,0.218,100.86,64.15,-221.56,1785094778729.888
-0.316,-1.364,0.286,92.35,59.6,-227.24,1785094778740.8901
-0.321,-1.366,0.365,86.21,54.38,-231.64,1785094778754.059
-0.34,-1.35,0.411,83.41,47.98,-234.75,1785094778760.0042
-0.323,-1.31,0.411,82.58,40.96,-236.09,1785094778770.777
-0.282,-1.23,0.417,79.2,33.94,-238.44,1785094778784.0269
-0.242,-1.151,0.426,73.0,27.1,-241.43,1785094778789.987
-0.213,-1.087,0.443,63.11,20.72,-243.42,1785094778800.745
-0.208,-1.042,0.462,49.17,16.02,-243.23,1785094778814.027
-0.204,-0.983,0.48,29.15,12.3,-239.72,1785094778819.915
-0.178,-0.923,0.501,5.22,8.39,-233.16,1785094778830.4783
-0.151,-0.876,0.498,-18.56,5.01,-225.41,1785094778841.1501
-0.112,-0.856,0.491,-39.49,2.38,-217.63,1785094778854.391
-0.082,-0.855,0.477,-56.67,0.64,-210.09,1785094778860.3599
-0.022,-0.859,0.456,-70.25,-0.92,-202.43,1785094778870.841
0.035,-0.88,0.431,-79.93,-1.71,-195.44,1785094778884.117
0.081,-0.918,0.399,-85.24,-0.92,-188.54,1785094778890.101
0.145,-0.919,0.364,-86.76,0.43,-181.28,1785094778900.5461
0.225,-0.868,0.324,-86.49,2.44,-173.28,1785094778911.228
0.281,-0.825,0.33,-85.3,4.46,-164.86,1785094778924.546
0.3,-0.828,0.346,-83.29,5.52,-157.35,1785094778930.456
0.286,-0.816,0.366,-84.63,6.59,-150.18,1785094778941.022
0.261,-0.806,0.372,-89.72,7.05,-141.61,1785094778954.203
0.266,-0.83,0.335,-96.29,7.42,-133.7,1785094778959.875
0.313,-0.817,0.33,-104.16,8.09,-127.99,1785094778970.779
0.383,-0.818,0.336,-108.4,8.79,-123.57,1785094778984.101
0.436,-0.84,0.371,-110.51,9.95,-120.49,1785094778990.3318
0.469,-0.855,0.411,-112.03,9.19,-118.5,1785094779000.739
0.5,-0.866,0.422,-111.85,7.84,-116.76,1785094779013.9302
0.511,-0.87,0.405,-110.63,6.99,-115.27,1785094779019.864
0.492,-0.859,0.401,-110.93,5.95,-112.0,1785094779030.6758
0.44,-0.886,0.4,-110.87,4.88,-108.58,1785094779043.9548
0.402,-0.88,0.431,-111.91,2.99,-105.47,1785094779049.86
0.401,-0.913,0.452,-109.74,-0.95,-103.76,1785094779060.623
0.438,-0.92,0.482,-107.73,-5.1,-104.37,1785094779073.933
0.51,-0.878,0.507,-108.83,-10.41,-103.24,1785094779079.8281
0.544,-0.888,0.512,-110.14,-16.05,-101.63,1785094779090.788
0.528,-0.926,0.473,-109.47,-21.49,-103.4,1785094779104.063
0.426,-0.941,0.419,-108.8,-26.7,-103.89,1785094779110.0007
0.337,-0.972,0.393,-106.75,-32.56,-101.17,1785094779121.037
0.336,-0.953,0.39,-102.11,-39.49,-101.96,1785094779134.258
0.359,-0.869,0.363,-99.46,-46.91,-103.09,1785094779140.2502
0.364,-0.79,0.355,-103.34,-53.32,-101.17,1785094779151.129
0.357,-0.694,0.362,-116.03,-60.82,-100.74,1785094779164.4148
0.349,-0.604,0.362,-134.25,-69.58,-101.17,1785094779170.333
0.302,-0.611,0.303,-148.99,-78.31,-103.79,1785094779183.787
0.245,-0.628,0.254,-159.92,-87.34,-108.25,1785094779189.855
0.2,-0.628,0.194,-162.79,-96.38,-114.78,1785094779200.7942
0.157,-0.598,0.108,-160.99,-104.53,-121.07,1785094779214.056
0.133,-0.444,0.066,-165.2,-110.54,-124.67,1785094779220.041
0.142,-0.351,0.017,-170.9,-116.25,-128.85,1785094779231.305
0.149,-0.324,-0.069,-178.84,-120.79,-137.85,1785094779244.647
0.152,-0.183,-0.105,-197.03,-121.89,-143.01,1785094779250.535
0.184,-0.119,-0.137,-211.65,-122.35,-144.38,1785094779264.123
0.22,-0.105,-0.209,-220.59,-121.98,-149.82,1785094779270.1162
0.258,0.031,-0.282,-233.53,-117.92,-152.2,1785094779281.3801
0.302,0.125,-0.281,-245.8,-111.18,-149.02,1785094779294.6821
0.314,0.078,-0.288,-251.96,-106.17,-150.33,1785094779300.59
0.284,0.027,-0.3,-254.62,-102.08,-154.79,1785094779314.176
0.271,0.016,-0.384,-249.92,-97.69,-157.54,1785094779320.2961
0.271,0.06,-0.438,-236.64,-90.64,-158.09,1785094779331.226
0.279,0.122,-0.449,-217.29,-82.34,-156.99,1785094779344.559
0.294,0.212,-0.451,-203.25,-73.52,-155.34,1785094779350.456
0.291,0.302,-0.472,-193.95,-63.51,-152.56,1785094779363.8752
0.278,0.402,-0.473,-183.6,-51.18,-147.56,1785094779369.84
0.291,0.468,-0.472,-166.3,-39.09,-142.67,1785094779380.876
0.338,0.524,-0.482,-143.35,-28.29,-138.8,1785094779394.093
0.352,0.61,-0.5,-117.34,-17.61,-133.4,1785094779400.022
0.343,0.684,-0.486,-88.05,-7.6,-124.0,1785094779410.891
0.334,0.732,-0.452,-57.19,1.22,-114.23,1785094779424.278
0.335,0.809,-0.414,-29.05,8.03,-105.47,1785094779430.1091
0.335,0.809,-0.414,-0.98,12.48,-96.35,1785094779440.5662
0.381,0.846,-0.438,25.39,16.14,-89.85,1785094779451.1501
0.413,0.86,-0.536,46.42,20.57,-81.33,1785094779464.531
0.395,0.917,-0.624,67.45,25.42,-71.96,1785094779470.3513
0.368,0.939,-0.694,86.09,30.76,-66.47,1785094779480.8938
0.346,0.966,-0.746,86.09,30.76,-66.47,1785094779494.088
0.345,1.029,-0.745,101.02,36.93,-60.76,1785094779500.069
0.359,1.061,-0.739,116.03,41.57,-54.96,1785094779510.745
0.38,1.058,-0.762,127.38,44.89,-50.45,1785094779524.193
0.386,1.064,-0.795,131.29,46.97,-45.26,1785094779529.9932
0.407,1.041,-0.811,133.46,48.83,-38.48,1785094779540.76
0.424,0.976,-0.821,138.34,51.82,-32.56,1785094779554.023
0.45,0.931,-0.861,141.48,55.21,-26.18,1785094779560.195
0.479,0.94,-0.894,138.62,59.45,-16.05,1785094779570.7322
0.517,0.976,-0.923,128.03,65.58,-2.41,1785094779581.474
0.51,0.983,-0.925,110.81,71.5,10.96,1785094779594.6482
0.526,0.993,-0.949,88.2,77.03,24.54,1785094779600.511
0.574,0.955,-0.93,64.27,84.51,37.17,1785094779611.125
0.584,0.832,-0.887,47.15,92.75,47.46,1785094779624.4119
0.614,0.736,-0.839,36.07,99.98,59.02,1785094779630.2832
0.737,0.689,-0.807,26.46,104.77,72.97,1785094779640.896
0.855,0.591,-0.723,18.95,108.01,86.73,1785094779654.1792
0.902,0.419,-0.646,16.63,110.9,100.13,1785094779660.0981
0.89,0.271,-0.599,17.76,113.1,113.28,1785094779671.1272
0.888,0.154,-0.586,24.2,115.21,126.47,1785094779684.428
0.916,0.032,-0.569,32.44,120.76,136.85,1785094779690.35
0.974,-0.081,-0.504,37.78,126.5,142.43,1785094779701.314
1.074,-0.157,-0.451,40.74,130.38,147.01,1785094779714.551
1.195,-0.19,-0.376,40.99,134.56,154.24,1785094779720.258
1.304,-0.211,-0.321,38.36,137.91,162.05,1785094779733.953
1.328,-0.273,-0.27,35.16,141.21,167.55,1785094779739.685
1.289,-0.422,-0.192,34.82,144.14,170.38,1785094779750.929
1.223,-0.567,-0.102,38.18,145.97,168.37,1785094779764.1868
1.193,-0.724,0.005,45.93,148.47,165.32,1785094779770.1199
1.194,-0.871,0.136,51.85,147.65,157.99,1785094779781.2158
1.193,-0.988,0.255,51.12,141.91,148.17,1785094779794.48
1.149,-1.132,0.313,46.39,131.53,137.06,1785094779800.379
1.074,-1.246,0.328,38.09,117.71,121.83,1785094779811.239
1.012,-1.315,0.34,27.89,102.91,101.14,1785094779824.4648
0.96,-1.372,0.364,18.13,87.68,75.87,1785094779830.593
0.902,-1.384,0.449,7.97,69.92,47.73,1785094779840.8901
0.854,-1.352,0.538,-2.08,47.94,18.52,1785094779854.433
0.814,-1.316,0.587,-11.93,24.38,-10.32,1785094779860.3972
0.75,-1.254,0.618,-21.03,1.31,-40.1,1785094779870.6611
0.81,-1.264,0.589,-29.73,-23.22,-64.18,1785094779881.391
0.74,-1.178,0.545,-36.84,-43.92,-90.55,1785094779894.578
0.617,-1.028,0.473,-44.37,-66.23,-118.14,1785094779900.4841
0.594,-0.945,0.393,-51.45,-82.19,-140.45,1785094779911.2651
0.611,-0.828,0.324,-58.26,-96.8,-158.64,1785094779924.5068
0.602,-0.658,0.236,-61.16,-112.83,-172.37,1785094779930.434
0.51,-0.456,0.118,-61.13,-123.91,-185.09,1785094779941.3901
0.473,-0.261,-0.026,-63.57,-131.93,-195.23,1785094779954.609
0.493,-0.037,-0.176,-72.79,-137.55,-201.12,1785094779960.371
0.507,0.215,-0.328,-87.22,-138.52,-205.63,1785094779974.059
0.52,0.454,-0.5,-103.95,-134.1,-205.6,1785094779980.095
0.523,0.692,-0.61,-120.0,-123.33,-198.68,1785094779991.2488
0.523,0.869,-0.61,-130.13,-108.43,-186.62,1785094780004.516
0.519,0.917,-0.595,-134.83,-91.98,-175.6,1785094780010.436
0.505,0.895,-0.542,-136.27,-74.34,-165.38,1785094780023.9812
0.518,0.81,-0.535,-127.51,-58.9,-149.88,1785094780029.9001
0.523,0.822,-0.591,-102.63,-45.75,-130.25,1785094780040.938
0.505,0.982,-0.7,-56.4,-33.66,-107.18,1785094780054.155
0.496,1.196,-0.784,0.79,-20.36,-81.45,1785094780060.075
0.501,1.226,-0.848,51.18,-7.87,-59.33,1785094780070.473
0.506,1.17,-0.891,76.54,3.57,-45.59,1785094780081.011
0.525,1.217,-0.881,82.31,16.05,-28.93,1785094780094.26
0.55,1.244,-0.826,87.1,29.45,-7.72,1785094780100.207
0.569,1.19,-0.758,91.07,41.81,9.43,1785094780110.5808
0.627,1.135,-0.677,87.16,52.0,22.98,1785094780121.2217
0.7,1.017,-0.625,82.4,59.82,35.74,1785094780134.4277
0.725,0.851,-0.604,81.09,66.38,46.91,1785094780140.466
0.735,0.718,-0.573,81.85,71.44,57.19,1785094780150.964
0.764,0.652,-0.543,82.64,73.31,67.05,1785094780164.181
0.81,0.655,-0.526,78.8,73.27,75.81,1785094780170.1428
0.861,0.624,-0.512,71.38,73.85,82.92,1785094780180.611
0.892,0.551,-0.485,62.17,75.32,88.2,1785094780191.2908
0.92,0.49,-0.422,51.64,77.94,93.54,1785094780204.732
0.954,0.416,-0.342,39.98,79.96,98.97,1785094780210.5479
1.023,0.32,-0.289,26.55,80.29,104.92,1785094780221.0847
1.083,0.201,-0.268,15.63,79.01,111.51,1785094780234.3071
1.077,0.121,-0.262,7.08,76.48,116.86,1785094780240.331
1.053,0.063,-0.245,0.76,75.35,121.31,1785094780250.8281
1.061,-0.033,-0.219,-2.17,74.98,123.91,1785094780264.139
1.08,-0.161,-0.2,-2.26,75.62,125.64,1785094780270.062
1.09,-0.259,-0.168,-1.59,76.66,127.14,1785094780280.58
1.098,-0.351,-0.121,0.92,76.97,128.51,1785094780291.2122
1.101,-0.452,-0.076,4.09,76.94,129.22,1785094780304.555
1.096,-0.555,-0.024,7.26,76.2,127.99,1785094780310.446
1.073,-0.657,0.023,11.47,74.25,123.51,1785094780321.022
1.041,-0.721,0.068,14.83,71.35,115.76,1785094780334.2358
1.016,-0.77,0.122,16.24,67.51,105.84,1785094780340.3188
1.005,-0.837,0.176,15.41,61.56,93.05,1785094780350.8633
0.993,-0.901,0.223,13.0,53.71,77.18,1785094780364.144
0.956,-0.928,0.259,9.95,44.01,60.12,1785094780370.151
0.911,-0.924,0.277,7.72,32.72,42.66,1785094780380.418
0.888,-0.913,0.293,4.0,20.29,22.8,1785094780391.0022
0.877,-0.917,0.313,-2.75,7.39,1.13,1785094780401.315
0.866,-0.932,0.331,-10.71,-5.01,-19.17,1785094780414.5632
0.86,-0.923,0.353,-16.3,-18.04,-37.45,1785094780420.602
0.847,-0.902,0.363,-17.64,-31.19,-54.54,1785094780431.0122
0.824,-0.863,0.36,-18.28,-43.52,-70.22,1785094780444.303
0.803,-0.823,0.347,-17.82,-55.94,-84.9,1785094780450.1492
0.787,-0.787,0.311,-14.59,-68.58,-99.92,1785094780460.673
0.771,-0.719,0.259,-9.95,-80.45,-114.29,1785094780471.3118
0.744,-0.64,0.201,-3.97,-91.4,-127.32,1785094780484.6467
0.72,-0.551,0.137,0.89,-101.84,-139.56,1785094780490.895
0.7,-0.445,0.072,2.78,-111.64,-150.33,1785094780501.2422
0.682,-0.325,0.007,0.46,-120.03,-159.0,1785094780514.449
0.667,-0.209,-0.048,-4.18,-127.48,-166.11,1785094780520.376
0.671,-0.101,-0.124,-9.98,-134.19,-172.19,1785094780531.1511
0.668,0.022,-0.195,-18.62,-138.46,-176.89,1785094780544.5608
0.661,0.141,-0.262,-28.35,-139.74,-179.63,1785094780550.529
0.658,0.257,-0.349,-36.93,-138.55,-181.16,1785094780563.8699
0.632,0.398,-0.461,-45.81,-134.83,-179.63,1785094780569.8738
0.604,0.575,-0.574,-54.93,-126.65,-172.19,1785094780580.8352
0.599,0.711,-0.651,-62.38,-116.25,-160.07,1785094780594.062
0.592,0.755,-0.673,-71.23,-104.37,-149.45,1785094780600.041
0.574,0.741,-0.685,-83.35,-89.51,-143.62,1785094780610.98
0.566,0.757,-0.698,-92.1,-75.87,-135.62,1785094780624.268
0.568,0.803,-0.72,-85.45,-64.03,-121.65,1785094780630.152
0.546,0.906,-0.754,-62.14,-52.46,-105.2,1785094780640.9443
0.519,1.028,-0.806,-29.21,-40.07,-87.8,1785094780654.1738
0.493,1.179,-0.874,1.86,-26.89,-70.71,1785094780660.0671
0.478,1.33,-0.919,27.31,-13.79,-51.3,1785094780670.502
0.478,1.405,-0.937,45.47,-1.46,-30.88,1785094780681.0242
0.494,1.42,-0.938,55.12,9.98,-11.99,1785094780694.324
0.513,1.419,-0.919,59.69,20.97,6.59,1785094780700.179
0.527,1.385,-0.896,62.9,31.74,25.15,1785094780710.6172
0.527,1.385,-0.896,61.8,42.24,42.27,1785094780721.249
0.554,1.335,-0.872,57.59,51.09,57.62,1785094780734.4583
0.583,1.284,-0.838,55.97,58.02,72.21,1785094780740.067
0.586,1.206,-0.816,56.46,63.3,85.33,1785094780750.978
0.559,1.133,-0.793,57.56,67.45,96.99,1785094780764.214
0.542,1.073,-0.782,57.56,67.45,96.99,1785094780770.1309
0.555,1.021,-0.78,56.4,71.84,107.3,1785094780780.766
0.575,0.952,-0.783,50.75,77.43,116.82,1785094780794.0227
0.592,0.885,-0.762,40.41,83.25,126.56,1785094780799.9392
0.631,0.789,-0.719,29.42,88.26,137.0,1785094780810.7112
0.683,0.657,-0.673,19.32,92.9,145.76,1785094780824.0308
0.721,0.519,-0.636,10.28,97.35,154.0,1785094780829.918
0.74,0.378,-0.594,4.55,102.11,162.69,1785094780840.654
0.776,0.228,-0.521,1.83,106.51,169.77,1785094780853.917
0.825,0.1,-0.463,0.52,108.55,173.01,1785094780859.8699
0.861,0.01,-0.41,-0.46,110.84,176.18,1785094780870.6738
0.89,-0.079,-0.35,-0.4,113.65,180.67,1785094780881.4038
0.928,-0.188,-0.308,-1.28,116.64,184.33,1785094780894.634
0.968,-0.294,-0.24,-4.64,119.54,187.26,1785094780900.5261
0.987,-0.422,-0.144,-6.99,121.71,190.86,1785094780911.339
0.968,-0.58,-0.048,-5.92,125.31,194.25,1785094780924.633
0.957,-0.732,0.045,-2.78,128.54,194.59,1785094780930.573
0.944,-0.89,0.144,1.59,128.33,189.95,1785094780941.3628
0.941,-1.061,0.22,3.94,125.28,179.17,1785094780954.585
0.927,-1.203,0.281,0.09,119.42,161.41,1785094780960.2969
0.896,-1.265,0.358,-8.51,110.51,140.08,1785094780971.2761
0.871,-1.298,0.399,-14.53,98.64,118.32,1785094780984.8452
0.847,-1.299,0.416,-17.0,86.06,94.85,1785094780990.591
0.808,-1.286,0.456,-16.66,73.12,69.73,1785094781000.787
0.793,-1.307,0.515,-15.2,58.9,42.54,1785094781014.293
0.802,-1.362,0.594,-15.05,44.25,15.23,1785094781020.242
0.807,-1.414,0.66,-14.71,28.5,-9.58,1785094781030.651
0.801,-1.407,0.68,-11.41,11.41,-32.69,1785094781041.352
0.789,-1.338,0.658,-4.97,-5.58,-55.24,1785094781054.519
0.759,-1.235,0.615,1.19,-21.67,-77.0,1785094781060.499
0.725,-1.132,0.557,4.64,-36.81,-96.53,1785094781070.653
0.683,-1.034,0.503,5.34,-50.78,-114.11,1785094781081.422
0.641,-0.952,0.461,4.7,-64.27,-130.31,1785094781094.6218
0.628,-0.871,0.412,2.96,-78.13,-144.72,1785094781100.503
0.618,-0.761,0.364,0.7,-91.31,-158.12,1785094781111.115
0.596,-0.648,0.312,-0.55,-103.24,-170.45,1785094781124.371
0.57,-0.535,0.249,-2.78,-114.17,-181.43,1785094781130.2632
0.556,-0.412,0.177,-6.41,-124.27,-190.83,1785094781141.011
0.55,-0.272,0.096,-10.59,-133.12,-199.07,1785094781154.264
0.544,-0.144,0.005,-15.11,-139.77,-204.84,1785094781160.2222
0.54,-0.026,-0.091,-21.58,-145.12,-208.47,1785094781171.229
0.538,0.132,-0.195,-29.54,-148.87,-210.18,1785094781184.527
0.532,0.313,-0.304,-35.07,-149.36,-208.81,1785094781190.544
0.531,0.497,-0.393,-38.45,-145.94,-204.14,1785094781203.889
0.531,0.643,-0.472,-40.5,-139.71,-197.09,1785094781209.91
0.523,0.754,-0.539,-42.82,-131.17,-187.99,1785094781220.8901
0.525,0.83,-0.595,-46.3,-119.57,-175.66,1785094781234.1812
0.527,0.819,-0.65,-50.33,-105.69,-162.24,1785094781240.1987
0.529,0.769,-0.666,-53.29,-91.25,-148.53,1785094781250.967
0.534,0.785,-0.683,-45.96,-79.29,-133.24,1785094781264.3562
0.53,0.927,-0.717,-21.03,-69.52,-113.13,1785094781270.237
0.511,1.108,-0.811,16.72,-59.36,-91.13,1785094781280.885
0.488,1.295,-0.938,49.01,-46.48,-70.62,1785094781294.109
0.489,1.449,-1.013,70.96,-32.35,-49.29,1785094781300.0068
0.511,1.501,-1.026,86.49,-17.3,-28.35,1785094781310.579
0.539,1.479,-1.011,94.36,-2.69,-9.22,1785094781321.043
0.567,1.467,-0.974,93.75,10.86,9.64,1785094781334.2678
0.592,1.424,-0.956,90.46,23.83,28.84,1785094781340.332
0.594,1.359,-0.965,84.38,36.81,46.51,1785094781350.668
0.589,1.288,-0.958,76.33,49.87,63.33,1785094781361.342
0.577,1.197,-0.953,66.81,61.53,77.76,1785094781374.5952
0.573,1.09,-0.944,57.44,71.9,90.98,1785094781380.521
0.582,0.967,-0.916,49.35,80.45,102.24,1785094781391.144
0.599,0.852,-0.888,42.85,87.22,111.33,1785094781404.495
0.624,0.74,-0.848,37.72,94.39,120.58,1785094781410.336
0.647,0.636,-0.786,31.89,101.23,128.79,1785094781421.203
0.685,0.537,-0.716,25.24,106.78,134.62,1785094781434.4211
0.734,0.438,-0.634,18.4,111.15,139.23,1785094781440.4768
0.798,0.355,-0.541,12.39,114.08,143.28,1785094781451.388
0.882,0.275,-0.45,9.7,117.89,148.5,1785094781464.684
0.983,0.182,-0.384,11.02,122.17,155.03,1785094781470.562
0.994,0.07,-0.347,14.22,127.14,159.49,1785094781484.0269
0.973,-0.072,-0.308,16.42,133.7,164.74,1785094781490.049
0.996,-0.213,-0.267,19.32,139.35,169.96,1785094781500.988
1.007,-0.33,-0.223,21.97,143.93,171.97,1785094781514.2012
0.991,-0.464,-0.118,23.41,150.24,173.77,1785094781520.174
1.003,-0.628,0.03,24.51,156.99,173.68,1785094781531.1802
1.004,-0.775,0.184,22.77,159.55,170.78,1785094781544.477
0.949,-0.912,0.311,20.75,159.12,167.03,1785094781550.403
0.938,-1.023,0.373,20.29,156.9,157.9,1785094781561.4011
0.934,-1.052,0.462,18.86,149.24,141.09,1785094781574.713
0.872,-1.091,0.566,20.48,137.52,121.8,1785094781580.585
0.815,-1.177,0.632,23.26,123.69,100.68,1785094781594.079
0.81,-1.229,0.689,22.83,106.39,78.95,1785094781600.0461
0.805,-1.228,0.749,23.13,86.64,56.92,1785094781610.782
0.803,-1.232,0.789,23.74,66.53,33.08,1785094781624.1392
0.81,-1.238,0.819,19.68,46.39,7.69,1785094781629.907
0.801,-1.238,0.849,13.49,26.15,-16.6,1785094781640.4019
0.771,-1.222,0.853,9.58,4.91,-38.79,1785094781650.81
0.74,-1.175,0.818,7.93,-16.48,-58.44,1785094781664.161
0.721,-1.096,0.761,7.51,-36.74,-77.12,1785094781670.055
0.696,-1.015,0.696,7.97,-55.42,-96.01,1785094781680.285
0.667,-0.949,0.624,8.24,-73.03,-113.74,1785094781691.0059
0.637,-0.868,0.562,7.02,-89.97,-130.04,1785094781704.1677
0.607,-0.759,0.491,6.41,-106.51,-144.93,1785094781710.113
0.619,-0.634,0.421,6.71,-121.46,-158.76,1785094781720.819
0.615,-0.528,0.36,6.5,-135.11,-169.71,1785094781734.0547
0.609,-0.45,0.303,4.79,-146.28,-180.46,1785094781740.0808
0.605,-0.358,0.229,-0.43,-156.93,-191.26,1785094781750.83
0.585,-0.236,0.137,-7.05,-168.07,-198.28,1785094781764.076
0.565,-0.086,0.023,-12.73,-176.49,-202.64,1785094781769.976
0.562,0.078,-0.09,-18.59,-181.62,-205.33,1785094781780.985
0.575,0.197,-0.184,-26.09,-183.32,-205.85,1785094781794.179
0.583,0.296,-0.281,-36.9,-181.43,-204.9,1785094781800.111
0.576,0.426,-0.386,-49.04,-177.65,-200.23,1785094781811.1309
0.564,0.569,-0.491,-57.86,-171.61,-190.77,1785094781824.4539
0.56,0.692,-0.566,-64.82,-161.2,-180.12,1785094781830.4219
0.55,0.763,-0.612,-71.05,-147.77,-169.8,1785094781841.362
0.531,0.807,-0.64,-74.83,-132.15,-158.91,1785094781854.6199
0.517,0.844,-0.666,-71.41,-116.37,-145.51,1785094781860.568
0.497,0.895,-0.719,-57.59,-101.63,-130.53,1785094781874.092
0.467,0.999,-0.788,-35.65,-87.89,-112.89,1785094781880.008
0.472,1.099,-0.837,-8.12,-72.7,-92.23,1785094781890.619
0.496,1.162,-0.907,19.35,-58.02,-72.12,1785094781901.249
0.5,1.253,-0.957,42.63,-43.49,-51.3,1785094781914.566
0.489,1.3,-0.983,65.71,-28.99,-29.18,1785094781920.2627
0.471,1.303,-1.03,82.77,-14.19,-9.92,1785094781930.982
0.46,1.337,-1.046,89.02,1.04,8.61,1785094781941.233
0.473,1.365,-1.051,88.75,17.49,28.63,1785094781954.6208
0.481,1.363,-1.016,83.29,34.12,47.12,1785094781960.299
0.513,1.299,-0.973,75.01,48.19,63.14,1785094781971.0898
0.558,1.194,-0.934,65.55,60.4,76.45,1785094781984.407
0.584,1.097,-0.913,57.31,71.35,89.11,1785094781990.4902
0.584,1.097,-0.913,54.17,81.88,102.3,1785094782000.9038
0.582,1.022,-0.893,53.41,91.28,112.64,1785094782014.2651
0.574,0.924,-0.85,47.61,97.57,117.16,1785094782020.268
0.599,0.853,-0.805,39.74,101.99,120.4,1785094782031.1091
0.641,0.828,-0.796,29.97,112.43,128.45,1785094782044.2031
0.67,0.8,-0.736,29.97,112.43,128.45,1785094782050.007
0.803,0.809,-0.7,20.97,119.14,135.81,1785094782061.082
0.751,0.701,-0.645,14.56,109.16,152.32,1785094782074.4697
0.811,0.478,-0.574,10.25,117.47,164.98,1785094782080.41
0.827,0.35,-0.53,7.08,126.9,162.51,1785094782091.277
0.793,0.273,-0.498,5.98,125.68,161.63,1785094782104.654
0.792,0.171,-0.448,6.44,131.05,168.22,1785094782110.539
0.826,0.068,-0.397,9.64,138.74,174.14,1785094782121.299
0.819,-0.044,-0.324,13.92,140.35,177.56,1785094782134.495
0.802,-0.17,-0.255,15.2,142.25,181.98,1785094782140.596
0.788,-0.311,-0.179,12.27,147.16,187.23,1785094782153.93
0.792,-0.454,-0.078,8.18,151.25,190.74,1785094782159.963
0.808,-0.584,0.024,5.55,151.49,190.04,1785094782170.722
0.826,-0.692,0.114,6.47,150.12,183.9,1785094782184.033
0.822,-0.789,0.167,8.61,146.7,173.07,1785094782190.055
0.781,-0.881,0.265,7.97,144.08,160.28,1785094782200.681
0.769,-0.948,0.385,4.46,137.58,144.9,1785094782214.022
0.787,-1.004,0.487,-0.92,126.59,127.78,1785094782220.033
0.795,-1.069,0.558,-6.59,113.83,111.3,1785094782230.68
0.791,-1.146,0.619,-9.95,99.92,94.3,1785094782241.2732
0.784,-1.212,0.655,-10.04,84.69,76.14,1785094782254.455
0.782,-1.248,0.682,-9.43,69.28,58.47,1785094782260.3992
0.791,-1.279,0.705,-7.42,54.05,39.92,1785094782270.719
0.799,-1.271,0.723,-6.41,38.48,19.81,1785094782281.357
0.801,-1.215,0.739,-6.62,22.8,1.31,1785094782294.583
0.791,-1.18,0.745,-5.4,7.69,-13.98,1785094782301.6611
0.779,-1.151,0.739,-3.78,-7.39,-28.02,1785094782310.449
0.774,-1.115,0.732,-1.71,-22.1,-41.17,1785094782321.102
0.781,-1.064,0.72,0.24,-36.29,-53.38,1785094782334.27
0.791,-1.011,0.699,2.04,-50.23,-65.83,1785094782340.3
0.798,-0.963,0.656,4.49,-64.18,-79.17,1785094782350.4573
0.794,-0.914,0.608,7.23,-77.58,-92.72,1785094782361.0251
0.78,-0.845,0.553,8.33,-90.49,-105.23,1785094782374.3647
0.767,-0.768,0.502,8.76,-103.4,-116.61,1785094782380.279
0.752,-0.716,0.443,9.25,-115.82,-127.69,1785094782391.0022
0.727,-0.647,0.381,8.18,-127.63,-138.1,1785094782404.274
0.703,-0.563,0.311,7.05,-138.58,-146.34,1785094782410.156
0.684,-0.489,0.241,6.56,-148.87,-153.05,1785094782420.933
0.661,-0.403,0.166,6.13,-158.7,-159.22,1785094782434.138
0.646,-0.293,0.083,5.49,-167.39,-164.56,1785094782440.19
0.643,-0.167,-0.014,4.49,-174.78,-169.38,1785094782450.835
0.641,-0.037,-0.096,1.19,-179.2,-172.64,1785094782464.1062
0.64,0.056,-0.145,-5.89,-181.89,-174.47,1785094782470.0361
0.631,0.116,-0.21,-16.54,-183.66,-176.46,1785094782481.025
0.614,0.219,-0.282,-28.57,-183.57,-176.85,1785094782494.22
0.591,0.34,-0.364,-39.06,-181.65,-174.63,1785094782500.14
0.562,0.444,-0.485,-51.67,-176.89,-171.61,1785094782511.179
0.512,0.548,-0.6,-65.65,-169.23,-167.3,1785094782524.4192
0.474,0.667,-0.696,-76.66,-159.06,-160.8,1785094782530.448
0.475,0.764,-0.736,-81.15,-146.55,-152.1,1785094782541.385
0.503,0.818,-0.767,-79.04,-133.7,-141.88,1785094782554.678
0.521,0.894,-0.801,-74.47,-120.82,-130.8,1785094782560.601
0.518,0.98,-0.839,-65.8,-108.16,-117.28,1785094782574.071
0.513,1.04,-0.891,-54.41,-95.03,-101.93,1785094782579.998
0.5,1.095,-0.931,-43.43,-81.12,-86.46,1785094782590.7358
0.486,1.145,-0.955,-30.82,-66.41,-68.85,1785094782601.3481
0.469,1.189,-0.981,-17.0,-51.48,-49.78,1785094782614.644
0.47,1.213,-0.983,-2.59,-36.41,-29.48,1785094782620.524
0.445,1.204,-0.965,11.08,-20.69,-9.06,1785094782630.99
0.621,1.187,-0.964,22.37,-3.45,11.9,1785094782644.4211
0.636,1.133,-0.965,34.7,6.56,35.0,1785094782650.103
0.63,1.027,-0.959,45.66,25.15,61.31,1785094782660.4531
0.664,0.989,-0.955,48.55,35.68,75.75,1785094782671.077
