ax,ay,az,gx,gy,gz,timestamp_ms
-0.849,-0.734,-0.343,27.5,20.05,-67.32,1785095049268.93
-0.838,-0.73,-0.338,32.41,16.11,-63.88,1785095049269.263
-0.835,-0.769,-0.343,35.92,12.57,-60.09,1785095049269.591
-0.834,-0.806,-0.334,37.93,10.68,-57.37,1785095049269.9058
-0.822,-0.802,-0.297,42.18,8.85,-54.17,1785095049270.211
-0.803,-0.771,-0.28,49.38,6.5,-50.75,1785095049270.5237
-0.793,-0.721,-0.274,53.8,3.54,-46.45,1785095049271.159
-0.774,-0.672,-0.276,51.67,-0.24,-41.17,1785095049271.5
-0.744,-0.669,-0.287,43.7,-4.18,-37.45,1785095049271.827
-0.687,-0.705,-0.296,31.56,-8.03,-34.82,1785095049272.126
-0.608,-0.743,-0.304,18.1,-11.6,-30.52,1785095049272.439
-0.545,-0.783,-0.309,7.26,-14.77,-24.17,1785095049272.747
-0.533,-0.806,-0.295,-0.85,-16.45,-16.27,1785095049273.042
-0.541,-0.838,-0.267,-2.66,-18.28,-7.69,1785095049273.35
-0.543,-0.86,-0.252,2.59,-21.0,-1.68,1785095049273.649
-0.523,-0.879,-0.249,14.19,-24.17,3.33,1785095049273.95
-0.504,-0.86,-0.242,29.51,-26.89,7.63,1785095049274.2422
-0.473,-0.817,-0.258,45.29,-28.9,12.85,1785095049274.554
-0.427,-0.754,-0.293,54.66,-30.46,17.73,1785095049274.835
-0.389,-0.691,-0.303,52.83,-31.22,23.68,1785095049275.0981
-0.366,-0.681,-0.296,44.74,-31.37,28.69,1785095049275.369
-0.36,-0.693,-0.263,32.99,-32.38,31.4,1785095049275.641
-0.342,-0.701,-0.221,20.84,-34.36,33.81,1785095049275.907
-0.304,-0.695,-0.198,11.35,-37.57,36.23,1785095049276.184
-0.262,-0.682,-0.197,5.34,-41.2,38.3,1785095049276.4531
-0.232,-0.669,-0.236,1.68,-44.4,39.25,1785095049276.7097
-0.206,-0.651,-0.292,-0.95,-46.88,40.19,1785095049276.9739
-0.19,-0.621,-0.337,-5.16,-48.92,41.66,1785095049277.2312
-0.194,-0.59,-0.351,-11.78,-50.66,43.64,1785095049277.496
-0.219,-0.605,-0.343,-17.85,-52.4,45.14,1785095049277.76
-0.255,-0.642,-0.313,-22.68,-54.23,46.17,1785095049278.016
-0.283,-0.705,-0.272,-22.52,-56.09,47.91,1785095049278.3052
-0.306,-0.789,-0.278,-14.95,-57.16,49.01,1785095049278.583
-0.344,-0.838,-0.306,-4.76,-56.73,50.57,1785095049278.882
-0.383,-0.864,-0.315,4.33,-55.15,54.54,1785095049279.155
-0.419,-0.881,-0.344,10.04,-53.8,57.86,1785095049279.4448
-0.445,-0.836,-0.378,7.26,-52.74,62.04,1785095049279.708
-0.458,-0.771,-0.395,-2.35,-52.31,67.78,1785095049279.9602
-0.472,-0.746,-0.401,-15.02,-52.77,71.41,1785095049280.233
-0.475,-0.745,-0.421,-26.43,-52.77,71.47,1785095049280.5
-0.517,-0.756,-0.468,-31.16,-53.1,73.24,1785095049280.766
-0.45,-0.807,-0.522,-29.45,-53.68,78.4,1785095049281.025
-0.45,-0.741,-0.509,-21.06,-45.35,69.03,1785095049281.2942
-0.462,-0.755,-0.495,-7.75,-37.63,63.08,1785095049281.558
-0.48,-0.768,-0.45,-0.18,-36.32,57.56,1785095049281.811
-0.48,-0.772,-0.383,8.85,-34.18,52.86,1785095049282.073
-0.507,-0.793,-0.346,21.61,-31.5,50.36,1785095049282.347
-0.543,-0.796,-0.338,33.05,-30.85,51.45,1785095049282.5962
-0.583,-0.75,-0.351,42.39,-29.42,50.87,1785095049282.835
-0.615,-0.71,-0.417,50.23,-26.83,49.87,1785095049283.083
-0.64,-0.658,-0.479,53.8,-22.83,50.02,1785095049283.33
-0.671,-0.587,-0.511,53.25,-19.35,52.43,1785095049283.5671
-0.689,-0.55,-0.534,48.55,-17.49,56.7,1785095049283.822
-0.7,-0.521,-0.55,39.0,-14.89,58.41,1785095049284.0881
-0.712,-0.494,-0.544,25.42,-11.51,59.11,1785095049284.353
-0.731,-0.5,-0.52,9.16,-8.7,59.45,1785095049284.601
-0.731,-0.5,-0.52,-7.51,-7.48,59.69,1785095049284.8389
-0.761,-0.535,-0.472,-20.66,-7.17,59.21,1785095049285.071
-0.783,-0.584,-0.418,-27.04,-7.66,58.57,1785095049285.3
-0.798,-0.641,-0.372,-26.92,-8.85,57.74,1785095049285.528
-0.801,-0.671,-0.348,-21.36,-10.07,56.34,1785095049285.7668
-0.791,-0.665,-0.38,-21.36,-10.07,56.34,1785095049286.002
-0.783,-0.637,-0.439,-13.34,-9.98,54.41,1785095049286.2332
-0.783,-0.6,-0.467,-7.23,-9.31,50.94,1785095049286.467
-0.779,-0.566,-0.456,-5.16,-9.83,46.45,1785095049286.748
-0.766,-0.532,-0.425,-5.65,-11.05,40.89,1785095049286.9958
-0.76,-0.506,-0.378,-6.32,-12.3,34.97,1785095049287.2268
-0.759,-0.5,-0.344,-6.53,-14.53,29.63,1785095049287.467
-0.768,-0.505,-0.331,-7.72,-17.4,24.29,1785095049287.722
-0.791,-0.518,-0.337,-10.1,-20.2,18.86,1785095049287.959
-0.79,-0.539,-0.335,-13.37,-23.35,13.76,1785095049288.2
-0.776,-0.56,-0.339,-16.82,-27.22,7.66,1785095049288.4219
-0.78,-0.555,-0.358,-19.81,-29.3,3.27,1785095049288.648
-0.785,-0.534,-0.371,-20.66,-30.06,2.66,1785095049288.866
-0.81,-0.499,-0.358,-21.88,-31.16,1.5,1785095049289.09
-0.852,-0.474,-0.324,-24.08,-32.81,1.56,1785095049289.311
-0.899,-0.458,-0.286,-27.31,-33.97,1.46,1785095049289.531
-0.943,-0.461,-0.276,-33.17,-34.12,0.82,1785095049289.762
-0.951,-0.505,-0.283,-42.05,-34.0,2.29,1785095049290.0742
-0.917,-0.539,-0.272,-51.58,-31.77,1.98,1785095049290.3098
-0.859,-0.567,-0.24,-57.28,-28.29,2.17,1785095049290.533
-0.779,-0.592,-0.213,-59.05,-26.12,4.18,1785095049290.761
-0.695,-0.561,-0.191,-57.77,-23.71,2.41,1785095049290.9893
-0.684,-0.523,-0.167,-51.58,-20.54,-0.58,1785095049291.215
-0.618,-0.549,-0.169,-43.73,-21.45,4.33,1785095049291.445
-0.578,-0.516,-0.153,-34.3,-19.96,3.72,1785095049291.673
-0.563,-0.501,-0.181,-20.6,-18.19,2.62,1785095049291.916
-0.556,-0.529,-0.229,-7.69,-18.13,0.95,1785095049292.136
-0.594,-0.557,-0.263,6.04,-18.07,-0.09,1785095049292.363
-0.649,-0.594,-0.292,20.69,-17.03,0.92,1785095049292.591
-0.685,-0.613,-0.296,33.78,-16.57,-0.55,1785095049292.81
-0.694,-0.633,-0.297,51.3,-14.68,-1.13,1785095049293.036
-0.723,-0.634,-0.293,69.83,-9.7,-0.55,1785095049293.2632
-0.77,-0.63,-0.294,84.96,-3.94,0.76,1785095049293.486
-0.801,-0.63,-0.287,96.38,2.47,1.19,1785095049293.703
-0.819,-0.638,-0.295,103.37,8.73,0.79,1785095049293.969
-0.831,-0.661,-0.3,105.29,14.47,1.4,1785095049294.2231
-0.86,-0.597,-0.303,103.27,21.03,1.5,1785095049294.43
-0.858,-0.557,-0.305,94.45,27.86,2.96,1785095049294.6482
-0.864,-0.516,-0.299,80.11,34.85,4.36,1785095049294.9177
-0.864,-0.497,-0.263,63.23,40.25,6.2,1785095049295.151
-0.85,-0.502,-0.223,46.11,43.18,5.89,1785095049295.3547
-0.83,-0.515,-0.176,31.4,45.23,3.69,1785095049295.5679
-0.823,-0.525,-0.146,22.03,46.42,0.82,1785095049295.779
-0.822,-0.531,-0.124,17.12,46.17,-2.72,1785095049295.9812
-0.826,-0.53,-0.116,16.54,44.28,-6.16,1785095049296.196
-0.827,-0.52,-0.114,17.09,41.17,-8.97,1785095049296.4082
-0.827,-0.513,-0.118,18.59,36.59,-9.89,1785095049296.6157
-0.823,-0.513,-0.123,21.73,31.92,-10.96,1785095049296.8198
-0.813,-0.514,-0.122,25.85,27.13,-11.47,1785095049297.038
-0.817,-0.473,-0.117,28.11,21.7,-11.66,1785095049297.2522
-0.812,-0.433,-0.121,25.64,16.27,-10.04,1785095049297.458
-0.811,-0.41,-0.137,19.38,12.12,-7.81,1785095049297.6938
-0.819,-0.418,-0.156,10.77,9.0,-6.84,1785095049297.9011
-0.829,-0.452,-0.166,0.58,7.02,-6.87,1785095049298.104
-0.839,-0.483,-0.177,-10.19,4.91,-5.68,1785095049298.309
-0.84,-0.493,-0.183,-21.12,2.56,-2.66,1785095049298.514
-0.848,-0.501,-0.18,-29.76,0.73,0.0,1785095049298.72
-0.854,-0.501,-0.184,-36.5,-0.89,4.73,1785095049298.921
-0.851,-0.492,-0.186,-41.66,-2.32,8.39,1785095049299.1282
-0.842,-0.497,-0.186,-44.31,-3.75,9.49,1785095049299.336
-0.823,-0.492,-0.183,-46.05,-4.91,9.34,1785095049299.566
-0.806,-0.492,-0.182,-47.27,-5.34,9.83,1785095049299.791
-0.793,-0.515,-0.193,-47.91,-5.22,10.25,1785095049300.04
-0.805,-0.529,-0.199,-48.49,-5.04,9.74,1785095049300.264
-0.793,-0.55,-0.191,-46.88,-4.58,10.47,1785095049300.4648
-0.781,-0.552,-0.19,-42.33,-3.42,9.7,1785095049300.673
-0.794,-0.529,-0.203,-37.14,-2.01,8.12,1785095049300.885
-0.817,-0.518,-0.212,-33.45,-2.08,8.73,1785095049301.092
-0.823,-0.515,-0.211,-30.21,-3.05,10.25,1785095049301.306
-0.817,-0.519,-0.206,-26.83,-3.2,11.69,1785095049301.519
-0.807,-0.515,-0.206,-23.59,-2.72,12.3,1785095049301.733
-0.812,-0.508,-0.212,-20.29,-2.5,10.62,1785095049301.936
-0.822,-0.527,-0.22,-17.98,-2.62,10.25,1785095049302.1362
-0.823,-0.537,-0.22,-16.24,-2.44,11.11,1785095049302.3328
-0.829,-0.516,-0.229,-14.07,-2.17,12.02,1785095049302.524
-0.828,-0.503,-0.237,-12.63,-1.83,12.91,1785095049302.779
-0.824,-0.489,-0.252,-13.28,-1.43,12.57,1785095049302.993
-0.819,-0.487,-0.26,-14.62,-1.01,12.76,1785095049303.191
-0.82,-0.478,-0.264,-15.41,-0.49,11.47,1785095049303.388
-0.814,-0.486,-0.262,-15.87,0.31,10.74,1785095049303.6008
-0.818,-0.501,-0.254,-16.02,1.25,9.92,1785095049303.801
-0.826,-0.513,-0.245,-15.23,1.62,9.28,1785095049303.991
-0.827,-0.515,-0.241,-13.4,1.77,9.22,1785095049304.189
-0.827,-0.5,-0.235,-11.11,1.77,9.0,1785095049304.384
-0.822,-0.517,-0.241,-7.63,2.26,8.51,1785095049304.5928
-0.824,-0.522,-0.243,-4.24,2.9,8.0,1785095049304.822
-0.83,-0.494,-0.245,-2.26,2.96,6.93,1785095049305.0198
-0.827,-0.474,-0.251,-2.04,3.3,6.99,1785095049305.216
-0.827,-0.471,-0.25,-2.72,3.27,6.62,1785095049305.404
-0.833,-0.471,-0.25,-4.21,3.2,5.43,1785095049305.5999
-0.836,-0.479,-0.257,-6.29,3.33,5.31,1785095049305.7961
-0.84,-0.48,-0.258,-8.85,3.3,5.4,1785095049305.9849
-0.838,-0.478,-0.256,-10.99,3.23,6.5,1785095049306.184
-0.837,-0.462,-0.25,-12.21,2.81,7.02,1785095049306.383
-0.832,-0.45,-0.249,-12.94,2.17,6.93,1785095049306.5732
-0.829,-0.442,-0.246,-14.74,1.62,6.71,1785095049306.772
-0.825,-0.449,-0.239,-17.15,0.76,6.96,1785095049306.976
-0.823,-0.444,-0.233,-19.71,-0.12,7.66,1785095049307.174
-0.826,-0.43,-0.241,-22.4,-0.46,8.18,1785095049307.3853
-0.829,-0.438,-0.254,-25.45,-0.64,8.55,1785095049307.585
-0.836,-0.442,-0.259,-28.72,-1.07,9.09,1785095049307.784
-0.841,-0.439,-0.258,-30.46,-1.34,10.16,1785095049307.9749
-0.844,-0.437,-0.262,-30.67,-1.46,11.44,1785095049308.1658
-0.847,-0.446,-0.263,-30.4,-1.98,12.67,1785095049308.358
-0.85,-0.447,-0.25,-28.75,-2.62,13.55,1785095049308.543
-0.854,-0.432,-0.233,-25.57,-3.36,15.23,1785095049308.7349
-0.857,-0.415,-0.226,-22.68,-4.18,17.49,1785095049308.919
-0.855,-0.403,-0.223,-21.0,-4.85,18.98,1785095049309.1042
-0.855,-0.387,-0.227,-18.98,-5.65,20.2,1785095049309.4778
-0.858,-0.391,-0.242,-19.81,-5.13,20.75,1785095049309.665
-0.889,-0.788,-0.383,-0.43,15.41,-11.54,1785095049310.0679
-0.987,-0.759,-0.413,3.88,18.13,-14.92,1785095049310.2532
-1.088,-0.727,-0.395,-1.1,19.47,-17.94,1785095049310.4373
-1.164,-0.713,-0.365,-8.67,17.91,-20.26,1785095049315.396
-1.203,-0.719,-0.322,-14.95,18.37,-21.49,1785095049328.644
-1.223,-0.742,-0.276,-15.5,18.83,-24.45,1785095049334.297
-1.234,-0.745,-0.218,-9.4,19.35,-28.05,1785095049345.001
-1.234,-0.767,-0.209,6.44,20.51,-32.5,1785095049355.5552
-1.247,-0.772,-0.237,25.97,21.94,-37.72,1785095049368.804
-1.247,-0.74,-0.261,42.94,22.61,-40.65,1785095049374.4587
-1.236,-0.699,-0.301,57.19,23.44,-41.17,1785095049385.279
-1.225,-0.676,-0.35,67.35,24.75,-40.53,1785095049398.567
-1.194,-0.664,-0.325,74.74,25.51,-39.46,1785095049404.2617
-1.134,-0.679,-0.299,85.51,23.99,-39.12,1785095049415.0872
-1.079,-0.674,-0.271,98.39,21.42,-38.27,1785095049425.691
-1.029,-0.626,-0.235,109.2,15.99,-35.1,1785095049438.997
-0.971,-0.572,-0.234,115.76,7.75,-30.73,1785095049444.683
-0.916,-0.517,-0.256,114.26,-1.01,-26.03,1785095049455.555
-0.867,-0.487,-0.296,105.35,-8.48,-20.84,1785095049468.764
-0.839,-0.483,-0.335,91.49,-13.37,-15.38,1785095049474.5312
-0.826,-0.489,-0.335,76.24,-16.39,-8.51,1785095049485.1023
-0.803,-0.517,-0.319,63.51,-19.96,-0.18,1785095049495.7
-0.769,-0.548,-0.288,52.31,-23.71,9.09,1785095049509.1401
-0.73,-0.595,-0.258,43.67,-27.38,19.38,1785095049514.9849
-0.691,-0.653,-0.245,38.48,-31.13,30.03,1785095049525.513
-0.645,-0.691,-0.249,37.72,-34.67,40.99,1785095049536.155
-0.58,-0.702,-0.267,41.72,-37.69,51.67,1785095049549.3582
-0.507,-0.699,-0.288,49.01,-39.86,61.25,1785095049555.39
-0.458,-0.714,-0.302,57.89,-41.66,68.15,1785095049565.805
-0.427,-0.73,-0.299,67.54,-42.88,72.24,1785095049579.083
-0.401,-0.726,-0.287,76.88,-43.73,75.17,1785095049585.082
-0.383,-0.728,-0.304,85.97,-44.04,77.21,1785095049595.542
-0.365,-0.719,-0.345,92.59,-42.66,76.91,1785095049608.855
-0.348,-0.688,-0.378,95.13,-40.25,75.99,1785095049614.8757
-0.356,-0.627,-0.41,89.11,-37.63,75.56,1785095049625.2183
-0.388,-0.604,-0.43,74.16,-35.83,76.39,1785095049635.856
-0.431,-0.636,-0.411,53.32,-34.12,77.0,1785095049649.0933
-0.474,-0.688,-0.357,32.29,-33.36,77.0,1785095049655.113
-0.473,-0.741,-0.345,16.02,-33.02,77.46,1785095049665.604
-0.45,-0.758,-0.317,5.62,-31.31,78.92,1785095049676.1028
-0.435,-0.789,-0.24,4.49,-30.24,81.06,1785095049689.3599
-0.416,-0.859,-0.178,13.67,-30.61,80.57,1785095049695.701
-0.397,-0.909,-0.179,30.85,-30.49,77.46,1785095049705.7769
-0.389,-0.901,-0.227,52.4,-28.63,74.43,1785095049719.073
-0.407,-0.85,-0.296,70.99,-26.22,71.44,1785095049724.927
-0.433,-0.807,-0.351,80.6,-23.74,67.84,1785095049735.6008
-0.438,-0.785,-0.393,81.36,-21.39,63.33,1785095049746.14
-0.451,-0.782,-0.391,77.88,-18.59,58.5,1785095049759.371
-0.475,-0.784,-0.342,72.66,-16.11,54.45,1785095049765.28
-0.492,-0.78,-0.27,67.51,-14.5,51.88,1785095049775.7703
-0.514,-0.779,-0.205,66.35,-12.88,50.54,1785095049789.022
-0.546,-0.768,-0.163,67.84,-11.87,49.38,1785095049794.943
-0.563,-0.746,-0.156,69.09,-11.81,47.64,1785095049805.5369
-0.567,-0.729,-0.16,68.24,-11.99,45.05,1785095049816.17
-0.627,-0.705,-0.197,65.31,-10.86,39.4,1785095049829.375
-0.594,-0.81,-0.346,57.16,-14.8,44.37,1785095049835.364
-0.602,-0.708,-0.339,42.33,-10.13,34.06,1785095049845.8528
-0.67,-0.725,-0.285,38.51,-0.15,27.41,1785095049859.0989
-0.73,-0.807,-0.201,36.01,-0.7,26.03,1785095049865.0469
-0.785,-0.811,-0.102,39.06,0.31,23.19,1785095049875.2651
-0.812,-0.848,-0.103,51.15,4.18,22.95,1785095049885.856
-0.796,-0.881,-0.167,61.34,7.42,22.13,1785095049899.059
-0.757,-0.891,-0.231,69.8,12.85,18.83,1785095049905.038
-0.737,-0.893,-0.283,76.69,19.93,12.39,1785095049915.467
-0.754,-0.913,-0.277,82.03,27.62,3.66,1785095049926.013
-0.753,-0.947,-0.24,89.63,34.58,-4.7,1785095049939.372
-0.748,-0.939,-0.186,102.88,41.75,-16.24,1785095049944.907
-0.744,-0.952,-0.18,121.34,48.13,-27.25,1785095049955.7068
-0.751,-1.002,-0.235,142.19,54.35,-38.36,1785095049969.141
-0.779,-1.048,-0.298,162.63,61.77,-49.71,1785095049975.3499
-0.789,-1.066,-0.348,179.45,67.66,-60.46,1785095049985.8088
-0.788,-1.046,-0.42,190.01,71.69,-70.65,1785095049999.032
-0.79,-1.032,-0.456,194.22,75.96,-79.13,1785095050004.727
-0.802,-1.028,-0.483,191.47,78.68,-87.13,1785095050015.784
-0.802,-1.028,-0.483,182.35,79.87,-94.88,1785095050029.0461
-0.812,-1.049,-0.492,169.71,81.06,-102.18,1785095050034.989
-0.841,-1.079,-0.459,154.36,80.63,-106.36,1785095050045.919
-0.865,-1.112,-0.425,138.13,80.45,-110.51,1785095050059.1638
-0.877,-1.114,-0.378,125.34,82.64,-118.84,1785095050065.158
-0.91,-1.095,-0.335,125.34,82.64,-118.84,1785095050076.1653
-0.932,-1.082,-0.312,113.41,84.63,-129.15,1785095050089.4102
-0.935,-1.051,-0.274,101.84,87.37,-140.29,1785095050095.5442
-0.92,-1.078,-0.257,93.11,86.61,-143.41,1785095050108.84
-0.854,-1.088,-0.237,86.73,85.67,-146.76,1785095050114.741
-0.81,-1.104,-0.233,84.99,90.12,-154.33,1785095050125.53
-0.774,-1.14,-0.229,79.74,91.25,-157.93,1785095050138.8708
-0.709,-1.126,-0.203,68.97,92.1,-162.82,1785095050144.707
-0.648,-1.12,-0.176,57.89,95.13,-168.92,1785095050155.5278
-0.616,-1.13,-0.137,46.54,96.04,-173.28,1785095050168.722
-0.569,-1.135,-0.099,36.68,97.29,-175.51,1785095050174.889
-0.563,-1.14,-0.06,29.02,99.0,-178.41,1785095050185.433
-0.55,-1.177,-0.028,22.31,99.4,-178.47,1785095050196.1938
-0.511,-1.221,-0.013,16.36,100.8,-179.05,1785095050209.4377
-0.484,-1.251,0.019,12.02,102.97,-181.62,1785095050215.53
-0.445,-1.268,0.047,11.32,104.65,-182.93,1785095050228.8762
-0.392,-1.277,0.083,15.38,106.11,-185.28,1785095050234.859
-0.364,-1.297,0.13,23.93,106.97,-189.89,1785095050245.8298
-0.373,-1.337,0.174,35.34,106.78,-194.92,1785095050259.068
-0.391,-1.364,0.205,45.87,104.92,-199.16,1785095050265.001
-0.375,-1.34,0.212,51.42,101.96,-201.85,1785095050276.176
-0.348,-1.264,0.217,49.78,98.73,-202.73,1785095050289.4238
-0.315,-1.222,0.23,43.09,94.39,-201.76,1785095050295.593
-0.289,-1.237,0.258,34.55,89.45,-202.0,1785095050306.0168
-0.282,-1.265,0.292,26.58,84.72,-202.61,1785095050319.8608
-0.295,-1.264,0.326,20.51,79.56,-202.06,1785095050325.293
-0.282,-1.249,0.339,17.79,74.16,-200.99,1785095050335.9958
-0.249,-1.203,0.336,16.05,69.19,-201.45,1785095050349.194
-0.199,-1.164,0.323,13.52,64.21,-201.42,1785095050355.2131
-0.144,-1.161,0.326,10.07,59.36,-202.06,1785095050365.919
-0.111,-1.144,0.335,3.72,55.21,-202.61,1785095050379.136
-0.093,-1.109,0.37,-6.35,51.91,-200.84,1785095050385.1409
-0.084,-1.092,0.387,-18.49,47.88,-197.3,1785095050395.738
-0.057,-1.09,0.381,-30.4,44.01,-193.79,1785095050408.9502
-0.014,-1.082,0.369,-39.46,40.93,-191.38,1785095050415.144
0.052,-1.063,0.351,-44.53,38.36,-188.57,1785095050425.463
0.122,-1.054,0.346,-46.21,36.29,-186.41,1785095050439.156
0.141,-1.054,0.37,-45.35,34.21,-185.4,1785095050444.525
0.133,-1.058,0.379,-41.84,32.14,-183.54,1785095050455.809
0.136,-1.038,0.381,-38.79,29.88,-181.07,1785095050468.884
0.156,-0.993,0.368,-40.16,26.67,-177.8,1785095050474.887
0.2,-0.939,0.354,-47.61,23.04,-173.8,1785095050485.62
0.252,-0.903,0.336,-58.38,20.08,-169.53,1785095050498.861
0.266,-0.885,0.318,-70.68,18.25,-165.32,1785095050504.833
0.275,-0.887,0.322,-81.45,17.15,-161.41,1785095050515.552
0.296,-0.906,0.334,-87.83,16.08,-159.09,1785095050528.821
0.305,-0.945,0.334,-87.89,15.02,-157.84,1785095050534.97
0.316,-0.974,0.327,-82.92,13.61,-157.08,1785095050545.547
0.329,-0.975,0.307,-77.18,11.81,-156.19,1785095050558.84
0.345,-0.941,0.314,-74.5,9.77,-153.66,1785095050564.711
0.356,-0.93,0.323,-72.42,7.05,-150.76,1785095050575.4548
0.364,-0.957,0.316,-68.88,4.3,-149.69,1785095050585.963
0.378,-0.96,0.306,-65.58,1.5,-149.63,1785095050599.238
0.395,-0.929,0.285,-62.59,-0.79,-148.56,1785095050605.3
0.392,-0.923,0.255,-59.18,-2.14,-146.89,1785095050615.668
0.396,-0.906,0.243,-58.02,-3.78,-145.76,1785095050629.0232
0.402,-0.911,0.233,-56.31,-6.23,-145.33,1785095050634.577
0.41,-0.896,0.226,-55.06,-8.7,-145.6,1785095050645.4568
0.403,-0.866,0.223,-54.14,-11.87,-145.73,1785095050656.196
0.385,-0.844,0.215,-52.92,-15.35,-145.63,1785095050669.416
0.374,-0.847,0.184,-48.83,-19.14,-146.73,1785095050675.304
0.396,-0.825,0.146,-44.1,-23.56,-149.11,1785095050686.06
0.412,-0.77,0.114,-41.41,-28.47,-151.52,1785095050699.3333
0.397,-0.727,0.085,-39.7,-33.91,-153.48,1785095050705.266
0.376,-0.66,0.053,-41.63,-39.09,-155.4,1785095050716.064
0.368,-0.574,0.017,-47.09,-43.49,-155.77,1785095050729.285
0.346,-0.549,-0.028,-50.54,-46.54,-156.83,1785095050735.3433
0.335,-0.535,-0.038,-52.86,-48.98,-159.86,1785095050745.997
0.357,-0.505,-0.056,-53.19,-51.79,-163.46,1785095050759.226
0.357,-0.422,-0.074,-55.7,-55.39,-165.01,1785095050765.187
0.353,-0.308,-0.096,-62.01,-59.42,-164.8,1785095050776.0178
0.347,-0.224,-0.143,-70.41,-63.78,-165.56,1785095050789.136
0.349,-0.143,-0.195,-83.86,-67.75,-166.94,1785095050794.989
0.357,-0.011,-0.226,-103.27,-71.41,-167.58,1785095050806.05
0.368,0.091,-0.247,-120.61,-74.25,-167.18,1785095050819.34
0.374,0.167,-0.263,-134.74,-76.17,-170.66,1785095050825.258
0.38,0.206,-0.274,-145.97,-78.4,-173.8,1785095050838.66
0.375,0.221,-0.322,-154.42,-79.71,-175.12,1785095050844.6562
0.362,0.287,-0.365,-162.33,-79.84,-174.14,1785095050855.742
0.377,0.381,-0.384,-170.08,-79.84,-170.93,1785095050868.9148
0.388,0.433,-0.415,-175.63,-79.01,-168.34,1785095050874.832
0.386,0.522,-0.461,-181.25,-76.63,-165.14,1785095050885.9192
0.371,0.681,-0.482,-186.16,-71.5,-157.38,1785095050899.18
0.375,0.801,-0.51,-182.56,-64.24,-146.92,1785095050905.236
0.381,0.874,-0.497,-173.86,-55.54,-137.06,1785095050916.1228
0.412,0.881,-0.474,-164.83,-46.88,-127.41,1785095050929.594
0.449,0.851,-0.434,-157.11,-39.16,-117.83,1785095050935.553
0.446,0.84,-0.404,-146.21,-33.33,-106.57,1785095050948.922
0.424,0.894,-0.378,-127.87,-28.78,-90.67,1785095050954.653
0.42,0.958,-0.388,-101.81,-24.78,-72.97,1785095050965.652
0.405,1.03,-0.395,-73.34,-20.54,-56.4,1785095050978.82
0.387,1.09,-0.385,-44.47,-16.36,-39.52,1785095050984.812
0.404,1.13,-0.368,-18.46,-13.03,-21.73,1785095050995.278
0.443,1.155,-0.358,3.36,-10.01,-4.15,1785095051005.618
0.472,1.156,-0.352,21.94,-6.44,13.43,1785095051019.016
0.495,1.122,-0.345,36.96,-2.93,31.71,1785095051024.939
0.526,1.066,-0.343,49.01,0.37,49.81,1785095051035.213
0.549,0.989,-0.342,59.48,3.36,67.81,1785095051045.782
0.578,0.883,-0.355,69.09,5.07,84.6,1785095051059.0022
0.6,0.769,-0.396,79.5,6.16,98.45,1785095051064.955
0.615,0.671,-0.438,91.19,8.36,111.15,1785095051075.306
0.634,0.597,-0.501,102.73,11.6,123.51,1785095051086.186
0.667,0.527,-0.55,110.32,16.63,135.01,1785095051099.416
0.708,0.427,-0.581,112.19,22.13,143.83,1785095051105.4302
0.764,0.326,-0.574,110.51,27.89,150.94,1785095051118.834
0.821,0.19,-0.542,112.22,33.94,157.44,1785095051124.8079
0.857,0.023,-0.503,121.1,40.44,162.63,1785095051135.843
0.872,-0.151,-0.462,137.33,47.15,166.36,1785095051148.982
0.881,-0.313,-0.437,159.06,53.22,168.25,1785095051155.087
0.906,-0.437,-0.45,180.24,59.21,169.13,1785095051165.986
0.929,-0.509,-0.474,194.77,66.84,170.26,1785095051179.229
0.944,-0.576,-0.441,205.82,75.99,171.76,1785095051185.256
0.952,-0.698,-0.356,224.31,84.29,169.71,1785095051196.2122
0.951,-0.803,-0.311,248.7,90.55,164.16,1785095051209.4663
0.944,-0.732,-0.293,259.56,98.15,162.66,1785095051215.553
0.941,-0.577,-0.202,252.08,106.42,164.68,1785095051228.9128
0.951,-0.595,-0.085,239.36,110.54,160.74,1785095051234.978
0.952,-0.704,0.015,224.62,112.34,148.41,1785095051246.1262
0.935,-0.776,0.075,209.63,112.49,135.93,1785095051259.347
0.917,-0.789,0.097,194.25,111.27,125.1,1785095051265.387
0.882,-0.81,0.123,175.85,107.85,110.66,1785095051278.927
0.849,-0.899,0.188,154.52,102.18,93.14,1785095051284.894
0.833,-0.942,0.275,130.71,95.0,74.28,1785095051295.915
0.826,-0.941,0.39,106.94,85.73,55.3,1785095051309.164
0.826,-0.941,0.39,81.33,72.39,36.84,1785095051315.0688
0.829,-0.957,0.466,52.86,57.89,19.84,1785095051325.726
0.817,-1.005,0.5,23.1,44.25,4.64,1785095051339.036
0.808,-1.042,0.518,-3.78,30.98,-9.37,1785095051344.843
0.808,-1.067,0.538,-3.78,30.98,-9.37,1785095051355.041
0.818,-1.09,0.531,-23.56,18.04,-24.02,1785095051365.57
0.835,-1.088,0.505,-35.58,5.8,-39.12,1785095051376.199
0.854,-1.055,0.456,-41.38,-5.95,-54.02,1785095051389.518
0.848,-0.993,0.397,-44.19,-16.66,-67.84,1785095051395.305
0.845,-0.917,0.352,-48.19,-26.03,-79.56,1785095051405.833
0.85,-0.852,0.32,-53.96,-33.78,-89.63,1785095051418.994
0.843,-0.81,0.289,-60.49,-40.44,-98.36,1785095051424.9668
0.843,-0.753,0.277,-68.91,-46.85,-106.11,1785095051435.5789
0.848,-0.692,0.263,-77.12,-53.53,-113.16,1785095051448.8352
0.847,-0.634,0.216,-83.99,-60.15,-119.79,1785095051454.993
0.841,-0.558,0.151,-90.09,-66.38,-125.86,1785095051465.5193
0.83,-0.47,0.082,-94.97,-72.24,-131.17,1785095051478.866
0.82,-0.409,0.001,-98.76,-77.36,-136.3,1785095051484.8142
0.828,-0.355,-0.058,-102.6,-81.39,-142.61,1785095051495.6108
0.819,-0.29,-0.069,-106.69,-84.63,-148.41,1785095051508.8892
0.8,-0.231,-0.07,-108.28,-88.14,-151.52,1785095051514.7869
0.785,-0.172,-0.075,-106.57,-92.72,-153.87,1785095051525.829
0.769,-0.088,-0.105,-104.43,-98.12,-156.62,1785095051539.218
0.762,0.023,-0.145,-107.06,-102.97,-157.87,1785095051545.064
0.728,0.117,-0.18,-113.9,-105.93,-158.48,1785095051558.613
0.71,0.18,-0.214,-118.2,-106.2,-157.05,1785095051564.555
0.695,0.271,-0.243,-119.14,-107.39,-156.83,1785095051575.839
0.662,0.423,-0.272,-111.79,-107.52,-154.03,1785095051589.231
0.671,0.57,-0.349,-93.78,-107.0,-146.86,1785095051595.074
0.67,0.747,-0.448,-75.96,-105.11,-139.9,1785095051606.1921
0.652,0.899,-0.544,-65.86,-98.82,-130.04,1785095051619.3762
0.652,0.945,-0.613,-65.46,-88.38,-117.16,1785095051625.2852
0.689,0.945,-0.625,-75.32,-76.39,-103.03,1785095051636.121
0.724,0.925,-0.602,-87.04,-64.49,-88.23,1785095051649.3188
0.725,0.873,-0.589,-93.78,-54.05,-71.78,1785095051655.4229
0.701,0.824,-0.621,-94.52,-44.34,-54.26,1785095051665.793
0.682,0.793,-0.657,-86.34,-34.79,-35.55,1785095051679.0027
0.696,0.768,-0.68,-66.26,-25.91,-17.67,1785095051684.928
0.705,0.756,-0.684,-36.26,-16.57,-0.95,1785095051695.467
0.713,0.734,-0.671,-2.2,-7.23,16.3,1785095051705.885
0.745,0.717,-0.664,29.39,1.04,31.37,1785095051719.1492
0.777,0.692,-0.684,56.37,8.79,45.59,1785095051725.0728
0.798,0.672,-0.692,74.86,17.55,59.66,1785095051735.5918
0.821,0.646,-0.678,83.77,25.76,72.02,1785095051746.061
0.843,0.63,-0.673,82.0,33.17,82.52,1785095051759.312
0.853,0.601,-0.646,72.7,40.41,93.14,1785095051765.239
0.862,0.538,-0.617,60.49,47.09,102.69,1785095051775.842
0.866,0.458,-0.593,49.62,53.62,110.54,1785095051789.21
0.827,0.356,-0.571,40.38,61.31,117.1,1785095051795.079
0.928,0.235,-0.527,32.62,69.22,123.2,1785095051805.85
0.918,0.144,-0.511,29.51,68.97,124.97,1785095051819.072
0.913,-0.026,-0.477,30.92,73.61,136.75,1785095051825.0188
0.939,-0.131,-0.436,33.23,84.29,141.36,1785095051835.822
0.968,-0.177,-0.425,36.38,85.54,139.56,1785095051848.9868
0.943,-0.25,-0.403,38.82,85.91,136.51,1785095051855.2651
0.93,-0.347,-0.344,40.96,94.45,135.84,1785095051865.782
0.945,-0.455,-0.28,46.33,99.8,138.1,1785095051878.953
0.963,-0.53,-0.217,54.38,100.04,136.85,1785095051884.9512
0.994,-0.563,-0.179,61.83,100.34,130.68,1785095051895.872
1.004,-0.6,-0.146,65.4,100.25,125.34,1785095051909.1147
0.967,-0.655,-0.102,66.19,101.2,120.12,1785095051915.081
0.931,-0.695,-0.065,65.03,101.96,111.36,1785095051926.146
0.926,-0.713,-0.028,60.43,101.02,100.83,1785095051939.56
0.926,-0.739,0.014,52.92,99.0,89.48,1785095051944.887
0.932,-0.781,0.057,42.97,95.8,77.06,1785095051955.836
0.931,-0.815,0.102,31.8,90.88,64.7,1785095051969.249
0.911,-0.854,0.145,22.22,85.18,54.17,1785095051975.51
0.902,-0.875,0.213,15.23,80.23,40.89,1785095051985.708
0.922,-0.907,0.255,10.22,72.7,27.28,1785095051998.8962
0.923,-0.936,0.296,4.58,63.3,16.08,1785095052004.5627
0.865,-0.918,0.347,3.23,56.64,1.4,1785095052015.209
0.896,-0.916,0.364,4.58,46.6,-13.82,1785095052025.6528
0.928,-0.882,0.377,3.57,34.21,-28.38,1785095052038.979
0.888,-0.861,0.39,3.72,21.21,-34.49,1785095052044.8252
0.909,-0.816,0.37,7.02,8.61,-44.31,1785095052055.252
0.912,-0.783,0.351,9.13,-0.82,-56.09,1785095052065.529
0.881,-0.716,0.345,8.67,-9.7,-71.6,1785095052075.9402
0.891,-0.71,0.335,5.52,-21.09,-82.31,1785095052089.324
0.874,-0.691,0.346,1.56,-31.59,-92.23,1785095052095.428
0.853,-0.657,0.344,1.59,-41.84,-101.47,1785095052105.678
0.849,-0.582,0.313,1.74,-53.56,-111.76,1785095052116.531
0.848,-0.482,0.283,-1.4,-64.49,-121.43,1785095052129.456
0.86,-0.415,0.247,-6.41,-73.92,-129.0,1785095052135.5361
0.854,-0.365,0.216,-12.12,-82.46,-135.78,1785095052145.963
0.831,-0.332,0.182,-16.17,-90.64,-140.32,1785095052159.2058
0.811,-0.301,0.134,-19.07,-98.45,-143.53,1785095052165.1143
0.785,-0.243,0.089,-21.12,-105.84,-147.5,1785095052176.069
0.772,-0.155,0.036,-22.06,-112.52,-151.83,1785095052189.3508
0.76,-0.066,-0.013,-24.02,-117.98,-155.61,1785095052195.257
0.746,0.01,-0.064,-28.87,-123.29,-157.81,1785095052208.7148
0.727,0.107,-0.117,-36.71,-127.23,-159.22,1785095052214.762
0.724,0.193,-0.184,-43.55,-128.76,-158.82,1785095052225.655
0.716,0.27,-0.232,-49.29,-127.75,-156.56,1785095052239.037
0.704,0.34,-0.279,-53.74,-125.52,-152.9,1785095052244.896
0.697,0.407,-0.357,-56.89,-122.38,-148.32,1785095052255.884
0.681,0.506,-0.428,-59.79,-118.14,-140.78,1785095052269.105
0.667,0.598,-0.481,-62.32,-111.82,-130.71,1785095052275.0962
0.654,0.626,-0.515,-64.3,-102.39,-120.15,1785095052286.098
0.647,0.628,-0.525,-65.07,-92.29,-110.66,1785095052299.347
0.656,0.647,-0.536,-59.94,-82.92,-101.35,1785095052305.439
0.658,0.698,-0.579,-46.36,-74.16,-90.0,1785095052315.9412
0.641,0.782,-0.624,-27.25,-64.61,-75.93,1785095052329.231
0.636,0.853,-0.657,-4.91,-55.73,-60.73,1785095052335.442
0.632,0.892,-0.678,17.67,-48.01,-45.93,1785095052345.581
0.629,0.902,-0.676,40.04,-40.13,-31.46,1785095052358.8271
0.638,0.889,-0.681,61.37,-32.78,-17.55,1785095052364.734
0.652,0.871,-0.684,80.26,-25.33,-3.91,1785095052375.2698
0.669,0.846,-0.7,96.74,-17.49,9.55,1785095052385.772
0.688,0.83,-0.712,109.65,-8.88,22.68,1785095052398.976
0.722,0.818,-0.72,118.99,-0.43,35.74,1785095052405.056
0.744,0.783,-0.719,126.01,7.11,47.91,1785095052415.562
0.749,0.732,-0.726,130.44,14.16,59.3,1785095052426.1848
0.744,0.685,-0.729,129.98,21.03,70.59,1785095052439.583
0.73,0.653,-0.73,124.36,27.28,80.9,1785095052445.369
0.743,0.615,-0.701,115.85,33.78,89.88,1785095052456.1702
0.79,0.558,-0.699,106.14,36.68,95.92,1785095052469.394
0.786,0.535,-0.716,90.85,38.82,101.41,1785095052475.327
0.803,0.532,-0.699,70.38,45.9,107.67,1785095052486.1309
0.827,0.492,-0.689,49.17,48.46,114.23,1785095052499.362
0.827,0.403,-0.669,29.54,50.69,120.12,1785095052505.492
0.807,0.319,-0.617,12.73,57.59,123.29,1785095052516.094
0.824,0.217,-0.575,0.21,62.11,128.09,1785095052529.3271
0.841,0.128,-0.547,-10.44,63.39,131.72,1785095052535.616
0.837,0.056,-0.526,-19.32,64.79,134.43,1785095052545.969
0.846,-0.027,-0.504,-28.2,66.96,138.13,1785095052559.241
0.864,-0.11,-0.486,-36.59,69.64,141.54,1785095052565.191
0.869,-0.181,-0.471,-43.61,72.42,144.38,1785095052575.9768
0.863,-0.275,-0.457,-48.52,75.08,147.37,1785095052589.286
0.863,-0.275,-0.457,-51.61,77.03,149.14,1785095052595.167
0.861,-0.365,-0.413,-50.26,77.79,149.21,1785095052605.94
0.866,-0.445,-0.36,-45.81,78.71,148.66,1785095052619.2598
0.887,-0.504,-0.314,-40.47,79.93,146.76,1785095052625.247
0.907,-0.537,-0.256,-40.47,79.93,146.76,1785095052635.9329
0.909,-0.604,-0.236,-32.78,81.12,142.49,1785095052649.077
0.891,-0.691,-0.211,-24.81,83.29,135.5,1785095052655.334
0.872,-0.786,-0.178,-16.69,85.06,127.11,1785095052665.63
0.875,-0.862,-0.153,-9.83,86.0,118.32,1785095052678.7761
0.879,-0.921,-0.126,-3.78,85.82,109.35,1785095052685.039
0.886,-0.962,-0.099,1.4,85.15,100.04,1785095052695.617
0.893,-1.005,-0.062,6.35,84.05,89.36,1785095052706.0571
0.888,-1.048,-0.02,12.18,82.19,77.67,1785095052719.334
0.876,-1.064,0.021,17.33,79.65,65.68,1785095052725.0361
0.863,-1.045,0.081,19.71,76.48,53.5,1785095052735.804
0.855,-1.046,0.137,21.76,71.75,40.44,1785095052749.014
0.852,-1.056,0.183,22.52,65.37,25.21,1785095052754.983
0.84,-1.048,0.224,21.97,57.89,9.67,1785095052765.376
0.825,-1.018,0.248,20.05,49.17,-5.22,1785095052775.9358
0.831,-0.977,0.255,16.66,39.46,-19.71,1785095052789.165
0.848,-0.931,0.255,11.81,29.51,-35.1,1785095052795.162
0.854,-0.887,0.258,6.16,19.38,-50.94,1785095052805.551
0.853,-0.858,0.259,1.13,9.34,-66.01,1785095052816.0388
0.849,-0.822,0.268,-3.3,-0.43,-79.78,1785095052829.267
0.848,-0.785,0.28,-6.41,-10.65,-92.17,1785095052835.1892
0.853,-0.747,0.286,-8.33,-20.78,-103.31,1785095052845.4668
0.846,-0.717,0.278,-8.48,-31.31,-112.89,1785095052856.2087
0.839,-0.674,0.261,-7.54,-41.87,-121.83,1785095052869.384
0.831,-0.629,0.245,-4.73,-52.55,-130.16,1785095052875.329
0.817,-0.579,0.215,0.4,-63.33,-138.25,1785095052885.8398
0.794,-0.515,0.183,6.16,-73.61,-146.03,1785095052899.0999
0.77,-0.442,0.146,12.05,-83.62,-152.71,1785095052905.066
0.751,-0.379,0.102,18.68,-93.26,-158.57,1785095052915.77
0.729,-0.308,0.041,25.09,-102.27,-163.79,1785095052929.085
0.704,-0.215,-0.024,29.18,-110.35,-167.06,1785095052935.295
0.689,-0.088,-0.088,27.59,-117.86,-167.82,1785095052946.002
0.685,0.066,-0.142,18.13,-123.48,-166.08,1785095052959.3953
0.686,0.162,-0.202,5.71,-127.23,-163.3,1785095052965.2742
0.684,0.24,-0.272,-8.58,-129.15,-161.93,1785095052976.0483
0.676,0.359,-0.325,-23.65,-128.48,-158.88,1785095052989.3289
0.68,0.448,-0.398,-34.73,-125.64,-152.5,1785095052995.241
0.674,0.519,-0.484,-43.31,-120.3,-145.66,1785095053008.779
0.67,0.565,-0.549,-51.24,-111.27,-136.97,1785095053014.8262
0.671,0.574,-0.552,-57.71,-100.74,-126.77,1785095053025.6519
0.675,0.559,-0.553,-58.26,-91.1,-116.18,1785095053038.974
0.664,0.573,-0.579,-51.03,-81.36,-103.67,1785095053044.832
0.653,0.638,-0.625,-34.64,-70.99,-87.34,1785095053055.2927
0.652,0.722,-0.7,-10.16,-60.61,-69.8,1785095053066.1829
0.651,0.805,-0.782,18.13,-50.29,-53.22,1785095053079.394
0.649,0.881,-0.838,45.35,-39.55,-36.9,1785095053085.1519
0.662,0.921,-0.869,68.18,-28.05,-21.0,1785095053095.8928
0.682,0.933,-0.88,83.25,-15.99,-5.86,1785095053109.083
0.705,0.93,-0.861,88.56,-4.06,10.04,1785095053114.9858
0.724,0.905,-0.828,87.71,6.5,26.03,1785095053125.3
0.731,0.844,-0.791,86.46,15.9,41.41,1785095053135.938
0.734,0.767,-0.76,86.0,23.93,55.21,1785095053149.209
0.742,0.704,-0.737,84.9,30.92,66.96,1785095053155.2751
0.763,0.648,-0.732,82.61,36.59,76.69,1785095053165.653
0.78,0.6,-0.74,79.41,41.11,84.9,1785095053178.8643
0.783,0.554,-0.756,73.89,45.78,92.41,1785095053184.8298
0.779,0.518,-0.73,62.59,50.08,98.7,1785095053195.351
0.796,0.469,-0.7,47.73,52.71,104.34,1785095053206.141
0.813,0.398,-0.67,32.93,54.99,109.53,1785095053219.392
0.822,0.329,-0.641,18.28,57.53,114.72,1785095053225.2942
0.833,0.263,-0.59,4.64,59.48,119.94,1785095053235.774
0.847,0.167,-0.553,-4.85,60.76,124.27,1785095053249.2302
0.856,0.061,-0.529,-11.38,62.84,127.69,1785095053255.517
0.872,-0.034,-0.516,-15.93,64.88,130.19,1785095053265.846
0.855,-0.109,-0.494,-19.5,67.54,131.93,1785095053279.1301
0.884,-0.209,-0.454,-22.68,70.59,136.39,1785095053285.087
0.913,-0.289,-0.41,-23.99,73.24,136.3,1785095053295.836
0.928,-0.36,-0.378,-23.16,74.07,135.38,1785095053309.123
0.931,-0.433,-0.349,-22.58,74.62,134.95,1785095053315.156
0.921,-0.501,-0.326,-22.1,76.2,133.4,1785095053325.823
0.912,-0.571,-0.295,-20.6,77.88,130.68,1785095053339.1628
0.92,-0.645,-0.258,-19.17,78.86,125.4,1785095053344.9888
0.934,-0.696,-0.215,-18.34,79.32,118.59,1785095053355.8408
0.941,-0.767,-0.189,-15.38,78.89,110.97,1785095053368.994
0.931,-0.83,-0.165,-12.09,78.77,101.6,1785095053375.004
0.92,-0.892,-0.13,-7.78,78.74,91.46,1785095053385.518
0.919,-0.944,-0.094,-2.41,77.79,80.32,1785095053396.086
0.921,-0.977,-0.049,2.41,76.24,69.19,1785095053409.3271
0.924,-0.991,0.006,6.9,73.46,58.26,1785095053415.4072
0.927,-0.989,0.062,11.38,69.06,46.69,1785095053425.646
0.929,-0.982,0.109,15.26,63.66,35.13,1785095053438.957
0.924,-0.969,0.148,18.43,57.25,23.53,1785095053444.7732
0.921,-0.953,0.174,21.36,49.78,11.47,1785095053455.523
0.918,-0.93,0.201,23.68,41.69,-1.59,1785095053465.8408
0.915,-0.906,0.22,25.18,33.02,-14.44,1785095053479.1199
0.903,-0.868,0.234,25.21,23.71,-26.95,1785095053485.11
0.892,-0.826,0.241,24.57,13.92,-39.06,1785095053495.58
0.881,-0.784,0.244,23.01,3.6,-51.03,1785095053506.1572
0.877,-0.752,0.239,21.21,-6.87,-62.5,1785095053519.351
0.879,-0.721,0.235,19.62,-17.4,-73.12,1785095053525.2869
0.874,-0.693,0.228,19.26,-28.05,-82.77,1785095053535.833
0.87,-0.654,0.216,19.71,-38.18,-91.22,1785095053548.997
0.854,-0.602,0.201,20.57,-48.01,-98.88,1785095053555.052
0.834,-0.554,0.178,22.4,-57.83,-105.53,1785095053565.595
0.818,-0.51,0.146,25.91,-67.63,-111.73,1785095053578.657
0.797,-0.471,0.105,31.53,-77.09,-117.44,1785095053584.805
0.776,-0.428,0.057,38.73,-85.88,-122.04,1785095053595.5332
0.763,-0.366,-0.014,44.47,-94.03,-126.01,1785095053608.854
0.748,-0.235,-0.087,41.99,-99.8,-128.15,1785095053614.912
0.734,-0.111,-0.163,32.23,-104.01,-128.3,1785095053625.578
0.711,0.004,-0.259,15.84,-106.14,-127.84,1785095053638.977
0.695,0.147,-0.331,-5.07,-105.47,-125.68,1785095053644.793
0.707,0.255,-0.386,-23.13,-103.03,-122.5,1785095053655.731
0.722,0.328,-0.43,-37.63,-99.03,-120.46,1785095053668.952
0.738,0.367,-0.446,-48.37,-93.23,-117.4,1785095053674.8748
0.758,0.35,-0.477,-56.4,-87.16,-113.77,1785095053685.661
0.763,0.332,-0.511,-62.17,-79.84,-109.99,1785095053698.9329
0.755,0.322,-0.529,-60.12,-71.63,-103.55,1785095053704.9192
0.738,0.32,-0.568,-49.23,-63.54,-94.82,1785095053715.53
0.72,0.383,-0.622,-34.15,-55.48,-83.71,1785095053726.1792
0.708,0.485,-0.675,-15.17,-46.85,-69.12,1785095053739.5452
0.71,0.58,-0.737,6.32,-36.74,-53.19,1785095053745.3408
0.718,0.663,-0.774,26.37,-26.0,-37.97,1785095053755.8457
0.733,0.709,-0.793,43.76,-16.24,-23.71,1785095053769.0662
0.76,0.739,-0.802,55.64,-7.05,-10.44,1785095053774.986
0.778,0.765,-0.802,60.7,1.62,1.95,1785095053785.207
0.787,0.79,-0.798,57.74,9.92,14.37,1785095053795.787
0.789,0.783,-0.762,47.85,17.46,25.64,1785095053809.07
0.801,0.725,-0.717,37.51,23.59,35.68,1785095053815.1292
0.811,0.663,-0.677,27.95,29.18,45.14,1785095053825.6782
0.818,0.614,-0.654,18.59,34.09,54.96,1785095053836.15
0.823,0.559,-0.627,9.34,38.54,64.91,1785095053849.3792
0.838,0.498,-0.599,0.67,41.66,73.43,1785095053855.53
0.866,0.44,-0.598,-6.29,44.13,81.64,1785095053865.5623
0.866,0.44,-0.598,-13.21,46.54,90.0,1785095053878.842
0.882,0.393,-0.585,-20.14,47.91,98.21,1785095053884.7603
0.89,0.34,-0.567,-29.05,49.13,105.62,1785095053895.4722
0.9,0.28,-0.56,-40.13,50.9,112.64,1785095053906.1382
0.908,0.218,-0.53,-51.0,52.58,119.42,1785095053919.3752
0.919,0.145,-0.486,-51.0,52.58,119.42,1785095053924.958
0.935,0.063,-0.457,-59.51,53.9,125.22,1785095053936.1392
0.948,-0.018,-0.44,-65.89,55.39,130.13,1785095053949.42
0.951,-0.11,-0.431,-70.25,57.07,134.53,1785095053955.1558
0.954,-0.188,-0.434,-75.62,59.05,138.22,1785095053966.092
0.946,-0.25,-0.422,-83.13,61.65,141.51,1785095053979.382
0.93,-0.328,-0.39,-91.01,63.97,144.17,1785095053985.2957
0.919,-0.403,-0.336,-97.63,65.68,145.45,1785095053996.0662
0.918,-0.49,-0.285,-98.42,66.9,146.06,1785095054009.773
0.904,-0.58,-0.242,-92.07,68.09,145.82,1785095054015.476
0.899,-0.649,-0.207,-79.65,69.19,143.77,1785095054026.055
0.912,-0.713,-0.208,-65.1,69.86,142.49,1785095054039.4
0.891,-0.751,-0.191,-53.01,71.47,139.19,1785095054045.1782
0.876,-0.795,-0.156,-43.37,72.08,133.7,1785095054055.999
0.878,-0.878,-0.129,-33.02,71.17,124.52,1785095054069.226
0.877,-0.969,-0.116,-23.44,70.1,111.88,1785095054075.207
0.849,-1.043,-0.102,-15.63,68.67,98.73,1785095054085.8188
0.854,-1.089,-0.072,-7.69,66.07,83.62,1785095054099.115
0.848,-1.129,-0.034,2.17,61.98,68.12,1785095054105.191
0.832,-1.15,0.017,12.36,57.34,51.21,1785095054115.348
0.832,-1.159,0.063,21.88,51.48,32.5,1785095054126.029
0.843,-1.171,0.105,28.41,44.31,15.05,1785095054139.424
0.842,-1.165,0.14,31.83,36.68,-2.59,1785095054145.173
0.845,-1.146,0.162,33.39,28.84,-19.5,1785095054155.693
0.841,-1.118,0.182,33.91,20.2,-35.46,1785095054168.89
0.836,-1.07,0.192,33.63,11.47,-51.03,1785095054175.2542
0.839,-1.013,0.185,32.65,2.87,-65.49,1785095054185.859
0.838,-0.942,0.166,29.51,-5.49,-78.92,1785095054195.804
0.841,-0.868,0.167,22.86,-13.06,-91.49,1785095054209.1838
0.848,-0.832,0.173,15.29,-20.69,-103.7,1785095054215.0662
0.855,-0.798,0.169,7.9,-28.17,-115.76,1785095054225.598
0.846,-0.757,0.17,2.41,-35.34,-126.13,1785095054236.2822
