ax,ay,az,gx,gy,gz,timestamp_ms
0.74,0.49,-0.798,-29.11,-73.43,-109.9,1785107148457.365
0.729,0.553,-0.849,-35.8,-63.33,-104.59,1785107148457.932
0.721,0.616,-0.909,-38.7,-52.22,-96.47,1785107148458.438
0.717,0.67,-0.937,-37.81,-40.93,-85.24,1785107148458.9382
0.717,0.697,-0.94,-34.24,-29.36,-71.63,1785107148459.4429
0.707,0.697,-0.911,-29.02,-18.07,-55.97,1785107148459.882
0.687,0.68,-0.86,-20.26,-8.45,-38.67,1785107148460.305
0.664,0.659,-0.804,-7.87,-0.95,-19.93,1785107148460.738
0.664,0.626,-0.756,6.2,4.76,-0.21,1785107148461.1453
0.674,0.603,-0.713,18.98,9.98,17.76,1785107148461.556
0.691,0.563,-0.679,31.8,15.14,34.82,1785107148461.996
0.693,0.555,-0.647,40.47,19.47,50.2,1785107148462.4277
0.708,0.531,-0.608,45.2,23.99,65.16,1785107148462.8533
0.734,0.495,-0.563,45.29,27.1,77.3,1785107148463.273
0.744,0.435,-0.529,41.75,29.27,86.52,1785107148463.6958
0.745,0.372,-0.485,35.4,30.55,93.69,1785107148464.134
0.77,0.295,-0.443,30.52,31.62,98.7,1785107148464.546
0.81,0.214,-0.413,28.53,32.07,101.17,1785107148464.969
0.827,0.147,-0.39,28.32,31.56,101.54,1785107148465.397
0.843,0.089,-0.372,27.04,30.43,100.31,1785107148465.829
0.877,0.024,-0.356,23.16,29.21,97.29,1785107148466.264
0.922,-0.052,-0.343,17.4,28.6,92.41,1785107148466.6848
0.941,-0.126,-0.323,12.24,27.5,86.28,1785107148467.124
0.952,-0.192,-0.3,8.42,25.15,79.29,1785107148467.568
0.965,-0.246,-0.287,5.43,22.64,70.96,1785107148467.9138
0.963,-0.295,-0.258,2.32,19.35,61.4,1785107148468.258
0.959,-0.36,-0.204,0.27,14.37,50.97,1785107148468.6028
0.951,-0.424,-0.146,0.58,7.93,39.12,1785107148468.939
0.934,-0.481,-0.088,6.29,-0.98,27.86,1785107148469.281
0.919,-0.515,-0.067,16.79,-11.84,16.02,1785107148469.633
0.896,-0.494,-0.085,27.19,-22.64,3.36,1785107148469.98
0.86,-0.44,-0.132,34.61,-33.54,-8.94,1785107148470.325
0.86,-0.44,-0.132,37.23,-43.31,-19.78,1785107148470.7808
0.826,-0.384,-0.189,35.74,-51.85,-29.54,1785107148471.2488
0.813,-0.324,-0.262,32.5,-58.87,-37.6,1785107148471.6138
0.808,-0.249,-0.311,29.08,-64.3,-44.43,1785107148471.9648
0.787,-0.177,-0.364,29.08,-64.3,-44.43,1785107148472.321
0.761,-0.091,-0.427,23.83,-68.39,-49.96,1785107148472.6711
0.747,0.007,-0.508,17.3,-71.17,-53.07,1785107148473.016
0.746,0.115,-0.602,8.42,-71.38,-53.5,1785107148473.3892
0.753,0.231,-0.702,-4.03,-68.18,-51.55,1785107148473.757
0.755,0.341,-0.794,-19.78,-61.77,-47.79,1785107148474.112
0.75,0.429,-0.859,-37.63,-52.71,-41.9,1785107148474.466
0.742,0.475,-0.881,-55.02,-42.3,-34.46,1785107148474.824
0.731,0.469,-0.867,-67.48,-31.34,-25.76,1785107148475.1758
0.716,0.429,-0.807,-72.42,-21.76,-15.69,1785107148475.5198
0.692,0.371,-0.734,-67.69,-14.92,-4.24,1785107148475.832
0.667,0.299,-0.662,-53.25,-11.38,8.36,1785107148476.142
0.655,0.215,-0.601,-31.43,-10.77,20.97,1785107148476.471
0.657,0.132,-0.558,-3.42,-12.05,32.9,1785107148476.799
0.656,0.064,-0.541,28.08,-14.34,43.98,1785107148477.119
0.658,-0.002,-0.509,59.02,-17.21,54.23,1785107148477.4402
0.65,-0.092,-0.476,89.63,-20.75,62.29,1785107148477.772
0.627,-0.215,-0.446,118.87,-24.02,68.21,1785107148478.107
0.61,-0.382,-0.403,146.34,-26.83,71.84,1785107148478.433
0.607,-0.558,-0.376,171.45,-30.09,72.48,1785107148478.752
0.613,-0.655,-0.372,189.92,-33.66,71.08,1785107148479.072
0.609,-0.682,-0.375,202.28,-40.22,70.5,1785107148479.383
0.619,-0.663,-0.356,209.51,-48.4,70.93,1785107148479.7068
0.63,-0.608,-0.309,216.19,-55.73,69.46,1785107148480.0288
0.626,-0.547,-0.271,225.59,-62.35,67.23,1785107148480.35
0.621,-0.468,-0.252,232.64,-68.73,66.07,1785107148480.6772
0.617,-0.416,-0.227,235.15,-74.95,65.0,1785107148481.004
0.617,-0.403,-0.237,231.33,-78.65,64.18,1785107148481.3289
0.606,-0.369,-0.285,219.09,-80.02,65.52,1785107148481.615
0.588,-0.342,-0.399,203.16,-84.44,68.91,1785107148481.91
0.599,-0.327,-0.57,187.05,-87.37,73.55,1785107148482.2058
0.646,-0.32,-0.709,171.42,-86.64,78.01,1785107148482.519
0.701,-0.318,-0.769,155.61,-84.14,81.33,1785107148482.803
0.754,-0.337,-0.756,141.39,-79.78,83.59,1785107148483.0989
0.802,-0.384,-0.674,130.28,-74.98,84.08,1785107148483.394
0.83,-0.446,-0.56,122.17,-72.57,84.29,1785107148483.684
0.838,-0.519,-0.533,118.99,-72.21,85.33,1785107148483.989
0.815,-0.573,-0.573,119.91,-72.21,87.71,1785107148484.285
0.777,-0.638,-0.656,126.16,-75.08,91.04,1785107148484.585
0.76,-0.696,-0.749,136.17,-77.39,92.23,1785107148484.896
0.748,-0.722,-0.817,144.57,-78.22,91.49,1785107148485.1821
0.758,-0.721,-0.946,146.86,-76.78,87.8,1785107148485.472
0.726,-0.647,-0.966,137.36,-71.26,84.14,1785107148485.784
0.742,-0.718,-0.986,127.08,-66.53,86.06,1785107148486.073
0.723,-0.7,-0.985,102.24,-60.61,75.11,1785107148486.363
0.685,-0.682,-0.903,71.69,-53.53,66.59,1785107148486.6572
0.668,-0.777,-0.869,52.16,-49.04,62.99,1785107148486.9539
0.634,-0.807,-0.806,39.83,-46.14,58.05,1785107148487.238
0.631,-0.88,-0.784,44.4,-47.27,55.6,1785107148487.531
0.618,-0.94,-0.811,56.55,-48.34,51.55,1785107148487.824
0.604,-0.889,-0.811,59.6,-46.85,45.2,1785107148488.127
0.608,-0.866,-0.812,57.37,-45.38,41.08,1785107148488.411
0.614,-0.878,-0.816,52.83,-42.73,37.26,1785107148488.698
0.598,-0.854,-0.819,45.96,-38.45,31.59,1785107148488.992
0.581,-0.825,-0.838,39.98,-33.54,27.31,1785107148489.273
0.566,-0.782,-0.86,33.6,-27.56,23.1,1785107148489.545
0.543,-0.714,-0.846,22.77,-20.39,19.9,1785107148489.836
0.543,-0.69,-0.835,10.9,-13.03,19.07,1785107148490.1108
0.533,-0.682,-0.807,-3.3,-5.16,16.11,1785107148490.402
0.513,-0.704,-0.763,-16.17,2.17,13.31,1785107148490.722
0.488,-0.73,-0.719,-25.94,9.25,11.11,1785107148491.023
0.474,-0.736,-0.677,-32.35,15.63,10.38,1785107148491.2961
0.473,-0.736,-0.625,-35.62,21.06,9.64,1785107148491.561
0.461,-0.734,-0.586,-36.44,24.93,8.33,1785107148491.843
0.44,-0.727,-0.569,-36.53,27.99,8.24,1785107148492.1338
0.421,-0.717,-0.532,-39.0,30.43,8.45,1785107148492.4019
0.426,-0.736,-0.515,-40.53,32.38,8.97,1785107148492.676
0.409,-0.735,-0.478,-41.32,34.21,7.87,1785107148492.9458
0.393,-0.747,-0.457,-36.9,34.58,8.94,1785107148493.221
0.383,-0.74,-0.439,-31.95,34.61,10.1,1785107148493.4888
0.389,-0.736,-0.435,-28.66,34.24,10.8,1785107148493.767
0.377,-0.742,-0.419,-27.68,33.78,9.92,1785107148494.0422
0.358,-0.775,-0.404,-24.66,33.36,10.04,1785107148494.304
0.347,-0.789,-0.401,-18.52,32.32,10.44,1785107148494.5762
0.376,-0.768,-0.433,-14.37,31.13,10.41,1785107148494.8489
0.367,-0.725,-0.419,-14.83,30.98,9.55,1785107148495.1182
0.369,-0.731,-0.43,-12.73,31.1,10.65,1785107148495.369
0.27,-0.691,-0.304,-5.68,29.42,15.29,1785107148495.625
0.439,-0.8,-0.479,14.59,25.57,25.76,1785107148495.883
0.404,-0.589,-0.448,2.72,26.83,14.19,1785107148496.157
0.402,-0.678,-0.456,1.22,27.38,18.83,1785107148496.4048
0.383,-0.707,-0.462,-0.92,27.56,16.3,1785107148496.66
0.381,-0.659,-0.427,-3.27,27.01,18.52,1785107148496.918
0.419,-0.683,-0.453,0.09,25.76,23.59,1785107148497.1719
0.41,-0.653,-0.428,1.28,24.41,24.17,1785107148497.427
0.438,-0.721,-0.463,7.6,22.0,27.83,1785107148497.679
0.436,-0.693,-0.493,5.83,21.45,24.2,1785107148497.933
0.423,-0.7,-0.429,3.81,20.39,25.7,1785107148498.184
0.46,-0.786,-0.452,9.77,17.4,27.53,1785107148498.441
0.473,-0.739,-0.448,8.79,15.38,22.16,1785107148498.71
0.484,-0.737,-0.473,6.47,14.77,22.19,1785107148498.961
0.463,-0.73,-0.482,-0.21,14.19,21.64,1785107148499.218
0.467,-0.755,-0.481,-6.26,12.79,21.06,1785107148499.473
0.481,-0.792,-0.471,-9.13,11.08,19.56,1785107148499.726
0.485,-0.806,-0.454,-9.09,8.91,16.66,1785107148499.978
0.49,-0.827,-0.44,-5.04,6.5,15.35,1785107148500.239
0.498,-0.846,-0.442,2.08,3.36,14.28,1785107148500.4932
0.503,-0.854,-0.448,8.91,-0.06,11.51,1785107148500.736
0.507,-0.865,-0.455,13.15,-2.66,8.45,1785107148500.99
0.508,-0.865,-0.456,15.05,-5.13,5.25,1785107148501.2368
0.519,-0.865,-0.463,17.06,-7.63,2.53,1785107148501.468
0.537,-0.855,-0.478,18.46,-9.49,-0.52,1785107148501.7102
0.537,-0.854,-0.492,18.43,-10.56,-3.33,1785107148501.955
0.526,-0.848,-0.494,16.88,-11.23,-7.11,1785107148502.197
0.519,-0.842,-0.489,14.83,-11.96,-9.95,1785107148502.429
0.524,-0.831,-0.49,13.58,-12.94,-12.27,1785107148502.677
0.52,-0.831,-0.49,12.45,-13.31,-14.8,1785107148502.924
0.51,-0.834,-0.48,11.78,-13.86,-17.58,1785107148503.159
0.508,-0.835,-0.473,11.69,-14.77,-19.78,1785107148503.404
0.503,-0.845,-0.475,11.41,-15.69,-21.67,1785107148503.65
0.49,-0.857,-0.48,10.86,-16.24,-23.99,1785107148503.8972
0.472,-0.855,-0.47,10.25,-16.24,-26.46,1785107148504.137
0.457,-0.869,-0.452,12.54,-16.3,-27.22,1785107148504.3809
0.441,-0.855,-0.431,16.91,-16.42,-28.32,1785107148504.6248
0.433,-0.827,-0.418,22.1,-17.27,-28.6,1785107148504.864
0.44,-0.804,-0.427,26.73,-17.82,-29.15,1785107148505.108
0.453,-0.777,-0.453,26.89,-17.64,-31.28,1785107148505.354
0.456,-0.743,-0.481,21.39,-16.21,-34.67,1785107148505.604
0.432,-0.725,-0.476,13.61,-14.13,-36.35,1785107148505.842
0.422,-0.74,-0.468,9.67,-12.7,-35.0,1785107148506.092
0.43,-0.738,-0.462,9.22,-12.42,-32.56,1785107148506.337
0.442,-0.733,-0.467,10.77,-12.51,-30.24,1785107148506.5999
0.445,-0.727,-0.471,11.66,-13.0,-28.81,1785107148506.8438
0.433,-0.743,-0.471,12.02,-13.43,-27.38,1785107148507.0889
0.433,-0.743,-0.471,13.25,-13.89,-25.18,1785107148507.322
0.428,-0.763,-0.465,15.84,-15.02,-23.16,1785107148507.5479
0.433,-0.77,-0.459,18.49,-16.66,-21.55,1785107148507.783
0.444,-0.761,-0.466,18.8,-17.85,-21.06,1785107148508.024
0.451,-0.756,-0.483,17.0,-18.52,-21.33,1785107148508.259
0.444,-0.773,-0.492,17.0,-18.52,-21.33,1785107148508.4958
0.442,-0.802,-0.5,15.63,-19.04,-20.97,1785107148508.734
0.429,-0.811,-0.506,14.83,-19.5,-20.57,1785107148508.964
0.417,-0.819,-0.508,14.89,-19.84,-17.46,1785107148509.6719
0.413,-0.814,-0.505,13.95,-19.59,-16.0,1785107148509.971
-0.875,-0.443,-0.041,-6.01,2.26,-2.69,1785107148510.195
-0.881,-0.459,-0.036,-5.01,2.2,-2.11,1785107148510.4692
-0.886,-0.476,-0.031,-1.77,2.32,-2.47,1785107148510.714
-0.884,-0.473,-0.034,2.96,2.11,-3.33,1785107148510.935
-0.891,-0.475,-0.041,8.09,1.13,-4.97,1785107148519.7383
-0.892,-0.486,-0.048,12.09,1.01,-6.38,1785107148532.9448
-0.891,-0.504,-0.066,16.17,1.34,-8.24,1785107148538.534
-0.898,-0.527,-0.085,20.36,2.11,-11.29,1785107148548.9878
-0.897,-0.544,-0.091,23.93,2.84,-14.53,1785107148559.5652
-0.894,-0.554,-0.092,27.19,3.54,-17.7,1785107148572.7898
-0.903,-0.577,-0.096,30.98,3.97,-21.21,1785107148578.5488
-0.918,-0.601,-0.107,35.4,4.46,-25.48,1785107148589.0042
-0.919,-0.621,-0.11,40.19,5.16,-30.46,1785107148599.597
-0.914,-0.63,-0.108,45.29,5.46,-35.0,1785107148612.808
-0.909,-0.63,-0.106,49.5,5.49,-38.88,1785107148618.5378
-0.906,-0.622,-0.103,52.74,5.62,-42.21,1785107148629.037
-0.885,-0.629,-0.115,55.3,5.65,-44.07,1785107148639.6438
-0.89,-0.626,-0.136,57.28,5.77,-46.54,1785107148652.8481
-0.893,-0.628,-0.141,56.7,6.87,-49.04,1785107148658.742
-0.89,-0.638,-0.142,54.81,7.93,-51.12,1785107148669.125
-0.895,-0.663,-0.141,54.48,9.46,-53.77,1785107148679.687
-0.895,-0.676,-0.122,55.6,11.14,-56.86,1785107148692.9548
-0.888,-0.675,-0.096,57.47,12.54,-60.09,1785107148698.892
-0.871,-0.673,-0.094,58.29,13.12,-63.48,1785107148709.5837
-0.853,-0.682,-0.127,56.06,14.34,-67.54,1785107148722.8423
-0.839,-0.703,-0.162,49.44,17.33,-72.48,1785107148728.909
-0.834,-0.729,-0.188,40.56,21.97,-77.85,1785107148739.29
-0.826,-0.757,-0.204,32.65,27.68,-83.44,1785107148749.957
-0.824,-0.775,-0.202,25.57,33.66,-89.42,1785107148763.169
-0.819,-0.799,-0.213,17.98,39.86,-94.97,1785107148769.2969
-0.818,-0.828,-0.227,10.28,46.57,-101.44,1785107148779.768
-0.819,-0.88,-0.239,3.66,53.16,-109.35,1785107148792.9668
-0.819,-0.88,-0.239,-2.14,59.05,-117.56,1785107148798.967
-0.819,-0.949,-0.238,-5.37,64.67,-125.28,1785107148809.408
-0.824,-1.009,-0.231,-2.99,70.28,-132.27,1785107148820.062
-0.825,-1.054,-0.225,4.97,74.77,-138.83,1785107148833.3162
-0.824,-1.103,-0.217,4.97,74.77,-138.83,1785107148839.3381
-0.828,-1.151,-0.189,15.38,77.55,-145.82,1785107148849.877
-0.83,-1.19,-0.157,26.64,78.83,-153.14,1785107148863.102
-0.806,-1.229,-0.149,38.61,80.2,-159.61,1785107148869.1343
-0.792,-1.282,-0.138,50.9,81.21,-167.39,1785107148879.852
-0.788,-1.332,-0.115,62.75,81.45,-175.33,1785107148893.076
-0.791,-1.354,-0.116,75.75,80.32,-183.29,1785107148899.138
-0.809,-1.35,-0.106,88.72,78.04,-190.68,1785107148909.8052
-0.732,-1.333,-0.161,95.83,74.4,-198.03,1785107148923.0469
-0.74,-1.277,-0.118,86.64,72.91,-207.8,1785107148929.069
-0.711,-1.279,-0.057,74.16,71.2,-210.64,1785107148939.772
-0.648,-1.25,-0.065,62.99,67.17,-215.67,1785107148953.018
-0.621,-1.221,-0.082,45.56,66.77,-222.88,1785107148959.0889
-0.568,-1.255,-0.087,24.96,66.96,-230.69,1785107148969.7668
-0.495,-1.325,-0.039,3.51,67.78,-237.83,1785107148983.0598
-0.453,-1.369,0.014,-7.26,67.81,-245.16,1785107148988.991
-0.441,-1.379,0.052,-8.36,65.4,-252.11,1785107148999.475
-0.412,-1.354,0.076,-8.58,61.43,-257.61,1785107149010.188
-0.371,-1.338,0.082,-10.77,57.56,-262.86,1785107149023.327
-0.327,-1.318,0.103,-15.17,53.68,-267.89,1785107149029.424
-0.276,-1.302,0.095,-18.92,50.57,-270.46,1785107149040.0388
-0.223,-1.244,0.067,-26.0,48.25,-273.78,1785107149053.2961
-0.175,-1.202,0.025,-36.47,45.72,-279.06,1785107149059.2761
-0.132,-1.144,0.013,-51.82,45.38,-283.36,1785107149070.034
-0.076,-1.072,0.03,-68.61,47.91,-284.98,1785107149083.262
-0.041,-1.037,0.03,-82.0,49.07,-287.42,1785107149089.3052
-0.002,-0.979,0.036,-94.12,48.92,-288.28,1785107149099.979
0.063,-0.923,0.029,-103.7,51.52,-286.94,1785107149113.2202
0.09,-0.849,0.027,-111.82,55.15,-288.92,1785107149119.268
0.135,-0.783,0.041,-120.4,55.02,-284.49,1785107149132.643
0.188,-0.713,0.06,-129.89,56.67,-278.05,1785107149138.693
0.216,-0.653,0.075,-138.62,59.24,-273.42,1785107149149.641
0.24,-0.69,0.098,-144.44,60.52,-267.83,1785107149162.8743
0.249,-0.697,0.117,-148.32,62.56,-263.1,1785107149168.951
0.256,-0.663,0.13,-148.32,62.75,-256.45,1785107149179.877
0.287,-0.624,0.113,-147.34,60.61,-248.48,1785107149193.1108
0.321,-0.61,0.093,-147.59,60.24,-243.29,1785107149199.1523
0.326,-0.585,0.083,-152.9,59.27,-239.57,1785107149210.091
0.342,-0.574,0.088,-159.15,56.4,-232.18,1785107149223.3223
0.353,-0.56,0.077,-162.57,53.04,-226.42,1785107149229.362
0.371,-0.48,0.105,-168.71,49.44,-221.44,1785107149242.7678
0.414,-0.48,0.108,-169.84,43.37,-217.02,1785107149248.732
0.414,-0.481,0.085,-172.19,37.32,-219.37,1785107149259.815
0.423,-0.468,0.1,-173.62,31.01,-219.34,1785107149272.9768
0.42,-0.48,0.135,-163.3,22.34,-218.36,1785107149279.003
0.436,-0.493,0.137,-143.04,8.39,-213.93,1785107149289.8628
0.452,-0.429,0.126,-119.51,-1.98,-210.58,1785107149303.082
0.423,-0.372,0.093,-96.65,-14.25,-204.17,1785107149309.122
0.408,-0.33,0.069,-76.2,-26.55,-195.2,1785107149319.801
0.436,-0.222,0.045,-57.34,-35.25,-189.73,1785107149333.083
0.449,-0.159,-0.008,-37.9,-49.53,-182.26,1785107149339.1008
0.445,-0.072,-0.069,-22.95,-59.33,-178.69,1785107149349.7861
0.462,0.07,-0.17,-13.73,-65.37,-173.56,1785107149363.033
0.482,0.181,-0.277,-10.56,-68.36,-165.07,1785107149369.049
0.475,0.261,-0.391,-11.87,-69.25,-156.93,1785107149379.7668
0.492,0.353,-0.503,-15.38,-69.95,-147.53,1785107149392.991
0.524,0.464,-0.625,-19.04,-68.24,-136.57,1785107149399.029
0.552,0.596,-0.73,-25.61,-63.45,-123.63,1785107149409.7578
0.579,0.736,-0.786,-37.87,-55.48,-108.55,1785107149422.944
0.608,0.835,-0.787,-55.94,-45.01,-91.43,1785107149428.997
0.641,0.892,-0.751,-78.19,-32.5,-72.94,1785107149439.4849
0.654,0.886,-0.726,-97.11,-19.93,-52.64,1785107149452.744
0.665,0.782,-0.708,-103.61,-7.02,-31.16,1785107149458.7852
0.658,0.649,-0.757,-93.75,4.24,-11.14,1785107149469.091
0.66,0.572,-0.874,-69.98,15.53,10.16,1785107149479.7239
0.655,0.504,-0.901,-43.03,24.75,31.43,1785107149493.007
0.642,0.422,-0.904,-18.52,34.39,51.94,1785107149499.0598
0.644,0.355,-0.877,1.95,45.38,75.08,1785107149509.3682
0.67,0.264,-0.781,21.49,54.78,96.87,1785107149520.0269
0.698,0.155,-0.66,42.54,62.14,113.53,1785107149533.2422
0.749,0.049,-0.543,65.65,68.12,126.5,1785107149539.296
0.798,-0.055,-0.449,92.84,72.48,133.55,1785107149550.024
0.84,-0.155,-0.358,124.49,75.14,134.86,1785107149563.301
0.893,-0.226,-0.292,156.16,76.85,132.05,1785107149569.419
0.952,-0.249,-0.258,180.97,78.31,126.35,1785107149582.6719
0.993,-0.255,-0.275,193.95,82.64,117.59,1785107149588.703
1.004,-0.225,-0.309,190.1,86.4,106.54,1785107149599.631
1.014,-0.16,-0.316,164.07,86.43,95.49,1785107149612.8562
0.983,-0.179,-0.308,120.33,87.56,83.62,1785107149618.8818
0.949,-0.179,-0.224,71.35,89.63,73.49,1785107149629.508
1.029,-0.195,-0.124,39.34,83.77,67.51,1785107149642.7861
1.039,-0.26,-0.06,15.26,77.12,52.92,1785107149648.7788
1.011,-0.324,0.013,-13.98,70.71,37.35,1785107149659.1858
0.989,-0.471,0.081,-37.35,61.68,24.66,1785107149669.8252
0.97,-0.627,0.135,-55.3,49.44,11.02,1785107149683.105
0.971,-0.763,0.21,-65.19,35.25,-3.08,1785107149689.072
0.963,-0.869,0.271,-63.72,19.32,-19.17,1785107149699.456
0.953,-0.906,0.308,-53.56,2.11,-34.15,1785107149710.019
0.938,-0.892,0.316,-35.4,-16.66,-48.34,1785107149723.243
0.91,-0.845,0.281,-13.15,-34.73,-62.07,1785107149729.271
0.869,-0.762,0.233,8.03,-52.4,-75.01,1785107149739.5989
0.837,-0.662,0.155,26.4,-69.37,-86.18,1785107149752.8682
0.813,-0.544,0.05,39.09,-83.04,-95.28,1785107149758.864
0.803,-0.398,-0.056,46.36,-94.61,-102.45,1785107149769.4368
0.8,-0.263,-0.158,49.29,-104.22,-107.79,1785107149782.677
0.802,-0.129,-0.259,44.4,-110.84,-111.61,1785107149788.743
0.798,-0.008,-0.35,31.56,-113.16,-114.9,1785107149799.668
0.79,0.06,-0.378,14.16,-112.89,-117.71,1785107149812.912
0.789,0.083,-0.392,-1.74,-111.67,-119.3,1785107149818.9702
0.787,0.116,-0.41,-12.88,-109.93,-119.79,1785107149829.8198
0.768,0.145,-0.449,-18.49,-107.97,-119.48,1785107149843.026
0.751,0.197,-0.516,-22.89,-105.56,-118.44,1785107149849.077
0.74,0.278,-0.561,-28.57,-101.35,-116.0,1785107149860.019
0.738,0.35,-0.623,-36.44,-95.31,-111.24,1785107149873.2722
0.743,0.437,-0.662,-45.38,-88.29,-104.83,1785107149880.0461
0.748,0.533,-0.681,-52.4,-81.24,-95.65,1785107149889.941
0.75,0.601,-0.711,-57.41,-73.06,-84.44,1785107149903.115
0.74,0.651,-0.733,-60.64,-64.18,-72.08,1785107149909.192
0.741,0.698,-0.774,-60.7,-55.54,-57.34,1785107149919.656
0.726,0.724,-0.819,-56.64,-47.4,-40.38,1785107149932.8608
0.739,0.701,-0.878,-47.24,-37.11,-20.72,1785107149938.935
0.769,0.772,-1.007,-39.98,-26.7,-0.46,1785107149949.193
0.72,0.847,-1.087,-37.32,-16.3,17.49,1785107149959.852
0.706,0.765,-1.084,-44.53,-0.58,39.28,1785107149973.112
0.711,0.66,-1.023,-48.46,12.82,65.34,1785107149979.0981
0.695,0.601,-0.996,-39.89,23.83,90.27,1785107149989.487
0.691,0.543,-0.977,-32.44,34.76,111.91,1785107150002.801
0.702,0.443,-0.933,-29.08,46.08,131.23,1785107150008.812
0.717,0.353,-0.856,-24.69,56.58,148.29,1785107150019.443
0.734,0.277,-0.757,-20.63,64.58,163.06,1785107150032.716
0.764,0.195,-0.655,-19.1,71.75,172.92,1785107150038.746
0.815,0.095,-0.567,-18.46,78.43,177.19,1785107150049.434
0.862,-0.02,-0.484,-16.08,84.02,177.65,1785107150060.1458
0.917,-0.148,-0.433,-11.14,89.33,175.27,1785107150073.3772
0.917,-0.148,-0.433,-5.52,93.84,168.71,1785107150079.427
0.962,-0.256,-0.385,2.66,97.17,159.09,1785107150089.975
0.988,-0.365,-0.323,13.46,100.92,147.65,1785107150103.1968
1.025,-0.493,-0.282,20.87,103.12,135.11,1785107150109.292
1.088,-0.576,-0.233,26.76,104.01,120.52,1785107150122.584
1.14,-0.641,-0.165,26.76,104.01,120.52,1785107150128.648
1.159,-0.71,-0.095,32.04,103.18,103.58,1785107150139.584
1.162,-0.772,-0.017,35.46,99.73,84.66,1785107150153.988
1.164,-0.811,0.059,35.92,93.66,63.48,1785107150158.9382
1.148,-0.84,0.148,33.27,83.8,39.98,1785107150169.183
1.13,-0.886,0.251,29.3,70.99,17.33,1785107150179.963
1.099,-0.934,0.353,26.18,53.56,-5.92,1785107150192.908
1.053,-0.982,0.423,25.09,32.04,-29.73,1785107150199.24
1.008,-0.996,0.455,25.51,8.15,-53.53,1785107150209.454
0.973,-0.97,0.427,29.15,-17.61,-76.39,1785107150220.116
0.926,-0.871,0.342,34.03,-42.45,-97.02,1785107150233.302
0.855,-0.741,0.269,37.29,-64.88,-114.44,1785107150239.361
0.801,-0.644,0.18,36.93,-86.09,-132.57,1785107150250.012
0.768,-0.532,0.081,30.15,-103.73,-148.2,1785107150263.311
0.72,-0.421,-0.032,19.87,-116.82,-160.28,1785107150269.3591
0.675,-0.318,-0.134,9.16,-125.4,-169.87,1785107150280.1467
0.643,-0.204,-0.228,1.43,-131.02,-177.25,1785107150293.364
0.616,-0.079,-0.336,-4.24,-134.13,-181.43,1785107150299.4111
0.598,0.058,-0.467,-11.6,-133.7,-183.11,1785107150312.626
0.582,0.21,-0.594,-22.19,-128.42,-184.15,1785107150318.6892
0.574,0.361,-0.685,-34.42,-119.05,-182.59,1785107150329.609
0.579,0.487,-0.762,-43.31,-107.43,-177.77,1785107150342.829
0.604,0.618,-0.797,-49.44,-93.84,-169.84,1785107150348.877
0.58,0.738,-0.889,-48.43,-76.51,-157.72,1785107150359.6248
0.543,0.973,-0.912,-56.73,-64.97,-137.52,1785107150372.865
0.578,1.072,-0.915,-65.37,-50.2,-118.69,1785107150378.924
0.626,0.93,-0.856,-58.08,-27.5,-92.62,1785107150389.513
0.599,0.959,-0.817,-35.83,-15.59,-67.08,1785107150402.6099
0.526,1.057,-0.853,-6.87,-8.82,-43.46,1785107150408.803
0.571,0.991,-0.863,5.1,3.23,-8.64,1785107150418.735
0.599,0.934,-0.843,10.99,17.09,24.78,1785107150429.4138
0.569,0.907,-0.831,24.78,28.72,55.82,1785107150440.153
0.565,0.863,-0.819,34.67,40.28,86.18,1785107150453.454
0.588,0.79,-0.745,32.72,54.17,115.21,1785107150459.4
0.571,0.694,-0.665,29.02,66.44,138.71,1785107150470.0532
0.555,0.592,-0.58,25.39,75.47,158.3,1785107150483.244
0.577,0.452,-0.496,18.71,81.45,172.58,1785107150489.28
0.607,0.308,-0.417,13.95,85.48,180.58,1785107150499.9192
0.641,0.172,-0.373,11.78,87.95,184.39,1785107150513.195
0.676,0.052,-0.338,8.85,89.21,184.64,1785107150519.241
0.719,-0.064,-0.313,5.55,90.52,181.92,1785107150529.782
0.769,-0.196,-0.252,6.38,90.46,177.8,1785107150542.961
0.827,-0.35,-0.201,11.35,88.17,172.0,1785107150549.0078
0.884,-0.473,-0.142,14.83,84.6,162.18,1785107150559.603
0.947,-0.575,-0.065,17.76,78.89,148.56,1785107150572.8472
1.024,-0.688,0.011,23.04,71.02,132.88,1785107150578.863
1.09,-0.785,0.089,30.64,61.25,114.38,1785107150589.5679
1.128,-0.848,0.154,39.28,49.84,94.21,1785107150602.7598
1.144,-0.884,0.201,47.21,36.5,73.49,1785107150608.8179
1.147,-0.898,0.23,50.87,22.58,52.13,1785107150619.2078
1.14,-0.922,0.242,47.88,7.6,30.15,1785107150629.7942
1.131,-0.935,0.256,41.44,-8.67,7.35,1785107150643.0059
1.122,-0.94,0.241,38.51,-26.12,-15.41,1785107150649.007
1.084,-0.908,0.211,40.53,-43.28,-37.81,1785107150659.314
1.028,-0.836,0.178,45.78,-60.73,-57.65,1785107150669.9587
0.986,-0.752,0.124,49.84,-77.67,-75.32,1785107150683.2158
0.944,-0.67,0.085,48.25,-92.62,-92.32,1785107150689.2202
0.896,-0.585,0.043,41.72,-105.38,-107.39,1785107150699.904
0.852,-0.505,-0.02,33.72,-116.09,-120.09,1785107150713.147
0.811,-0.429,-0.101,26.86,-124.7,-131.93,1785107150719.1511
0.764,-0.363,-0.192,21.85,-131.05,-143.31,1785107150730.1838
0.72,-0.295,-0.319,18.43,-134.5,-153.39,1785107150743.338
0.678,-0.193,-0.481,15.26,-134.31,-161.57,1785107150749.374
0.642,-0.059,-0.633,9.06,-131.96,-166.14,1785107150762.744
0.623,0.07,-0.792,-1.28,-126.04,-167.39,1785107150768.737
0.611,0.189,-0.987,-16.85,-114.54,-167.55,1785107150779.543
0.618,0.324,-1.135,-38.18,-98.03,-165.68,1785107150792.813
0.638,0.464,-1.201,-58.9,-78.25,-160.83,1785107150798.95
0.638,0.575,-1.106,-79.01,-58.93,-151.95,1785107150809.6
0.609,0.653,-0.982,-97.23,-39.61,-141.85,1785107150822.7683
0.564,0.695,-0.837,-99.46,-19.71,-131.57,1785107150828.764
0.542,0.713,-0.661,-75.75,-8.76,-117.4,1785107150839.3862
0.534,0.734,-0.614,-32.56,-5.43,-96.32,1785107150849.92
0.534,0.776,-0.782,13.58,0.43,-70.41,1785107150863.127
0.568,0.828,-0.995,49.5,11.08,-43.03,1785107150869.247
0.641,0.824,-1.139,71.08,23.9,-14.74,1785107150879.555
0.698,0.789,-1.218,78.04,39.4,10.86,1785107150892.7832
0.668,0.781,-1.165,64.85,58.35,33.3,1785107150898.8008
0.631,0.708,-1.027,41.9,77.36,57.56,1785107150909.2258
0.676,0.624,-0.847,25.48,92.01,81.55,1785107150919.884
0.704,0.586,-0.686,18.52,101.41,100.07,1785107150933.159
0.693,0.543,-0.538,14.59,106.42,113.04,1785107150939.356
0.694,0.489,-0.421,8.82,107.79,121.34,1785107150950.167
0.701,0.454,-0.346,-0.18,106.78,127.26,1785107150963.278
0.726,0.412,-0.282,-9.7,104.46,132.79,1785107150969.333
0.769,0.37,-0.256,-20.08,100.92,136.51,1785107150980.114
0.809,0.32,-0.249,-33.23,97.9,138.13,1785107150993.3638
0.853,0.227,-0.239,-48.37,94.82,137.88,1785107150999.401
0.905,0.117,-0.231,-61.34,90.88,136.88,1785107151010.0579
0.947,-0.017,-0.194,-66.44,86.28,134.74,1785107151023.33
0.989,-0.162,-0.173,-64.21,81.36,129.58,1785107151029.3079
1.014,-0.27,-0.17,-58.72,76.45,122.87,1785107151040.032
1.032,-0.355,-0.149,-50.72,71.78,116.52,1785107151053.292
1.065,-0.438,-0.107,-42.02,65.65,108.49,1785107151059.321
1.019,-0.438,-0.185,-37.23,59.88,98.82,1785107151069.921
1.172,-0.554,-0.02,-46.05,57.28,91.77,1785107151083.1658
1.099,-0.74,-0.029,-41.47,46.82,67.72,1785107151089.215
1.116,-0.716,0.074,-24.99,41.57,54.84,1785107151099.604
1.142,-0.747,0.116,-1.8,28.81,35.19,1785107151112.845
1.137,-0.817,0.115,15.32,17.94,14.98,1785107151118.888
1.096,-0.814,0.16,21.12,8.03,-5.22,1785107151129.007
1.06,-0.824,0.188,27.77,-5.01,-23.56,1785107151139.584
1.06,-0.797,0.239,34.06,-19.59,-42.73,1785107151152.8818
1.023,-0.786,0.168,45.29,-34.79,-62.69,1785107151158.866
0.961,-0.71,0.106,48.19,-47.67,-80.42,1785107151169.307
0.919,-0.605,0.022,48.92,-60.27,-96.99,1785107151179.976
0.892,-0.498,-0.054,47.52,-71.32,-111.42,1785107151193.232
0.857,-0.361,-0.133,40.83,-80.45,-123.97,1785107151199.23
0.821,-0.217,-0.243,31.98,-86.83,-133.58,1785107151209.946
0.769,-0.084,-0.302,20.48,-89.85,-141.79,1785107151223.155
0.733,0.023,-0.362,8.24,-91.86,-147.31,1785107151229.222
0.71,0.114,-0.433,-1.86,-92.2,-149.45,1785107151239.753
0.702,0.161,-0.498,-7.17,-89.91,-148.26,1785107151252.928
0.653,0.337,-0.57,-4.58,-86.58,-146.52,1785107151258.949
0.645,0.436,-0.682,1.74,-81.58,-140.69,1785107151269.403
0.661,0.538,-0.76,1.83,-73.52,-130.68,1785107151279.9238
0.662,0.619,-0.834,2.93,-62.65,-117.65,1785107151293.3572
0.664,0.69,-0.874,4.55,-51.24,-101.69,1785107151299.3228
0.668,0.753,-0.917,6.99,-39.86,-84.2,1785107151309.7139
0.662,0.818,-0.927,6.26,-26.55,-64.27,1785107151322.9102
0.646,0.867,-0.918,3.39,-12.88,-41.57,1785107151328.898
0.664,0.852,-0.891,-0.7,0.61,-15.96,1785107151338.982
0.686,0.808,-0.857,-4.7,14.16,9.25,1785107151349.505
0.686,0.808,-0.857,-5.89,25.94,31.74,1785107151360.0981
0.666,0.809,-0.795,-5.58,36.74,57.31,1785107151373.3042
0.687,0.726,-0.757,-9.43,46.91,76.3,1785107151379.874
0.673,0.678,-0.672,-11.75,55.45,95.25,1785107151389.677
0.67,0.603,-0.597,-15.99,62.04,111.45,1785107151402.8853
0.674,0.529,-0.512,-15.99,62.04,111.45,1785107151408.894
0.684,0.443,-0.434,-18.77,66.84,124.64,1785107151419.5789
0.695,0.358,-0.376,-20.2,70.01,135.26,1785107151432.812
0.712,0.292,-0.341,-22.4,71.6,143.59,1785107151438.8638
