ax,ay,az,gx,gy,gz,timestamp_ms
0.502,0.156,-0.419,-127.9,-175.24,-123.26,1784843339934.3958
0.477,0.24,-0.499,-122.32,-171.51,-127.99,1784843339934.8608
0.458,0.36,-0.626,-114.38,-164.1,-128.79,1784843339935.1868
0.442,0.479,-0.756,-104.43,-152.01,-126.65,1784843339935.5142
0.414,0.584,-0.847,-94.88,-136.02,-123.05,1784843339935.835
0.389,0.672,-0.888,-86.4,-117.98,-117.59,1784843339936.153
0.372,0.751,-0.91,-75.69,-98.48,-109.13,1784843339936.4678
0.37,0.838,-0.919,-61.1,-77.67,-96.77,1784843339936.7869
0.381,0.916,-0.922,-41.44,-56.67,-80.9,1784843339937.094
0.405,0.971,-0.939,-17.64,-36.44,-63.11,1784843339937.4158
0.428,1.007,-0.986,7.45,-16.82,-44.5,1784843339937.965
0.456,1.03,-1.023,29.57,3.14,-25.54,1784843339938.529
0.487,1.04,-1.047,46.57,23.16,-7.14,1784843339939.094
0.524,1.021,-1.046,58.53,42.33,10.41,1784843339939.898
0.551,0.984,-1.032,66.87,60.52,26.8,1784843339940.5088
0.565,0.946,-0.983,71.44,77.67,41.96,1784843339941.102
0.586,0.899,-0.926,74.71,92.23,56.43,1784843339941.696
0.604,0.844,-0.885,77.46,104.56,69.28,1784843339942.3062
0.615,0.796,-0.858,78.62,116.37,80.9,1784843339942.899
0.615,0.75,-0.824,77.46,127.72,91.04,1784843339943.589
0.621,0.691,-0.766,75.56,137.58,99.64,1784843339944.181
0.631,0.625,-0.697,73.82,146.06,106.48,1784843339944.7788
0.647,0.554,-0.614,72.91,152.9,111.97,1784843339945.3372
0.682,0.478,-0.539,74.4,157.84,116.0,1784843339945.993
0.714,0.412,-0.497,78.62,161.44,118.69,1784843339946.4907
0.734,0.367,-0.451,82.89,164.8,120.91,1784843339946.9968
0.766,0.32,-0.412,85.36,167.21,122.04,1784843339947.49
0.803,0.265,-0.391,86.46,168.58,121.46,1784843339947.978
0.802,0.224,-0.357,82.86,169.38,119.21,1784843339948.464
0.792,0.19,-0.304,74.47,168.4,116.61,1784843339948.9531
0.798,0.18,-0.275,60.7,165.53,113.62,1784843339949.878
0.833,0.183,-0.27,39.67,162.21,111.0,1784843339950.368
0.873,0.158,-0.248,11.02,157.99,107.09,1784843339950.686
0.906,0.078,-0.201,-19.71,152.17,102.66,1784843339951.0159
0.942,-0.02,-0.171,-48.62,144.26,98.94,1784843339951.3381
0.957,-0.138,-0.123,-77.15,135.65,94.49,1784843339951.657
0.951,-0.322,-0.005,-100.56,127.6,86.09,1784843339951.9739
0.949,-0.549,0.164,-107.49,118.53,74.1,1784843339952.295
0.97,-0.73,0.326,-93.33,107.73,63.57,1784843339952.6138
1.0,-0.84,0.434,-62.04,94.85,54.99,1784843339952.924
1.022,-0.872,0.494,-26.22,78.86,44.5,1784843339953.2349
1.04,-0.846,0.526,3.14,59.82,30.27,1784843339953.551
1.069,-0.811,0.539,22.03,38.67,13.89,1784843339953.8628
1.077,-0.75,0.528,30.06,16.14,-3.14,1784843339954.1672
1.065,-0.677,0.503,29.82,-6.13,-18.04,1784843339954.476
1.039,-0.575,0.449,26.73,-26.4,-34.18,1784843339954.7898
1.002,-0.478,0.382,18.34,-44.92,-48.71,1784843339955.1091
0.96,-0.407,0.366,3.57,-61.74,-62.04,1784843339955.414
0.947,-0.381,0.396,-12.97,-78.31,-73.95,1784843339955.729
0.947,-0.386,0.428,-24.29,-95.0,-85.42,1784843339956.063
0.933,-0.389,0.436,-26.46,-111.3,-96.71,1784843339956.382
0.891,-0.357,0.397,-21.49,-127.48,-107.18,1784843339956.7039
0.843,-0.289,0.301,-14.34,-142.67,-116.46,1784843339957.029
0.795,-0.212,0.188,-8.85,-155.86,-124.7,1784843339957.4631
0.751,-0.131,0.09,-6.44,-166.66,-131.57,1784843339957.8782
0.709,-0.036,0.007,-6.2,-175.12,-136.94,1784843339958.2878
0.67,0.054,-0.072,-6.74,-182.04,-140.6,1784843339958.708
0.626,0.118,-0.17,-6.35,-187.14,-143.89,1784843339959.1218
0.577,0.188,-0.278,-5.43,-190.13,-146.34,1784843339959.5388
0.536,0.265,-0.391,-3.85,-190.4,-146.89,1784843339959.948
0.495,0.35,-0.492,-3.51,-188.97,-146.06,1784843339960.4558
0.467,0.445,-0.635,-4.3,-184.79,-143.99,1784843339960.8838
0.446,0.549,-0.761,-5.68,-176.89,-139.44,1784843339961.329
0.433,0.645,-0.836,-9.0,-166.08,-133.43,1784843339961.7432
0.419,0.73,-0.906,-12.76,-153.57,-126.96,1784843339962.171
0.411,0.798,-0.984,-14.68,-139.07,-118.32,1784843339962.6272
0.405,0.855,-1.049,-11.51,-122.75,-107.52,1784843339963.046
0.393,0.922,-1.099,-3.3,-104.86,-94.39,1784843339963.459
0.394,0.968,-1.127,7.14,-85.6,-78.25,1784843339963.899
0.414,0.982,-1.156,17.4,-65.83,-61.07,1784843339964.385
0.436,0.964,-1.132,26.09,-46.27,-43.52,1784843339964.8152
0.457,0.925,-1.056,34.55,-28.17,-26.03,1784843339965.223
0.481,0.873,-0.98,45.81,-12.73,-9.28,1784843339965.638
0.501,0.832,-0.948,58.72,-0.03,6.71,1784843339966.062
0.499,0.808,-0.956,66.84,10.96,21.03,1784843339966.492
0.495,0.792,-0.976,67.11,19.93,33.57,1784843339966.894
0.507,0.795,-0.982,60.12,26.89,44.19,1784843339967.2598
0.529,0.812,-0.988,43.86,34.18,53.32,1784843339967.623
0.562,0.794,-0.972,19.71,42.51,62.44,1784843339968.0059
0.58,0.744,-0.93,-4.33,49.87,70.77,1784843339968.359
0.595,0.684,-0.873,-22.16,56.12,78.98,1784843339968.716
0.627,0.609,-0.805,-33.17,61.01,86.31,1784843339969.072
0.64,0.525,-0.733,-37.54,64.76,91.98,1784843339969.428
0.648,0.459,-0.682,-34.27,67.32,97.35,1784843339969.7822
0.663,0.425,-0.682,-25.64,69.43,102.42,1784843339970.1409
0.649,0.413,-0.724,-16.72,72.51,106.97,1784843339970.4941
0.639,0.409,-0.771,-10.8,77.06,113.1,1784843339970.85
0.652,0.4,-0.788,-9.52,83.74,119.05,1784843339971.209
0.688,0.373,-0.778,-12.18,92.68,124.36,1784843339971.5688
0.716,0.33,-0.737,-16.14,101.5,129.18,1784843339971.925
0.749,0.265,-0.655,-18.46,109.32,133.55,1784843339972.285
0.782,0.189,-0.568,-17.24,115.91,136.48,1784843339972.647
0.816,0.111,-0.485,-12.39,120.94,138.31,1784843339973.017
0.838,0.047,-0.399,-5.62,123.78,138.77,1784843339973.372
0.848,-0.01,-0.337,1.5,125.0,137.55,1784843339973.736
0.848,-0.058,-0.287,7.6,125.0,135.29,1784843339974.0952
0.854,-0.093,-0.251,12.42,124.64,133.0,1784843339974.457
0.881,-0.132,-0.192,14.83,122.53,130.44,1784843339974.8118
0.922,-0.175,-0.119,15.75,118.93,125.92,1784843339975.172
0.964,-0.221,-0.043,15.87,113.71,119.97,1784843339975.531
1.008,-0.272,0.016,15.41,106.63,113.56,1784843339975.89
1.025,-0.319,0.049,14.04,98.24,105.87,1784843339976.242
1.024,-0.369,0.09,10.93,89.11,97.32,1784843339976.594
1.037,-0.43,0.126,7.57,78.8,87.98,1784843339976.959
1.048,-0.487,0.156,3.78,68.06,77.33,1784843339977.2852
1.049,-0.548,0.208,-1.1,56.22,66.71,1784843339977.608
1.047,-0.621,0.261,-3.85,42.51,54.9,1784843339977.932
1.044,-0.675,0.305,-2.44,27.31,41.47,1784843339978.261
1.037,-0.708,0.314,3.57,10.96,28.05,1784843339978.584
1.017,-0.705,0.295,8.58,-5.22,14.22,1784843339978.8953
0.998,-0.692,0.284,9.4,-20.51,-0.06,1784843339979.205
0.986,-0.689,0.295,7.57,-36.04,-14.89,1784843339979.5178
0.979,-0.676,0.278,6.47,-52.1,-29.94,1784843339979.8247
0.959,-0.636,0.24,5.83,-67.51,-44.22,1784843339980.137
0.931,-0.594,0.201,3.14,-82.16,-57.47,1784843339980.447
0.902,-0.557,0.161,-0.31,-95.89,-70.5,1784843339980.758
0.902,-0.557,0.161,-1.71,-108.22,-82.67,1784843339981.07
0.87,-0.511,0.09,-1.4,-118.63,-93.39,1784843339981.4011
0.838,-0.449,0.021,-0.73,-127.41,-102.85,1784843339981.72
0.802,-0.387,-0.047,-0.09,-134.37,-110.75,1784843339982.034
0.774,-0.323,-0.122,0.58,-139.96,-118.05,1784843339982.351
0.755,-0.258,-0.183,0.58,-139.96,-118.05,1784843339982.6738
0.734,-0.191,-0.271,1.59,-144.32,-124.79,1784843339982.994
0.742,-0.096,-0.462,3.97,-146.46,-129.55,1784843339983.317
0.758,0.024,-0.725,5.83,-143.1,-132.05,1784843339983.6318
0.761,0.161,-0.991,0.76,-132.63,-132.21,1784843339983.9539
0.779,0.282,-1.2,-12.85,-114.93,-130.86,1784843339984.275
0.806,0.354,-1.289,-30.7,-92.87,-129.95,1784843339984.597
0.814,0.383,-1.28,-47.3,-69.8,-130.34,1784843339984.9092
0.756,0.392,-1.209,-58.93,-48.62,-130.8,1784843339985.233
0.669,0.392,-1.105,-65.19,-31.83,-129.92,1784843339985.559
0.661,0.377,-1.033,-66.68,-18.13,-126.16,1784843339985.873
0.651,0.403,-0.981,-64.27,-4.46,-119.66,1784843339986.192
0.64,0.464,-0.962,-50.87,11.47,-107.39,1784843339986.5178
0.654,0.539,-0.967,-22.52,28.63,-90.76,1784843339986.8381
0.675,0.622,-0.981,14.92,46.3,-71.5,1784843339987.145
0.692,0.688,-0.984,47.43,62.93,-53.04,1784843339987.4648
0.691,0.735,-0.972,67.51,77.52,-38.39,1784843339987.782
0.686,0.757,-0.933,75.87,89.97,-25.67,1784843339988.0981
0.683,0.784,-0.893,71.69,99.8,-13.92,1784843339988.406
0.681,0.795,-0.842,59.27,107.18,-2.44,1784843339988.722
0.662,0.79,-0.8,42.7,112.52,8.51,1784843339989.0361
0.639,0.793,-0.757,23.38,116.73,19.47,1784843339989.356
0.64,0.786,-0.707,0.31,119.3,29.63,1784843339989.6692
0.65,0.746,-0.634,-22.86,120.43,37.2,1784843339989.993
0.639,0.7,-0.544,-42.51,119.48,44.01,1784843339990.313
0.633,0.653,-0.454,-57.34,116.86,51.36,1784843339990.63
0.631,0.595,-0.365,-67.96,113.77,58.75,1784843339990.9438
0.634,0.527,-0.282,-73.31,110.93,66.87,1784843339991.2761
0.642,0.462,-0.199,-71.63,107.64,75.14,1784843339991.6348
0.668,0.413,-0.134,-63.66,103.09,82.95,1784843339991.957
0.745,0.37,-0.097,-52.8,97.96,89.6,1784843339992.2668
0.827,0.317,-0.067,-43.06,93.33,93.75,1784843339992.581
0.87,0.278,-0.024,-38.97,88.53,95.89,1784843339992.896
0.899,0.232,0.002,-40.1,83.41,97.48,1784843339993.2083
0.938,0.193,0.012,-46.33,78.1,98.39,1784843339993.55
1.002,0.14,0.006,-55.88,73.06,98.36,1784843339993.8801
1.032,0.078,-0.005,-67.35,68.94,96.96,1784843339994.203
1.018,0.035,0.029,-77.18,68.24,94.67,1784843339994.514
1.001,-0.022,0.113,-78.04,68.0,92.35,1784843339994.835
0.989,-0.095,0.215,-69.52,64.42,90.88,1784843339995.167
1.0,-0.161,0.298,-56.31,57.86,89.85,1784843339995.487
1.016,-0.24,0.339,-44.56,50.02,87.62,1784843339995.7969
1.028,-0.325,0.379,-38.67,41.35,81.39,1784843339996.131
1.035,-0.4,0.416,-37.2,31.5,71.99,1784843339996.4429
1.044,-0.474,0.447,-36.62,21.15,61.89,1784843339996.7703
1.032,-0.531,0.46,-34.09,11.35,50.97,1784843339997.081
0.992,-0.548,0.443,-17.27,-7.81,32.5,1784843339997.699
0.958,-0.538,0.407,-2.81,-16.63,24.38,1784843339998.008
-0.866,-0.315,-0.282,-60.67,-35.13,-28.6,1784843339998.7148
-0.833,-0.334,-0.265,-65.65,-38.15,-24.02,1784843339999.025
-0.793,-0.335,-0.264,-65.43,-39.8,-21.21,1784843339999.3333
-0.775,-0.334,-0.265,-61.92,-39.8,-18.95,1784843339999.641
-0.766,-0.346,-0.261,-57.1,-39.55,-13.76,1784843340002.815
-0.758,-0.347,-0.265,-50.2,-39.12,-7.63,1784843340013.434
-0.756,-0.343,-0.282,-41.54,-38.64,-2.66,1784843340023.9612
-0.754,-0.357,-0.296,-31.98,-38.12,2.99,1784843340037.2268
-0.755,-0.373,-0.312,-20.11,-37.08,9.74,1784843340042.908
-0.738,-0.387,-0.373,-5.77,-35.68,15.78,1784843340056.576
-0.631,-0.452,-0.829,-2.14,-27.16,18.74,1784843340063.8987
-0.655,-0.555,-0.821,-45.87,-2.99,17.09,1784843340077.2742
-0.744,-0.537,-0.527,-38.39,-5.37,14.28,1784843340082.9902
-0.641,-0.49,-0.857,28.69,-8.67,15.75,1784843340093.4458
-0.72,-0.495,-0.846,45.78,7.51,21.45,1784843340104.0269
-0.791,-0.518,-0.686,57.62,20.26,28.87,1784843340117.2522
-0.808,-0.468,-0.573,87.22,27.8,35.07,1784843340123.1448
-0.779,-0.454,-0.521,113.74,31.86,39.12,1784843340133.797
-0.812,-0.404,-0.441,127.93,35.92,41.87,1784843340147.1702
-0.777,-0.411,-0.368,140.05,39.12,45.93,1784843340152.859
-0.727,-0.483,-0.313,149.66,41.87,45.47,1784843340164.022
-0.772,-0.516,-0.325,156.5,43.18,40.89,1784843340177.307
-0.797,-0.564,-0.37,158.79,44.37,34.15,1784843340183.115
-0.787,-0.666,-0.434,155.83,46.17,24.17,1784843340193.897
-0.782,-0.813,-0.538,147.43,48.16,9.13,1784843340204.449
-0.781,-1.0,-0.608,133.24,53.38,-11.75,1784843340217.907
-0.782,-1.069,-0.557,113.07,58.26,-35.31,1784843340223.674
-0.773,-1.07,-0.545,89.75,58.96,-51.0,1784843340234.643
-0.708,-1.122,-0.535,65.4,59.3,-58.87,1784843340247.7188
-0.654,-1.18,-0.534,42.82,59.27,-66.96,1784843340253.402
-0.612,-1.227,-0.517,24.93,57.07,-70.59,1784843340264.126
-0.54,-1.196,-0.572,10.41,54.48,-74.98,1784843340277.424
-0.508,-1.153,-0.707,-13.28,53.07,-87.59,1784843340283.385
-0.494,-1.141,-0.831,-55.24,53.19,-103.98,1784843340293.877
-0.47,-1.199,-0.886,-102.39,56.12,-122.26,1784843340307.282
-0.443,-1.309,-0.892,-138.92,61.62,-140.32,1784843340313.1453
-0.428,-1.395,-0.882,-157.29,68.39,-154.94,1784843340324.2358
-0.457,-1.394,-0.976,-165.78,75.2,-164.98,1784843340337.522
-0.47,-1.398,-1.078,-176.34,84.72,-170.23,1784843340343.195
-0.465,-1.441,-1.174,-189.03,96.32,-178.08,1784843340354.398
-0.468,-1.577,-1.255,-195.59,111.33,-189.31,1784843340367.666
-0.516,-1.771,-1.238,-184.88,130.68,-202.19,1784843340373.675
-0.579,-1.881,-1.142,-150.55,149.91,-212.53,1784843340387.198
-0.625,-1.805,-1.066,-100.5,164.86,-222.85,1784843340393.2349
-0.646,-1.6,-1.057,-53.29,174.02,-236.18,1784843340404.319
-0.62,-1.398,-1.088,-27.89,179.54,-248.6,1784843340417.5051
-0.574,-1.266,-1.083,-26.67,184.0,-257.58,1784843340423.3977
-0.538,-1.189,-1.047,-37.14,189.83,-263.8,1784843340434.476
-0.509,-1.169,-1.028,-45.59,196.36,-266.76,1784843340447.87
-0.495,-1.184,-1.045,-47.55,201.57,-266.55,1784843340453.644
-0.478,-1.143,-1.032,-47.88,204.96,-265.18,1784843340467.197
-0.444,-1.071,-1.047,-49.01,206.12,-262.61,1784843340473.208
-0.425,-1.052,-1.066,-55.27,206.88,-259.9,1784843340484.0908
-0.426,-1.086,-1.04,-64.42,207.71,-257.76,1784843340497.444
-0.428,-1.125,-0.981,-70.01,208.23,-256.32,1784843340503.247
-0.395,-1.124,-0.919,-69.52,208.23,-253.82,1784843340514.324
-0.332,-1.09,-0.848,-64.36,208.11,-249.55,1784843340527.6921
-0.283,-1.039,-0.762,-57.99,206.37,-244.54,1784843340533.47
-0.254,-0.982,-0.715,-56.49,201.24,-239.81,1784843340547.028
-0.219,-0.914,-0.678,-65.8,194.4,-235.63,1784843340552.981
-0.154,-0.877,-0.638,-80.39,188.7,-231.6,1784843340564.033
-0.102,-0.87,-0.635,-92.17,185.34,-226.91,1784843340577.4011
-0.066,-0.86,-0.605,-94.18,184.91,-221.99,1784843340583.383
-0.041,-0.822,-0.567,-87.19,181.59,-216.77,1784843340594.374
-0.02,-0.761,-0.556,-76.39,176.34,-211.65,1784843340607.647
-0.006,-0.71,-0.565,-64.52,170.9,-207.04,1784843340613.489
0.02,-0.652,-0.572,-58.53,165.41,-203.71,1784843340624.338
0.053,-0.606,-0.541,-59.24,161.29,-199.99,1784843340638.602
0.068,-0.573,-0.477,-62.14,158.88,-195.93,1784843340643.8147
0.031,-0.5,-0.399,-64.36,159.89,-194.71,1784843340657.206
0.067,-0.428,-0.326,-65.86,165.99,-194.74,1784843340662.966
0.168,-0.484,-0.269,-62.47,153.23,-178.78,1784843340674.241
0.258,-0.509,-0.213,-47.3,127.87,-150.21,1784843340687.431
0.167,-0.406,-0.25,-27.71,126.22,-153.26,1784843340693.523
0.083,-0.285,-0.236,-23.9,129.37,-161.99,1784843340704.33
0.168,-0.264,-0.137,-30.82,129.25,-161.35,1784843340717.773
0.252,-0.261,-0.038,-33.33,118.23,-160.07,1784843340723.532
0.252,-0.261,-0.038,-22.43,100.68,-148.66,1784843340736.9878
0.286,-0.287,0.034,-3.17,89.3,-135.81,1784843340743.0168
0.272,-0.28,0.053,11.81,78.52,-132.69,1784843340753.7698
0.236,-0.222,0.054,18.22,67.51,-135.96,1784843340764.685
0.229,-0.191,0.084,18.22,67.51,-135.96,1784843340778.059
0.276,-0.211,0.126,19.47,56.79,-137.97,1784843340783.798
0.342,-0.23,0.148,23.83,43.28,-138.68,1784843340794.277
0.393,-0.207,0.139,32.14,25.03,-135.14,1784843340808.019
0.352,-0.142,0.115,38.7,8.67,-131.72,1784843340813.9038
0.27,-0.085,0.099,39.89,-4.24,-132.73,1784843340824.3157
0.316,-0.077,0.089,37.26,-19.71,-132.94,1784843340837.708
0.437,-0.082,0.04,35.95,-37.14,-134.8,1784843340843.324
0.451,-0.025,-0.039,35.1,-51.73,-140.29,1784843340854.3757
0.389,0.042,-0.128,31.25,-63.11,-143.41,1784843340867.626
0.35,0.092,-0.215,23.62,-73.58,-145.27,1784843340874.943
0.324,0.152,-0.308,16.6,-81.03,-146.82,1784843340884.328
0.316,0.214,-0.388,12.33,-84.6,-144.51,1784843340897.6982
0.371,0.278,-0.454,10.13,-85.76,-139.01,1784843340903.5652
0.47,0.34,-0.51,7.75,-87.41,-134.46,1784843340914.1892
0.475,0.419,-0.543,1.43,-88.56,-134.28,1784843340927.406
0.417,0.49,-0.605,-6.47,-86.21,-132.33,1784843340933.4312
0.377,0.56,-0.673,-11.35,-81.88,-127.08,1784843340943.614
0.371,0.634,-0.734,-9.98,-75.69,-119.14,1784843340954.279
0.388,0.73,-0.802,-5.1,-65.83,-108.4,1784843340967.658
0.428,0.831,-0.876,3.11,-54.11,-92.96,1784843340973.258
0.482,0.898,-0.968,15.81,-40.83,-74.89,1784843340983.838
0.532,0.947,-1.063,29.63,-25.51,-57.28,1784843340997.1787
0.567,0.998,-1.12,39.03,-9.58,-40.25,1784843341002.84
0.587,1.024,-1.146,44.01,6.29,-23.53,1784843341013.37
0.598,1.007,-1.135,45.32,21.94,-7.81,1784843341023.968
0.621,0.992,-1.098,42.45,36.71,8.58,1784843341037.26
0.662,0.961,-1.055,38.67,50.75,25.39,1784843341042.8958
0.67,0.907,-1.024,34.91,62.99,39.64,1784843341053.646
0.66,0.831,-0.997,26.8,75.05,51.12,1784843341064.22
0.656,0.683,-0.941,20.05,86.98,58.99,1784843341077.5908
0.657,0.539,-0.884,23.47,95.22,61.86,1784843341083.1968
0.676,0.478,-0.801,35.04,98.94,64.15,1784843341094.1062
0.701,0.488,-0.74,45.72,102.08,71.66,1784843341107.3699
0.756,0.522,-0.663,45.44,108.19,84.08,1784843341113.16
0.765,0.525,-0.585,36.26,114.11,92.26,1784843341124.01
0.771,0.464,-0.529,20.91,116.64,96.16,1784843341137.433
0.776,0.336,-0.492,1.77,116.25,93.63,1784843341148.322
0.776,0.17,-0.45,-14.37,114.47,85.12,1784843341155.128
0.805,0.094,-0.366,-25.33,111.7,76.63,1784843341167.266
0.858,0.059,-0.286,-31.62,108.37,74.22,1784843341172.9973
0.892,0.025,-0.199,-33.85,105.38,75.69,1784843341184.169
0.91,-0.021,-0.146,-29.91,101.41,75.96,1784843341197.346
0.937,-0.058,-0.116,-22.68,96.13,72.82,1784843341203.253
0.949,-0.087,-0.076,-16.27,90.03,67.45,1784843341213.913
0.964,-0.107,-0.035,-10.62,84.69,61.59,1784843341224.5571
1.0,-0.154,-0.025,-3.81,79.9,55.88,1784843341237.8088
0.983,-0.19,-0.003,2.66,76.69,50.11,1784843341243.7131
0.963,-0.216,0.029,7.6,72.97,45.78,1784843341253.939
0.949,-0.25,0.064,10.28,66.5,38.97,1784843341264.4648
0.928,-0.289,0.097,13.25,57.65,29.48,1784843341277.91
0.915,-0.306,0.14,17.64,45.5,19.32,1784843341283.795
0.879,-0.292,0.19,21.15,31.16,8.21,1784843341294.2122
0.86,-0.297,0.235,23.07,15.11,-4.18,1784843341307.575
0.858,-0.295,0.25,24.99,-3.81,-16.82,1784843341313.429
0.812,-0.288,0.233,27.22,-22.06,-28.05,1784843341323.9382
0.778,-0.3,0.224,26.37,-40.22,-38.82,1784843341334.119
0.743,-0.321,0.258,22.43,-58.53,-50.39,1784843341347.657
0.716,-0.349,0.309,20.84,-77.06,-61.04,1784843341353.375
0.679,-0.362,0.344,25.42,-96.35,-70.93,1784843341364.053
0.624,-0.333,0.287,35.07,-115.54,-79.87,1784843341377.698
0.577,-0.254,0.146,43.37,-133.49,-87.83,1784843341383.3052
0.552,-0.157,-0.001,44.98,-149.33,-95.49,1784843341394.04
0.536,-0.073,-0.135,37.32,-162.05,-103.95,1784843341407.5378
0.543,0.005,-0.209,24.2,-171.82,-111.67,1784843341413.346
0.563,0.071,-0.277,16.11,-178.87,-117.53,1784843341424.3672
0.557,0.141,-0.383,15.38,-181.89,-121.22,1784843341437.7083
0.544,0.242,-0.525,16.94,-180.55,-121.28,1784843341443.561
0.555,0.349,-0.667,18.74,-175.12,-117.74,1784843341454.7222
0.569,0.428,-0.812,21.49,-166.14,-113.19,1784843341467.946
0.568,0.51,-0.927,23.19,-154.88,-108.4,1784843341473.966
0.573,0.579,-1.037,24.29,-142.43,-102.02,1784843341487.2961
0.59,0.653,-1.166,27.56,-126.71,-94.39,1784843341492.9658
0.605,0.736,-1.293,34.15,-108.07,-84.23,1784843341511.729
0.616,0.825,-1.402,38.12,-87.92,-72.45,1784843341514.333
0.642,0.884,-1.462,36.32,-66.99,-60.21,1784843341527.8398
0.671,0.901,-1.49,30.3,-46.11,-49.01,1784843341533.586
0.672,0.896,-1.467,23.38,-25.57,-38.0,1784843341544.301
0.668,0.873,-1.413,18.04,-5.25,-25.64,1784843341557.626
0.68,0.857,-1.37,17.06,14.47,-11.66,1784843341563.401
0.687,0.84,-1.336,20.48,33.17,2.72,1784843341573.9
0.669,0.816,-1.287,23.41,49.87,15.59,1784843341584.5608
0.651,0.781,-1.214,23.74,63.75,26.0,1784843341597.8032
0.644,0.741,-1.14,21.52,75.38,34.91,1784843341603.6602
0.632,0.703,-1.069,17.09,85.3,42.97,1784843341614.1838
0.626,0.661,-1.006,9.37,93.6,50.33,1784843341627.444
0.636,0.598,-0.927,-0.43,100.13,56.34,1784843341633.405
0.634,0.545,-0.861,-7.78,103.92,60.27,1784843341643.8342
0.636,0.508,-0.808,-11.75,106.69,63.69,1784843341654.572
0.647,0.473,-0.743,-16.51,109.65,67.48,1784843341668.032
0.679,0.43,-0.7,-24.23,112.58,71.78,1784843341673.691
0.714,0.397,-0.649,-34.36,115.91,76.6,1784843341684.353
0.729,0.361,-0.575,-44.25,119.02,81.18,1784843341697.812
0.741,0.361,-0.555,-55.12,121.83,85.39,1784843341703.7
0.758,0.367,-0.622,-69.77,127.2,90.24,1784843341714.3708
0.751,0.333,-0.618,-91.19,133.27,94.09,1784843341727.801
0.759,0.238,-0.524,-111.79,138.74,96.44,1784843341733.622
0.788,0.134,-0.422,-119.08,142.7,96.87,1784843341744.665
0.791,0.021,-0.337,-109.65,144.72,97.54,1784843341757.997
0.778,-0.085,-0.257,-90.4,145.48,99.64,1784843341763.793
0.769,-0.16,-0.141,-67.96,143.89,100.01,1784843341777.307
0.788,-0.237,-0.02,-42.7,141.0,97.48,1784843341783.0688
0.839,-0.303,0.128,-14.62,135.26,94.12,1784843341794.0217
0.903,-0.331,0.234,13.4,123.81,88.17,1784843341807.2852
0.935,-0.328,0.26,34.18,108.49,79.07,1784843341813.231
0.937,-0.321,0.251,45.5,92.72,66.93,1784843341823.945
0.933,-0.319,0.212,47.4,76.17,52.19,1784843341834.464
0.9,-0.325,0.198,42.33,58.53,36.87,1784843341847.783
0.86,-0.332,0.219,33.88,40.74,21.42,1784843341853.7031
0.835,-0.355,0.295,22.03,21.42,6.99,1784843341864.1702
0.819,-0.39,0.365,11.69,-0.58,-6.29,1784843341874.634
0.814,-0.402,0.404,7.42,-24.41,-18.89,1784843341887.9219
0.803,-0.383,0.41,8.24,-48.4,-31.01,1784843341893.7158
0.787,-0.341,0.379,10.65,-71.57,-42.18,1784843341904.096
0.766,-0.299,0.333,11.6,-93.14,-52.52,1784843341917.402
0.745,-0.279,0.29,10.41,-112.28,-62.87,1784843341923.319
0.724,-0.267,0.239,11.14,-129.28,-72.24,1784843341933.9832
0.707,-0.241,0.164,14.77,-144.38,-79.9,1784843341947.333
0.688,-0.189,0.071,19.29,-157.48,-86.55,1784843341953.182
0.674,-0.12,-0.026,23.07,-168.4,-92.26,1784843341963.9722
0.664,-0.046,-0.143,24.81,-176.12,-96.84,1784843341974.7532
0.664,0.038,-0.286,25.24,-180.91,-99.89,1784843341988.0562
0.668,0.127,-0.44,24.75,-182.04,-102.11,1784843341993.83
0.666,0.214,-0.59,22.55,-179.08,-102.97,1784843342007.4028
0.673,0.308,-0.692,17.91,-172.86,-101.84,1784843342013.312
0.673,0.308,-0.692,12.15,-164.65,-99.89,1784843342024.274
0.679,0.378,-0.754,7.63,-155.28,-97.38,1784843342040.511
0.673,0.43,-0.793,6.07,-145.21,-93.6,1784843342044.3088
0.678,0.48,-0.845,9.09,-132.51,-87.68,1784843342053.8699
0.668,0.532,-0.916,17.79,-118.26,-79.26,1784843342064.4998
0.671,0.576,-0.994,17.79,-118.26,-79.26,1784843342077.764
0.684,0.636,-1.096,29.24,-103.24,-70.5,1784843342083.5461
0.69,0.719,-1.207,39.0,-86.89,-60.27,1784843342094.39
0.702,0.778,-1.285,44.01,-68.88,-48.31,1784843342107.705
0.709,0.794,-1.328,43.09,-50.57,-37.23,1784843342113.496
0.71,0.8,-1.351,38.51,-31.83,-26.98,1784843342124.148
0.714,0.795,-1.35,33.23,-12.82,-15.78,1784843342137.343
0.709,0.78,-1.322,27.8,5.74,-4.12,1784843342143.101
0.695,0.755,-1.272,22.4,22.98,7.17,1784843342153.554
0.685,0.721,-1.197,18.04,38.61,18.13,1784843342164.233
0.663,0.685,-1.136,16.42,52.46,28.69,1784843342177.606
0.645,0.656,-1.093,16.05,64.91,38.88,1784843342183.563
0.64,0.62,-1.046,13.95,75.75,48.4,1784843342193.935
0.635,0.58,-0.995,9.03,85.45,56.06,1784843342204.5708
0.636,0.534,-0.942,2.72,94.45,62.32,1784843342218.091
0.641,0.485,-0.885,-4.27,102.88,68.0,1784843342223.701
0.667,0.439,-0.832,-11.9,111.27,73.4,1784843342234.2988
0.698,0.362,-0.757,-20.08,118.41,77.43,1784843342247.5278
0.703,0.275,-0.665,-27.16,122.47,78.68,1784843342253.4038
0.727,0.197,-0.584,-30.27,123.6,79.23,1784843342264.15
0.767,0.146,-0.519,-28.93,122.01,78.49,1784843342277.5117
0.801,0.13,-0.453,-26.7,118.56,76.14,1784843342283.222
0.825,0.113,-0.394,-25.33,114.47,72.27,1784843342294.2068
0.853,0.083,-0.347,-24.81,109.62,67.96,1784843342307.489
0.868,0.056,-0.326,-24.99,104.22,64.0,1784843342313.281
0.879,0.035,-0.302,-25.79,98.15,60.76,1784843342323.99
0.912,0.002,-0.276,-26.89,91.53,57.53,1784843342334.372
0.937,-0.036,-0.245,-27.28,84.81,53.19,1784843342347.743
0.944,-0.056,-0.208,-27.19,77.0,48.19,1784843342353.415
0.957,-0.064,-0.162,-26.92,68.42,43.03,1784843342364.106
0.975,-0.076,-0.121,-27.19,59.6,37.54,1784843342377.41
0.979,-0.094,-0.073,-28.47,50.48,31.77,1784843342382.9902
0.973,-0.114,-0.02,-29.18,40.96,25.51,1784843342393.919
0.979,-0.144,0.034,-27.74,30.95,19.29,1784843342407.089
0.977,-0.179,0.085,-24.23,19.29,12.91,1784843342412.7512
0.937,-0.199,0.108,-18.37,7.17,6.07,1784843342423.294
0.907,-0.208,0.113,-12.05,-4.52,-0.37,1784843342433.768
0.9,-0.223,0.116,-6.99,-16.69,-7.05,1784843342444.32
0.889,-0.237,0.109,-1.65,-28.96,-14.8,1784843342457.622
0.875,-0.224,0.073,3.51,-40.41,-23.19,1784843342471.347
0.843,-0.205,0.032,6.29,-50.75,-31.5,1784843342473.86
0.821,-0.192,-0.01,6.99,-60.91,-39.83,1784843342484.431
0.803,-0.187,-0.042,7.2,-70.59,-48.8,1784843342497.948
0.793,-0.179,-0.07,6.65,-79.96,-57.95,1784843342503.681
0.777,-0.148,-0.104,5.77,-88.44,-67.08,1784843342513.911
0.754,-0.104,-0.14,5.1,-95.77,-75.05,1784843342524.5703
0.734,-0.058,-0.186,4.91,-102.48,-81.55,1784843342537.9673
0.718,-0.008,-0.242,6.44,-107.94,-86.83,1784843342543.808
0.708,0.061,-0.312,9.46,-111.91,-91.07,1784843342554.5708
0.695,0.144,-0.406,12.18,-114.38,-93.69,1784843342567.492
0.676,0.224,-0.495,13.12,-114.84,-94.97,1784843342573.522
0.658,0.308,-0.593,12.02,-113.74,-95.22,1784843342584.417
0.652,0.402,-0.712,8.58,-110.05,-93.72,1784843342597.555
0.642,0.502,-0.845,3.91,-103.37,-91.1,1784843342603.3499
0.638,0.6,-0.959,-1.28,-94.09,-85.94,1784843342613.864
0.648,0.682,-1.035,-8.09,-82.4,-79.07,1784843342624.5032
0.65,0.745,-1.082,-14.89,-68.64,-70.68,1784843342637.758
0.648,0.804,-1.116,-17.98,-52.86,-59.63,1784843342643.689
0.659,0.87,-1.138,-14.37,-34.79,-44.28,1784843342654.182
0.699,0.909,-1.16,-3.81,-15.63,-25.57,1784843342664.682
0.729,0.93,-1.191,7.66,4.58,-8.21,1784843342677.9949
0.745,0.922,-1.183,17.03,25.54,8.85,1784843342683.8037
0.781,0.873,-1.122,23.35,46.14,24.87,1784843342694.1418
0.814,0.783,-1.056,25.76,65.86,38.15,1784843342704.681
0.82,0.67,-0.973,23.99,83.8,48.49,1784843342717.809
0.831,0.564,-0.862,21.67,98.61,56.67,1784843342723.9302
0.838,0.483,-0.791,23.26,108.37,62.87,1784843342734.564
0.85,0.441,-0.781,23.26,113.93,67.2,1784843342747.7397
0.865,0.381,-0.783,15.96,117.59,67.81,1784843342753.7039
0.866,0.303,-0.779,4.39,120.52,63.14,1784843342764.31
0.86,0.244,-0.736,-7.02,123.54,55.88,1784843342777.7952
0.851,0.218,-0.672,-17.0,125.98,48.65,1784843342783.541
0.836,0.187,-0.603,-25.64,128.09,43.52,1784843342794.2842
0.827,0.153,-0.523,-31.65,130.77,40.77,1784843342807.627
0.828,0.139,-0.461,-33.39,133.4,39.22,1784843342813.3901
0.818,0.153,-0.4,-31.83,134.68,38.54,1784843342824.29
0.818,0.181,-0.36,-29.05,134.53,38.0,1784843342837.543
0.821,0.196,-0.308,-27.68,133.43,36.9,1784843342843.463
0.817,0.186,-0.228,-27.41,131.08,35.07,1784843342854.338
0.821,0.169,-0.151,-25.21,127.45,33.72,1784843342867.5461
0.823,0.167,-0.073,-21.58,122.38,32.44,1784843342873.437
0.831,0.16,0.012,-18.92,116.12,30.88,1784843342884.24
0.855,0.133,0.101,-16.27,108.86,28.66,1784843342897.476
0.867,0.089,0.18,-11.08,99.73,25.97,1784843342903.1538
0.853,0.064,0.234,-3.11,89.11,23.32,1784843342913.842
0.838,0.051,0.273,5.86,77.85,20.94,1784843342924.413
0.843,0.032,0.3,13.37,65.77,18.07,1784843342937.6882
