ax,ay,az,gx,gy,gz,timestamp_ms
0.052,-0.431,-0.97,47.7,19.75,-38.18,1785096992423.063
-0.004,-0.394,-1.095,63.78,30.15,-68.03,1785096992423.605
-0.043,-0.376,-1.189,69.61,44.22,-93.57,1785096992424.147
-0.093,-0.371,-1.234,64.82,58.96,-116.09,1785096992424.6577
-0.155,-0.372,-1.253,51.33,70.31,-134.28,1785096992425.083
-0.208,-0.405,-1.276,34.12,78.59,-148.26,1785096992425.5203
-0.25,-0.462,-1.288,16.02,86.55,-158.45,1785096992425.94
-0.277,-0.516,-1.275,-0.52,95.77,-163.4,1785096992426.351
-0.296,-0.562,-1.258,-10.53,105.47,-165.81,1785096992426.784
-0.312,-0.574,-1.228,-12.88,113.35,-166.72,1785096992427.214
-0.303,-0.551,-1.166,-7.87,119.14,-165.93,1785096992427.724
-0.214,-0.534,-1.165,2.96,120.49,-164.59,1785096992428.174
-0.134,-0.515,-1.109,12.05,118.78,-166.05,1785096992428.5837
-0.079,-0.476,-1.038,18.37,112.92,-167.24,1785096992428.991
-0.029,-0.439,-0.994,27.01,108.16,-167.09,1785096992429.41
0.015,-0.437,-0.975,38.27,105.26,-167.42,1785096992429.822
0.072,-0.459,-0.987,48.95,104.4,-168.98,1785096992430.2358
0.15,-0.457,-0.991,55.67,107.0,-166.63,1785096992430.6309
0.236,-0.432,-0.957,62.59,113.38,-158.57,1785096992430.983
0.317,-0.345,-0.907,70.86,117.83,-146.52,1785096992431.341
0.459,-0.241,-0.869,79.59,120.0,-132.08,1785096992431.689
0.574,-0.14,-0.798,86.52,115.85,-120.76,1785096992432.051
0.645,-0.072,-0.722,86.73,107.0,-113.16,1785096992432.4082
0.702,-0.045,-0.639,83.86,98.73,-111.61,1785096992432.822
0.742,-0.033,-0.609,83.59,93.17,-113.83,1785096992433.1838
0.79,0.024,-0.587,84.26,93.17,-115.67,1785096992433.5378
0.862,0.104,-0.565,86.7,94.73,-115.24,1785096992433.8948
0.96,0.156,-0.587,95.68,97.9,-113.1,1785096992434.2668
0.981,0.21,-0.6,103.79,102.82,-109.81,1785096992434.623
1.041,0.211,-0.55,106.08,107.27,-102.02,1785096992434.987
1.091,0.211,-0.498,106.88,109.87,-101.05,1785096992435.426
1.108,0.184,-0.485,104.95,112.28,-101.41,1785096992435.7979
1.168,0.224,-0.474,91.95,115.88,-102.57,1785096992436.218
1.21,0.265,-0.412,68.48,118.2,-101.96,1785096992436.591
1.204,0.284,-0.335,38.42,118.78,-103.79,1785096992436.9658
1.248,0.368,-0.251,8.88,118.96,-107.43,1785096992437.3162
1.237,0.393,-0.172,-15.14,116.21,-101.41,1785096992437.668
1.254,0.472,-0.113,-32.41,113.8,-97.08,1785096992438.035
1.266,0.581,-0.06,-41.96,109.62,-92.84,1785096992438.346
1.244,0.694,0.009,-43.86,103.55,-88.56,1785096992438.674
1.243,0.788,0.058,-35.16,96.59,-85.57,1785096992438.96
1.222,0.846,0.089,-21.06,88.84,-83.32,1785096992439.273
1.191,0.859,0.122,-2.62,80.14,-78.22,1785096992439.6003
1.176,0.866,0.145,21.39,70.74,-71.32,1785096992439.942
1.21,0.871,0.134,42.91,62.04,-63.05,1785096992440.2417
1.224,0.836,0.127,52.55,53.99,-54.02,1785096992440.5398
1.224,0.836,0.127,47.46,44.65,-45.96,1785096992440.84
1.218,0.755,0.112,25.45,33.05,-38.54,1785096992441.123
1.195,0.684,0.085,-4.12,21.94,-30.79,1785096992441.4148
1.172,0.657,0.062,-30.43,11.2,-21.67,1785096992441.7139
1.152,0.679,0.031,-30.43,11.2,-21.67,1785096992442.014
1.144,0.749,0.023,-50.02,0.58,-10.13,1785096992442.301
1.16,0.802,-0.006,-57.47,-8.33,2.04,1785096992442.6172
1.186,0.818,-0.049,-55.51,-14.22,11.99,1785096992442.9177
1.167,0.767,-0.076,-47.67,-16.36,20.14,1785096992443.225
1.158,0.659,-0.113,-37.63,-17.46,29.18,1785096992443.522
1.148,0.576,-0.141,-33.78,-19.84,40.41,1785096992443.815
1.132,0.531,-0.153,-36.9,-23.87,54.41,1785096992444.105
1.13,0.517,-0.171,-43.37,-28.32,67.93,1785096992444.3882
1.129,0.522,-0.183,-51.03,-32.62,79.23,1785096992444.681
1.16,0.517,-0.212,-58.17,-37.66,88.17,1785096992444.972
1.168,0.482,-0.256,-64.67,-41.66,93.78,1785096992445.2678
1.148,0.427,-0.268,-72.39,-44.31,100.62,1785096992445.5613
1.119,0.364,-0.258,-78.4,-46.57,110.02,1785096992445.872
1.03,0.312,-0.243,-81.7,-50.97,118.81,1785096992446.178
0.942,0.271,-0.244,-84.11,-57.8,128.03,1785096992446.451
0.863,0.248,-0.248,-87.28,-66.53,136.94,1785096992446.735
0.806,0.222,-0.261,-87.71,-76.48,145.73,1785096992447.0068
0.756,0.183,-0.292,-84.99,-86.86,153.42,1785096992447.336
0.678,0.154,-0.294,-82.43,-96.74,160.53,1785096992447.645
0.576,0.145,-0.279,-78.98,-108.58,169.5,1785096992447.91
0.475,0.125,-0.245,-71.35,-122.99,182.44,1785096992448.183
0.328,0.087,-0.21,-58.41,-139.01,193.91,1785096992448.4658
0.17,0.042,-0.191,-44.07,-156.19,202.43,1785096992448.739
0.054,0.021,-0.174,-28.96,-173.19,207.8,1785096992449.004
-0.059,-0.037,-0.239,-10.99,-190.83,211.77,1785096992449.3088
-0.224,-0.12,-0.376,-0.03,-206.34,214.27,1785096992449.598
-0.424,-0.162,-0.493,-4.61,-215.98,216.62,1785096992449.8718
-0.579,-0.208,-0.611,-17.0,-226.87,222.45,1785096992450.1428
-0.659,-0.349,-0.804,-25.67,-235.21,227.76,1785096992450.418
-0.738,-0.465,-0.942,-33.51,-231.6,220.89,1785096992450.691
-0.834,-0.512,-1.064,-38.73,-222.39,211.8,1785096992450.956
-0.841,-0.584,-1.235,-31.89,-206.88,209.2,1785096992451.23
-0.833,-0.681,-1.393,-18.62,-183.87,202.64,1785096992451.515
-0.746,-0.685,-1.455,-9.43,-155.92,193.58,1785096992451.794
-0.552,-0.647,-1.374,-6.1,-130.8,187.84,1785096992452.0928
-0.356,-0.584,-1.193,-7.35,-107.64,174.44,1785096992452.359
-0.207,-0.51,-0.976,-11.35,-86.09,153.78,1785096992452.628
-0.08,-0.517,-0.775,-12.15,-69.09,132.21,1785096992452.898
0.037,-0.602,-0.616,-6.99,-56.06,106.2,1785096992453.158
0.106,-0.69,-0.536,4.52,-45.23,73.06,1785096992453.43
0.126,-0.726,-0.547,21.24,-35.37,39.77,1785096992453.695
0.109,-0.698,-0.601,43.12,-25.88,11.35,1785096992453.954
0.058,-0.63,-0.687,70.16,-17.91,-13.61,1785096992454.205
-0.01,-0.574,-0.785,97.45,-11.05,-38.54,1785096992454.46
-0.092,-0.538,-0.852,114.87,-5.77,-64.58,1785096992454.719
-0.158,-0.518,-0.884,119.48,-0.27,-85.73,1785096992454.957
-0.204,-0.554,-0.909,115.54,5.65,-99.73,1785096992455.1968
-0.243,-0.588,-0.891,101.9,11.47,-108.34,1785096992455.447
-0.255,-0.606,-0.848,85.24,16.3,-112.13,1785096992455.728
-0.242,-0.619,-0.812,69.64,19.01,-114.44,1785096992455.971
-0.217,-0.612,-0.795,56.03,19.56,-116.4,1785096992456.2349
-0.162,-0.597,-0.796,47.91,20.17,-115.39,1785096992456.491
-0.112,-0.588,-0.789,44.86,21.0,-111.45,1785096992456.7512
-0.076,-0.571,-0.779,45.2,20.02,-104.4,1785096992456.9941
-0.014,-0.558,-0.754,51.21,18.56,-93.78,1785096992457.263
0.059,-0.544,-0.7,62.01,16.63,-81.82,1785096992457.548
0.121,-0.527,-0.647,75.47,13.92,-69.89,1785096992457.797
0.186,-0.531,-0.621,90.12,9.74,-58.14,1785096992458.039
0.257,-0.524,-0.594,99.98,5.01,-46.82,1785096992458.309
0.293,-0.501,-0.583,105.87,1.16,-35.16,1785096992458.548
0.298,-0.53,-0.62,112.16,-0.03,-24.17,1785096992458.8
0.276,-0.586,-0.64,112.95,0.98,-15.69,1785096992459.062
0.283,-0.595,-0.632,105.56,1.53,-7.54,1785096992459.3223
0.331,-0.585,-0.586,96.9,1.5,3.11,1785096992459.562
0.41,-0.599,-0.548,90.4,-0.76,16.02,1785096992459.8132
0.491,-0.595,-0.53,83.41,-4.3,29.36,1785096992460.062
0.531,-0.598,-0.511,77.58,-7.51,43.55,1785096992460.2812
0.509,-0.654,-0.516,73.46,-10.56,55.79,1785096992460.5078
0.438,-0.717,-0.531,65.98,-13.4,64.85,1785096992460.732
0.387,-0.747,-0.539,54.75,-15.32,73.67,1785096992460.9612
0.396,-0.762,-0.538,48.62,-15.99,84.29,1785096992461.18
0.42,-0.801,-0.517,52.37,-15.66,94.52,1785096992461.406
0.454,-0.855,-0.517,61.86,-15.41,101.99,1785096992461.637
0.499,-0.867,-0.525,72.08,-16.75,109.59,1785096992461.866
0.521,-0.844,-0.531,79.53,-18.95,119.69,1785096992462.1199
0.486,-0.823,-0.541,81.36,-22.55,129.37,1785096992462.351
0.431,-0.834,-0.54,78.8,-26.7,134.62,1785096992462.613
0.383,-0.901,-0.528,75.08,-30.18,133.79,1785096992462.84
0.354,-1.005,-0.512,72.15,-31.56,129.46,1785096992463.0752
0.362,-1.142,-0.492,74.59,-29.33,122.71,1785096992463.304
0.392,-1.263,-0.511,84.41,-26.22,114.63,1785096992463.5352
0.426,-1.288,-0.549,94.97,-22.98,110.48,1785096992463.757
0.446,-1.219,-0.568,100.34,-21.15,112.74,1785096992463.9858
0.421,-1.126,-0.587,97.38,-22.68,115.88,1785096992464.2173
0.374,-1.061,-0.623,83.07,-26.64,115.39,1785096992464.4438
0.338,-1.018,-0.653,60.37,-30.06,112.58,1785096992464.669
0.321,-1.002,-0.636,38.97,-31.77,108.95,1785096992464.894
0.304,-1.042,-0.613,27.38,-33.75,103.06,1785096992465.12
0.269,-1.09,-0.589,22.68,-36.65,96.84,1785096992465.342
0.236,-1.129,-0.586,23.19,-39.52,93.63,1785096992465.568
0.21,-1.167,-0.613,27.71,-41.75,92.47,1785096992465.797
0.181,-1.197,-0.626,33.91,-43.15,92.14,1785096992466.009
0.145,-1.207,-0.627,39.74,-44.34,91.92,1785096992466.219
0.128,-1.181,-0.619,45.23,-43.67,91.98,1785096992466.434
0.125,-1.161,-0.606,53.77,-40.8,90.24,1785096992466.6519
0.113,-1.176,-0.591,62.72,-37.84,85.36,1785096992466.868
0.095,-1.189,-0.567,67.9,-35.25,79.07,1785096992467.0752
0.079,-1.185,-0.531,70.89,-33.54,74.34,1785096992467.308
0.081,-1.158,-0.51,75.05,-31.89,73.34,1785096992467.5378
0.093,-1.117,-0.513,80.39,-28.84,74.95,1785096992467.7441
0.095,-1.048,-0.505,81.15,-25.73,76.54,1785096992467.958
0.089,-0.968,-0.466,77.24,-24.2,75.62,1785096992468.169
0.034,-0.915,-0.448,70.31,-25.97,74.4,1785096992468.3809
0.084,-0.932,-0.44,59.51,-29.42,81.21,1785096992468.5828
0.082,-0.867,-0.409,49.07,-27.95,73.73,1785096992468.792
0.051,-0.787,-0.381,43.55,-23.96,66.32,1785096992469.014
0.064,-0.756,-0.359,42.73,-20.75,66.26,1785096992469.233
0.041,-0.778,-0.352,47.15,-19.47,66.62,1785096992469.439
0.017,-0.827,-0.337,54.99,-17.7,70.65,1785096992469.6628
-0.011,-0.841,-0.316,65.16,-15.2,75.35,1785096992469.876
-0.059,-0.827,-0.303,76.27,-12.73,82.98,1785096992470.097
-0.079,-0.823,-0.287,85.21,-10.28,94.27,1785096992470.3118
-0.097,-0.845,-0.279,89.54,-9.74,103.0,1785096992470.54
-0.13,-0.878,-0.264,87.89,-9.67,107.76,1785096992470.763
-0.167,-0.933,-0.238,84.26,-9.43,109.35,1785096992470.973
-0.236,-0.992,-0.232,79.59,-8.18,105.96,1785096992471.1812
-0.309,-0.953,-0.21,57.34,-3.75,108.98,1785096992471.616
-0.347,-0.875,-0.168,49.44,-2.9,112.61,1785096992471.8232
-0.77,-0.644,-0.539,-32.84,20.14,9.49,1785096992472.251
-0.813,-0.749,-0.482,-33.42,20.6,8.91,1785096992472.458
-0.823,-0.804,-0.443,-25.85,21.91,11.14,1785096992472.665
-0.836,-0.795,-0.401,-15.63,22.86,10.93,1785096992478.983
-0.858,-0.786,-0.361,-4.12,24.54,9.8,1785096992489.4011
-0.903,-0.803,-0.325,7.29,25.45,6.23,1785096992502.6162
-0.936,-0.813,-0.308,14.71,24.63,0.85,1785096992508.316
-0.941,-0.821,-0.324,17.88,22.16,-4.33,1785096992518.76
-0.947,-0.799,-0.344,16.51,22.55,-11.14,1785096992529.4148
-0.962,-0.766,-0.35,17.43,24.26,-16.79,1785096992542.634
-0.951,-0.756,-0.35,26.73,26.49,-21.24,1785096992548.3652
-0.974,-0.71,-0.371,37.42,27.44,-28.26,1785096992559.1638
-0.97,-0.662,-0.388,44.22,28.38,-31.74,1785096992572.3909
-0.937,-0.634,-0.397,45.56,28.38,-34.61,1785096992578.032
-0.913,-0.614,-0.405,40.19,26.64,-39.61,1785096992588.85
-0.895,-0.635,-0.411,31.56,24.38,-44.28,1785096992599.488
-0.889,-0.663,-0.383,21.52,21.64,-46.91,1785096992612.8562
-0.881,-0.665,-0.342,14.53,17.73,-45.93,1785096992618.536
-0.868,-0.648,-0.334,13.03,14.04,-42.57,1785096992629.335
-0.852,-0.613,-0.344,13.06,10.68,-38.88,1785096992642.519
-0.834,-0.575,-0.364,10.96,7.63,-36.44,1785096992648.621
-0.802,-0.582,-0.385,6.93,4.94,-36.81,1785096992658.789
-0.787,-0.591,-0.378,-2.96,0.4,-38.3,1785096992669.349
-0.775,-0.598,-0.365,-16.79,-4.49,-36.93,1785096992679.996
-0.752,-0.643,-0.358,-28.35,-8.18,-34.27,1785096992693.137
-0.73,-0.695,-0.366,-38.12,-12.21,-33.75,1785096992699.073
-0.71,-0.712,-0.385,-47.49,-16.05,-32.96,1785096992709.48
-0.689,-0.705,-0.409,-54.57,-18.49,-30.67,1785096992722.718
-0.667,-0.69,-0.442,-57.95,-19.9,-28.81,1785096992728.8057
-0.649,-0.67,-0.485,-59.54,-20.54,-28.11,1785096992739.1719
-0.634,-0.66,-0.534,-60.18,-19.71,-27.86,1785096992749.861
-0.626,-0.666,-0.579,-60.73,-17.49,-27.71,1785096992763.136
-0.631,-0.671,-0.592,-62.75,-15.02,-27.16,1785096992769.012
-0.628,-0.676,-0.597,-64.18,-13.15,-26.06,1785096992779.5798
-0.621,-0.682,-0.618,-64.58,-10.56,-24.51,1785096992792.79
-0.603,-0.675,-0.634,-64.39,-6.01,-21.94,1785096992798.799
-0.58,-0.662,-0.653,-63.63,-0.92,-19.17,1785096992809.0552
-0.562,-0.643,-0.674,-63.39,4.64,-17.21,1785096992819.603
-0.54,-0.635,-0.679,-63.88,10.04,-16.17,1785096992832.9148
-0.516,-0.638,-0.688,-64.85,14.59,-16.57,1785096992838.783
-0.492,-0.642,-0.688,-65.03,19.2,-16.79,1785096992849.366
-0.459,-0.655,-0.706,-60.98,24.11,-15.53,1785096992859.998
-0.425,-0.654,-0.735,-54.14,29.97,-14.13,1785096992873.1848
-0.406,-0.605,-0.751,-47.91,35.58,-11.87,1785096992879.544
-0.38,-0.511,-0.763,-42.85,40.44,-7.54,1785096992889.5713
-0.341,-0.43,-0.767,-39.16,45.69,-2.11,1785096992902.793
-0.296,-0.379,-0.756,-38.24,50.42,2.56,1785096992908.709
-0.261,-0.398,-0.742,-34.76,55.27,6.5,1785096992919.044
-0.259,-0.462,-0.762,-31.4,58.26,5.71,1785096992929.666
-0.28,-0.491,-0.767,-34.55,59.72,1.92,1785096992942.944
-0.289,-0.524,-0.752,-34.39,60.88,2.72,1785096992948.854
-0.275,-0.551,-0.776,-29.91,60.88,5.89,1785096992959.064
-0.249,-0.505,-0.803,-26.12,60.76,10.77,1785096992969.691
-0.21,-0.454,-0.854,-20.57,61.07,17.73,1785096992982.976
-0.188,-0.453,-0.907,-16.45,62.2,22.22,1785096992988.878
-0.196,-0.472,-0.939,-19.65,62.78,21.61,1785096992999.444
-0.213,-0.499,-0.961,-28.38,62.44,18.22,1785096993012.743
-0.225,-0.534,-0.944,-37.93,61.71,15.63,1785096993018.619
-0.22,-0.553,-0.915,-44.89,58.75,14.74,1785096993029.053
-0.195,-0.539,-0.93,-45.53,58.96,11.9,1785096993039.762
-0.197,-0.509,-0.919,-37.51,68.76,5.43,1785096993052.9668
-0.188,-0.566,-1.006,-22.46,64.0,11.17,1785096993058.8547
-0.124,-0.556,-1.063,-12.63,55.85,10.25,1785096993069.3572
-0.15,-0.466,-1.095,-6.44,59.14,0.0,1785096993079.885
-0.139,-0.476,-1.121,-1.77,65.83,-2.04,1785096993093.0737
-0.131,-0.49,-1.1,-3.72,71.93,-6.78,1785096993098.908
-0.17,-0.472,-1.067,-10.44,77.39,-10.25,1785096993109.19
-0.149,-0.488,-1.079,-18.92,74.07,-3.63,1785096993119.762
-0.113,-0.468,-1.08,-26.89,69.89,-2.32,1785096993133.0317
-0.094,-0.439,-1.059,-26.73,74.56,-6.23,1785096993138.8691
-0.077,-0.443,-1.059,-17.43,80.66,-8.03,1785096993149.184
-0.029,-0.443,-1.05,-3.2,86.06,-8.94,1785096993159.599
-0.001,-0.433,-1.038,14.53,93.39,-10.13,1785096993172.9028
0.031,-0.428,-1.035,31.16,99.43,-9.61,1785096993178.793
0.082,-0.425,-1.04,43.18,102.97,-8.18,1785096993189.258
0.117,-0.453,-1.073,49.62,107.0,-9.31,1785096993199.889
0.132,-0.46,-1.083,45.78,112.25,-13.4,1785096993213.2217
0.147,-0.448,-1.093,35.37,116.18,-18.28,1785096993219.1338
0.122,-0.46,-1.098,23.26,116.55,-21.36,1785096993229.9832
0.104,-0.506,-1.138,13.4,114.9,-23.53,1785096993243.1162
0.087,-0.576,-1.165,6.44,117.56,-29.33,1785096993249.065
0.026,-0.639,-1.183,0.37,121.95,-37.29,1785096993259.6428
0.006,-0.662,-1.144,-5.49,125.55,-37.72,1785096993272.8838
0.058,-0.643,-1.077,-7.48,126.16,-35.62,1785096993278.819
0.087,-0.673,-1.074,-0.79,126.59,-38.42,1785096993289.354
0.078,-0.709,-1.055,8.97,131.53,-46.24,1785096993302.5898
0.07,-0.712,-1.028,17.79,136.2,-54.02,1785096993308.534
0.102,-0.689,-1.026,26.89,142.86,-62.14,1785096993319.242
0.147,-0.658,-1.021,35.19,151.62,-69.31,1785096993329.967
0.2,-0.664,-1.036,40.59,158.85,-74.07,1785096993343.2598
0.247,-0.653,-1.049,43.15,165.23,-82.03,1785096993349.163
0.313,-0.625,-0.978,43.28,172.34,-89.82,1785096993359.924
0.323,-0.563,-0.818,45.2,176.4,-95.31,1785096993373.165
0.429,-0.512,-0.715,52.64,178.93,-97.08,1785096993379.107
0.519,-0.47,-0.618,61.71,178.38,-103.95,1785096993392.421
0.561,-0.473,-0.538,70.65,173.99,-113.01,1785096993398.3948
0.61,-0.436,-0.469,76.11,167.09,-120.55,1785096993409.422
0.679,-0.38,-0.455,80.69,159.0,-127.96,1785096993422.704
0.724,-0.35,-0.413,84.41,153.29,-139.81,1785096993428.648
0.764,-0.36,-0.365,84.23,147.34,-152.35,1785096993439.6292
0.774,-0.337,-0.301,80.05,140.51,-161.5,1785096993452.9622
0.821,-0.309,-0.282,80.51,133.0,-168.43,1785096993458.8599
0.826,-0.247,-0.282,81.64,124.09,-177.07,1785096993469.677
0.829,-0.211,-0.252,79.47,117.16,-181.13,1785096993482.989
0.863,-0.187,-0.246,77.91,111.45,-183.87,1785096993489.124
0.884,-0.148,-0.236,73.85,106.11,-190.04,1785096993502.577
0.884,-0.148,-0.236,65.92,100.71,-197.88,1785096993508.509
0.923,-0.122,-0.223,54.81,95.55,-205.3,1785096993519.451
0.977,-0.1,-0.205,43.64,90.73,-210.06,1785096993532.704
1.024,-0.082,-0.192,33.85,86.98,-215.22,1785096993538.626
1.095,-0.031,-0.207,24.69,83.71,-214.85,1785096993549.377
1.174,0.063,-0.206,24.69,83.71,-214.85,1785096993563.906
1.227,0.049,-0.175,11.47,80.54,-205.48,1785096993568.621
1.248,0.041,-0.136,-1.25,77.76,-201.61,1785096993579.4502
1.316,0.099,-0.11,-7.97,74.1,-194.4,1785096993589.933
1.334,0.08,-0.085,-17.0,68.45,-171.88,1785096993603.1868
1.349,0.103,-0.05,-30.12,59.69,-149.94,1785096993609.069
1.334,0.118,-0.034,-36.74,48.22,-126.71,1785096993619.932
1.319,0.103,-0.063,-40.62,35.62,-103.79,1785096993633.171
1.309,0.086,-0.091,-44.31,23.26,-83.01,1785096993639.057
1.317,0.07,-0.13,-47.15,11.41,-63.91,1785096993649.667
1.288,0.058,-0.151,-48.52,1.68,-45.38,1785096993662.998
1.222,0.054,-0.177,-48.95,-8.24,-26.67,1785096993668.8071
1.148,0.068,-0.196,-52.0,-18.43,-8.76,1785096993679.169
1.094,0.078,-0.202,-55.06,-28.29,10.47,1785096993689.7258
1.083,0.092,-0.231,-55.02,-38.61,29.21,1785096993703.01
1.039,0.123,-0.251,-56.22,-52.1,47.61,1785096993708.943
0.984,0.113,-0.262,-57.41,-66.53,67.51,1785096993719.442
0.88,0.056,-0.29,-54.08,-80.23,87.44,1785096993732.7092
0.729,0.042,-0.322,-55.18,-95.1,106.88,1785096993738.652
0.605,0.077,-0.326,-62.44,-110.97,126.56,1785096993749.4558
0.458,0.044,-0.335,-62.14,-126.59,142.55,1785096993762.744
0.274,-0.031,-0.349,-57.47,-140.6,151.13,1785096993768.616
0.123,-0.068,-0.387,-54.41,-154.15,156.77,1785096993779.711
-0.006,-0.144,-0.397,-47.33,-169.32,164.98,1785096993792.902
-0.21,-0.274,-0.475,-40.62,-190.53,170.6,1785096993799.0022
-0.389,-0.275,-0.517,-45.26,-211.52,173.41,1785096993809.932
-0.5,-0.218,-0.471,-51.39,-235.85,182.38,1785096993823.141
-0.702,-0.279,-0.593,-41.05,-259.19,190.04,1785096993829.221
-0.94,-0.417,-0.803,-24.26,-265.69,189.61,1785096993842.58
-1.161,-0.568,-1.05,-11.84,-259.71,188.12,1785096993848.573
-1.285,-0.66,-1.355,-7.08,-239.97,191.66,1785096993859.395
-1.236,-0.686,-1.589,-8.48,-200.05,193.18,1785096993872.6667
-1.075,-0.693,-1.755,-14.68,-154.97,180.18,1785096993878.826
-0.845,-0.748,-1.799,-25.09,-110.51,155.03,1785096993889.593
-0.554,-0.815,-1.618,-40.41,-71.47,129.0,1785096993902.824
-0.264,-0.862,-1.344,-60.03,-43.92,104.37,1785096993908.769
-0.031,-0.83,-1.114,-84.48,-25.85,76.57,1785096993919.459
0.163,-0.716,-0.969,-105.29,-10.99,42.33,1785096993932.7039
0.239,-0.516,-0.867,-113.5,3.36,0.37,1785096993938.647
0.169,-0.295,-0.809,-100.53,23.32,-42.27,1785096993949.292
0.051,-0.279,-0.841,-61.65,50.94,-83.5,1785096993959.841
-0.111,-0.379,-0.877,-19.5,78.83,-126.07,1785096993973.16
-0.313,-0.474,-0.849,11.38,100.1,-156.01,1785096993979.239
-0.468,-0.561,-0.88,35.77,115.51,-172.25,1785096993992.456
-0.519,-0.571,-0.905,49.47,129.28,-181.19,1785096993998.4573
-0.441,-0.542,-1.008,49.04,142.03,-186.96,1785096994009.423
-0.437,-0.426,-1.029,26.55,154.76,-193.46,1785096994022.731
-0.476,-0.338,-1.004,-6.01,163.55,-193.79,1785096994028.8918
-0.47,-0.325,-0.942,-35.28,170.78,-192.36,1785096994039.563
-0.427,-0.402,-0.933,-47.64,176.27,-192.39,1785096994052.823
-0.296,-0.505,-0.964,-43.43,182.44,-195.65,1785096994058.769
-0.162,-0.44,-0.95,-37.66,184.51,-198.86,1785096994069.844
-0.098,-0.322,-0.888,-29.3,184.42,-192.69,1785096994083.1301
0.044,-0.338,-0.892,-11.75,183.75,-184.7,1785096994089.015
0.095,-0.319,-0.838,5.68,181.95,-183.72,1785096994099.927
0.147,-0.294,-0.781,24.38,178.81,-177.53,1785096994113.303
0.229,-0.244,-0.756,44.43,177.74,-175.02,1785096994119.24
0.347,-0.142,-0.698,55.6,175.3,-171.21,1785096994132.649
0.567,-0.048,-0.654,59.79,171.64,-164.04,1785096994138.578
0.782,0.061,-0.549,59.85,168.37,-158.42,1785096994149.614
0.882,0.127,-0.454,55.06,160.74,-148.9,1785096994162.908
0.929,0.181,-0.37,45.99,153.17,-141.21,1785096994168.8352
0.935,0.186,-0.288,35.89,145.6,-132.42,1785096994179.859
0.951,0.2,-0.234,26.28,144.63,-126.26,1785096994193.1501
1.019,0.271,-0.188,18.19,145.09,-123.54,1785096994199.019
1.12,0.297,-0.117,10.83,144.9,-118.32,1785096994210.019
1.18,0.365,-0.017,9.16,146.4,-117.07,1785096994223.264
1.225,0.399,0.035,18.65,144.84,-108.55,1785096994229.295
1.258,0.436,0.082,28.72,141.15,-102.54,1785096994242.614
1.275,0.553,0.134,41.44,135.99,-101.47,1785096994248.59
1.283,0.593,0.175,54.11,128.57,-91.01,1785096994259.512
1.305,0.695,0.211,67.57,122.53,-84.63,1785096994272.738
1.323,0.82,0.257,85.42,115.21,-77.58,1785096994278.647
1.34,1.048,0.366,103.4,105.87,-73.82,1785096994289.5789
1.362,1.386,0.54,123.26,91.31,-60.73,1785096994302.783
1.335,1.784,0.743,148.5,69.7,-35.86,1785096994308.759
1.331,2.044,0.767,198.37,44.5,-9.4,1785096994319.4028
1.306,1.828,0.62,250.28,23.93,11.78,1785096994332.6873
1.272,1.402,0.414,267.22,10.44,14.98,1785096994338.563
1.266,0.963,0.247,235.18,3.48,15.69,1785096994349.3271
1.295,0.673,0.15,166.39,-2.93,14.07,1785096994359.947
1.388,0.596,0.072,91.46,-11.32,13.03,1785096994373.1611
1.442,0.536,0.007,19.65,-18.28,23.26,1785096994379.071
1.52,0.574,-0.037,-42.36,-23.99,32.11,1785096994389.6
1.584,0.625,-0.053,-82.58,-25.82,39.12,1785096994402.833
1.605,0.661,-0.038,-101.17,-23.59,42.6,1785096994408.8088
1.614,0.674,-0.027,-101.44,-18.4,44.31,1785096994419.31
1.613,0.668,-0.005,-89.54,-11.44,45.38,1785096994432.7869
1.557,0.596,0.025,-73.46,-5.34,47.85,1785096994438.7268
1.476,0.514,0.041,-60.15,-3.2,51.21,1785096994449.076
1.416,0.459,0.022,-52.64,-4.12,54.93,1785096994459.5498
1.383,0.394,-0.002,-51.06,-7.51,58.69,1785096994472.862
1.322,0.331,-0.017,-56.52,-13.58,63.94,1785096994478.77
1.285,0.28,-0.044,-63.57,-20.6,72.05,1785096994489.2327
1.291,0.259,-0.057,-67.29,-27.86,82.28,1785096994499.9192
1.251,0.236,-0.061,-71.38,-37.29,94.61,1785096994513.1787
1.185,0.225,-0.074,-77.0,-48.34,106.39,1785096994519.03
1.113,0.216,-0.082,-81.61,-60.85,115.91,1785096994529.8381
1.041,0.204,-0.086,-86.76,-75.66,123.23,1785096994543.004
0.935,0.199,-0.086,-94.42,-92.47,129.37,1785096994549.0151
0.841,0.186,-0.108,-99.89,-108.86,135.11,1785096994559.879
0.759,0.206,-0.131,-97.81,-123.91,139.99,1785096994573.052
0.634,0.217,-0.165,-88.47,-140.9,148.17,1785096994579.299
0.493,0.2,-0.201,-75.84,-158.97,157.9,1785096994590.037
0.374,0.183,-0.217,-64.49,-178.01,167.52,1785096994603.351
0.191,0.148,-0.208,-58.32,-199.41,175.57,1785096994609.234
-0.004,0.121,-0.224,-59.08,-223.06,184.0,1785096994622.73
-0.119,0.089,-0.187,-63.14,-247.9,192.48,1785096994628.696
-0.385,0.054,-0.211,-62.53,-280.53,195.9,1785096994639.724
-0.679,-0.016,-0.394,-63.02,-311.62,196.45,1785096994652.922
-0.938,-0.052,-0.677,-66.84,-326.85,187.44,1785096994658.8582
-1.16,-0.124,-0.994,-75.2,-328.23,181.74,1785096994669.9011
-1.303,-0.218,-1.365,-91.25,-320.84,182.01,1785096994683.198
-1.375,-0.229,-1.716,-111.0,-295.05,182.74,1785096994689.131
-1.263,-0.313,-2.079,-118.81,-252.51,179.11,1785096994702.655
-0.999,-0.469,-2.363,-114.41,-197.21,157.35,1785096994708.5938
-0.563,-0.547,-2.305,-113.19,-136.91,134.77,1785096994719.872
-0.109,-0.556,-1.822,-113.44,-83.71,119.79,1785096994733.1797
0.219,-0.606,-1.194,-103.82,-48.43,99.83,1785096994739.0908
0.426,-0.687,-0.772,-85.76,-32.62,70.86,1785096994749.832
0.509,-0.635,-0.689,-75.53,-25.3,37.84,1785096994763.19
0.471,-0.365,-0.754,-74.31,-10.13,8.09,1785096994769.0088
0.299,-0.089,-0.809,-56.67,11.14,-24.29,1785096994779.5042
0.299,-0.089,-0.809,-18.49,31.01,-60.0,1785096994792.654
0.099,0.037,-0.924,19.99,55.18,-94.24,1785096994798.769
0.028,-0.001,-1.028,41.51,76.69,-122.04,1785096994809.23
-0.029,-0.076,-1.067,56.37,93.78,-134.56,1785096994819.978
-0.088,-0.199,-1.038,72.15,103.58,-138.25,1785096994833.301
-0.148,-0.37,-1.057,72.15,103.58,-138.25,1785096994839.1921
-0.238,-0.42,-1.059,78.49,110.6,-140.63,1785096994852.751
-0.296,-0.391,-1.074,79.56,116.4,-137.7,1785096994858.634
-0.239,-0.369,-1.097,75.78,123.97,-135.75,1785096994869.687
-0.168,-0.354,-1.095,59.88,131.26,-141.0,1785096994882.9297
-0.121,-0.365,-1.087,36.84,137.79,-148.44,1785096994889.008
-0.124,-0.392,-1.018,17.18,139.74,-150.58,1785096994899.882
-0.084,-0.452,-0.991,9.16,141.85,-151.83,1785096994913.156
-0.081,-0.448,-0.907,7.57,145.63,-154.39,1785096994919.071
-0.018,-0.453,-0.881,16.54,150.79,-153.42,1785096994930.013
0.069,-0.409,-0.847,28.26,157.87,-155.28,1785096994943.168
0.127,-0.297,-0.75,34.82,163.03,-154.82,1785096994949.176
0.303,-0.25,-0.665,43.73,169.44,-149.21,1785096994962.667
0.532,-0.185,-0.564,50.51,157.72,-142.8,1785096994968.5671
0.491,-0.05,-0.557,56.25,101.6,-140.42,1785096994979.589
0.439,0.024,-0.615,67.51,66.01,-146.49,1785096994992.8333
0.574,0.023,-0.566,72.48,88.84,-148.63,1785096994998.8657
0.676,0.068,-0.579,68.97,111.39,-140.81,1785096995009.638
0.774,0.146,-0.544,73.0,121.28,-132.97,1785096995022.8428
0.922,0.162,-0.501,87.8,123.39,-124.85,1785096995029.018
0.977,0.206,-0.478,96.16,116.86,-114.26,1785096995039.789
1.016,0.23,-0.43,95.1,111.06,-101.72,1785096995053.049
1.107,0.297,-0.354,91.4,111.42,-90.7,1785096995058.969
1.185,0.278,-0.323,86.58,111.24,-78.98,1785096995069.843
1.275,0.382,-0.288,79.71,113.62,-81.12,1785096995083.1758
1.313,0.407,-0.21,73.15,114.17,-70.28,1785096995089.06
1.368,0.387,-0.138,59.18,114.11,-55.64,1785096995099.837
1.45,0.429,-0.103,45.84,112.58,-49.93,1785096995113.172
1.507,0.517,-0.033,31.1,107.79,-51.15,1785096995119.0432
1.529,0.532,0.011,15.63,100.62,-45.78,1785096995129.9011
1.538,0.557,0.053,1.25,95.95,-42.48,1785096995142.982
1.544,0.632,0.068,-5.4,91.86,-43.24,1785096995148.954
1.538,0.7,0.082,-8.21,89.79,-42.48,1785096995159.452
1.512,0.772,0.092,-7.35,87.56,-41.9,1785096995169.8
1.493,0.835,0.124,-1.59,82.09,-39.74,1785096995182.986
1.472,0.895,0.139,11.35,74.77,-36.53,1785096995188.951
1.461,0.93,0.158,23.87,67.35,-32.2,1785096995199.679
1.45,0.938,0.181,31.16,59.42,-27.31,1785096995212.68
1.436,0.936,0.19,32.96,49.41,-23.53,1785096995218.5989
1.394,0.899,0.191,28.29,40.53,-21.55,1785096995229.086
1.35,0.839,0.175,17.94,33.63,-19.26,1785096995239.739
1.292,0.786,0.151,4.46,26.64,-15.02,1785096995252.9988
1.237,0.732,0.132,-10.44,17.73,-7.05,1785096995258.879
1.207,0.698,0.12,-22.58,9.28,3.14,1785096995269.0781
1.193,0.699,0.092,-31.68,1.22,14.44,1785096995279.644
1.187,0.693,0.083,-38.09,-5.95,25.06,1785096995292.9048
1.178,0.661,0.068,-40.53,-13.37,34.58,1785096995298.787
1.169,0.619,0.062,-42.33,-20.78,44.83,1785096995309.3162
1.158,0.581,0.066,-43.95,-28.32,55.64,1785096995319.9517
1.134,0.536,0.047,-45.08,-35.22,65.68,1785096995333.131
1.098,0.491,0.026,-47.27,-43.15,75.17,1785096995339.04
1.087,0.451,0.003,-51.45,-52.13,83.9,1785096995349.6
1.074,0.413,-0.025,-57.13,-61.22,91.1,1785096995362.8699
1.041,0.377,-0.043,-63.66,-70.5,98.91,1785096995368.809
1.013,0.351,-0.062,-69.4,-79.26,107.36,1785096995379.409
0.986,0.34,-0.09,-73.43,-87.41,114.72,1785096995392.649
0.942,0.325,-0.133,-75.87,-94.91,118.5,1785096995398.6099
0.905,0.28,-0.152,-77.79,-102.45,122.32,1785096995409.491
0.859,0.233,-0.163,-79.29,-113.56,129.03,1785096995422.7651
0.784,0.205,-0.162,-80.54,-127.02,134.8,1785096995428.671
0.701,0.165,-0.161,-80.66,-143.5,139.35,1785096995439.71
0.638,0.108,-0.177,-77.76,-160.92,141.51,1785096995452.906
0.561,0.036,-0.212,-73.06,-179.14,140.54,1785096995458.873
0.413,-0.036,-0.287,-73.7,-199.99,136.11,1785096995469.7202
0.287,-0.112,-0.367,-79.04,-219.64,128.61,1785096995483.052
0.172,-0.185,-0.374,-76.27,-241.77,115.48,1785096995489.315
-0.05,-0.205,-0.436,-58.05,-272.23,98.18,1785096995502.6062
-0.217,-0.171,-0.543,-32.69,-299.63,83.56,1785096995508.5493
-0.337,-0.081,-0.685,-15.72,-319.01,75.66,1785096995519.3347
-0.47,0.024,-0.924,-16.27,-332.01,79.47,1785096995530.1199
-0.502,0.056,-1.214,-29.08,-326.61,96.38,1785096995543.308
-0.461,-0.147,-1.409,-52.74,-302.96,104.53,1785096995549.3162
-0.648,-0.456,-1.644,-96.44,-279.4,92.59,1785096995562.649
-0.829,-0.694,-1.822,-149.57,-251.99,82.86,1785096995568.585
-0.844,-0.792,-1.908,-181.46,-227.27,82.55,1785096995579.561
-0.656,-0.75,-1.956,-182.96,-203.83,93.23,1785096995592.793
-0.353,-0.552,-1.889,-167.24,-173.28,107.3,1785096995598.7917
-0.079,-0.319,-1.646,-142.12,-136.81,111.82,1785096995609.9573
0.058,-0.165,-1.283,-115.73,-103.55,102.76,1785096995623.174
0.118,-0.054,-0.948,-97.11,-77.79,85.51,1785096995629.239
0.174,0.032,-0.712,-83.38,-56.12,65.95,1785096995639.83
0.229,0.036,-0.666,-63.84,-33.57,42.54,1785096995653.082
0.23,-0.046,-0.718,-36.71,-7.42,11.6,1785096995658.999
0.153,-0.128,-0.782,-4.64,15.93,-24.38,1785096995669.399
0.046,-0.15,-0.858,30.3,34.18,-56.37,1785096995680.042
-0.028,-0.151,-1.024,66.07,50.72,-79.07,1785096995693.302
-0.075,-0.133,-1.169,94.73,67.14,-93.91,1785096995699.272
-0.11,-0.134,-1.282,114.51,82.77,-104.34,1785096995710.027
-0.154,-0.157,-1.364,121.37,98.97,-113.93,1785096995723.166
-0.18,-0.191,-1.397,113.07,111.58,-122.17,1785096995729.386
-0.177,-0.198,-1.382,94.55,119.63,-128.03,1785096995742.681
-0.132,-0.231,-1.347,73.55,125.61,-131.75,1785096995748.6821
-0.094,-0.299,-1.335,52.86,130.53,-135.5,1785096995759.662
-0.065,-0.335,-1.26,33.75,137.36,-135.62,1785096995772.9048
-0.056,-0.336,-1.163,23.29,143.41,-133.85,1785096995779.0479
-0.028,-0.304,-1.086,24.41,149.48,-132.82,1785096995789.85
0.025,-0.224,-0.993,34.58,155.4,-131.78,1785096995803.8088
0.089,-0.165,-0.921,48.4,157.78,-125.83,1785096995808.828
0.207,-0.151,-0.832,60.34,154.15,-118.5,1785096995822.5752
0.306,-0.131,-0.782,69.61,136.17,-116.58,1785096995828.552
0.343,-0.105,-0.803,75.35,113.86,-117.83,1785096995839.5168
0.341,-0.077,-0.798,75.35,106.72,-120.61,1785096995852.766
0.385,-0.074,-0.774,68.18,111.64,-121.68,1785096995858.7498
0.47,-0.088,-0.778,57.89,119.63,-123.26,1785096995869.7668
0.551,-0.056,-0.718,53.19,126.65,-124.21,1785096995883.071
0.661,-0.013,-0.667,61.89,125.74,-119.17,1785096995888.939
0.694,0.032,-0.65,79.1,120.37,-110.48,1785096995900.031
0.706,0.027,-0.666,97.54,118.08,-97.17,1785096995913.2942
0.746,0.084,-0.698,108.77,119.33,-89.88,1785096995919.1538
0.813,0.222,-0.641,113.86,119.14,-83.07,1785096995932.632
0.928,0.308,-0.643,121.46,115.6,-77.79,1785096995938.504
0.971,0.324,-0.631,123.78,112.28,-80.42,1785096995949.56
1.047,0.285,-0.558,119.05,110.42,-84.78,1785096995962.855
1.102,0.282,-0.464,113.35,108.92,-85.48,1785096995968.732
1.113,0.292,-0.406,109.29,108.58,-79.53,1785096995979.809
1.153,0.322,-0.381,102.18,111.82,-75.62,1785096995993.0242
1.195,0.402,-0.371,86.25,113.47,-74.47,1785096995998.962
1.195,0.393,-0.348,56.55,112.61,-75.47,1785096996009.829
1.235,0.481,-0.296,20.6,112.7,-84.72,1785096996022.998
1.247,0.463,-0.25,-10.5,111.18,-79.99,1785096996029.116
1.275,0.474,-0.215,-35.77,110.14,-76.6,1785096996039.7297
1.278,0.544,-0.195,-51.15,108.86,-74.56,1785096996052.99
1.27,0.591,-0.167,-61.4,107.43,-70.44,1785096996058.906
1.257,0.654,-0.125,-69.67,105.47,-66.47,1785096996069.715
1.257,0.654,-0.125,-72.15,102.3,-61.46,1785096996082.9902
1.237,0.712,-0.066,-65.98,98.21,-55.39,1785096996088.8691
1.214,0.772,-0.011,-53.96,93.02,-47.61,1785096996099.5222
1.197,0.847,0.054,-38.94,86.12,-38.18,1785096996112.8518
1.178,0.918,0.124,-38.94,86.12,-38.18,1785096996118.8538
1.195,0.971,0.157,-20.23,80.05,-29.08,1785096996129.3708
1.207,0.985,0.176,-5.74,72.66,-20.45,1785096996139.709
1.194,0.939,0.181,0.49,63.81,-11.6,1785096996153.043
1.179,0.876,0.178,0.61,53.93,-1.59,1785096996158.9958
1.154,0.83,0.179,-3.81,42.76,10.53,1785096996169.131
1.132,0.819,0.181,-10.19,31.77,25.39,1785096996179.759
1.125,0.829,0.17,-15.56,21.27,40.65,1785096996193.0098
1.109,0.828,0.165,-21.88,10.71,55.48,1785096996198.914
1.087,0.831,0.183,-25.27,1.43,69.52,1785096996209.3389
1.076,0.799,0.172,-22.89,-7.45,83.38,1785096996219.913
1.052,0.733,0.155,-20.66,-16.94,95.8,1785096996233.186
1.024,0.669,0.14,-22.92,-27.65,108.68,1785096996239.1292
1.006,0.586,0.099,-27.86,-37.93,120.98,1785096996249.8748
0.986,0.491,0.05,-36.35,-48.37,130.47,1785096996263.129
0.966,0.403,-0.003,-49.32,-59.54,138.22,1785096996269.037
0.935,0.319,-0.041,-64.91,-70.04,145.05,1785096996279.775
0.896,0.247,-0.075,-80.29,-81.03,151.07,1785096996293.021
0.853,0.213,-0.104,-93.69,-92.35,157.05,1785096996298.964
0.815,0.209,-0.114,-103.73,-104.34,165.01,1785096996309.986
0.769,0.222,-0.135,-108.77,-118.26,173.01,1785096996323.155
0.724,0.241,-0.149,-106.05,-132.02,181.46,1785096996329.171
0.603,0.241,-0.143,-95.03,-147.56,190.28,1785096996342.498
0.448,0.227,-0.121,-78.07,-165.87,199.07,1785096996348.557
0.308,0.167,-0.147,-55.64,-186.77,208.66,1785096996359.7078
0.221,0.05,-0.194,-32.5,-205.91,213.97,1785096996372.983
0.034,-0.06,-0.308,-14.95,-225.35,212.9,1785096996379.041
-0.166,-0.162,-0.415,-11.08,-244.42,216.93,1785096996390.0
-0.363,-0.264,-0.575,-21.12,-264.81,224.77,1785096996403.289
-0.56,-0.332,-0.744,-40.89,-282.94,231.3,1785096996409.1677
-0.733,-0.363,-0.975,-61.86,-299.91,235.39,1785096996422.7998
-0.889,-0.336,-1.19,-76.78,-309.85,235.94,1785096996428.601
-0.991,-0.358,-1.475,-80.39,-308.42,236.21,1785096996439.5771
-1.085,-0.465,-1.923,-82.77,-284.98,224.8,1785096996452.8079
-1.118,-0.572,-2.319,-99.61,-241.98,204.02,1785096996458.7751
-0.959,-0.647,-2.482,-123.36,-193.98,182.26,1785096996469.685
-0.607,-0.703,-2.308,-131.26,-144.51,162.57,1785096996483.03
-0.222,-0.767,-1.787,-108.92,-94.21,142.8,1785096996489.182
0.048,-0.845,-1.179,-59.97,-54.32,116.49,1785096996502.6838
0.216,-0.845,-0.8,-5.22,-31.83,88.2,1785096996508.592
0.362,-0.744,-0.769,40.35,-15.14,59.94,1785096996519.082
0.422,-0.622,-0.923,69.95,6.74,18.4,1785096996529.666
0.293,-0.494,-1.074,77.15,28.6,-37.97,1785096996542.8801
0.05,-0.396,-1.193,65.31,46.57,-89.94,1785096996548.8188
-0.104,-0.394,-1.304,49.35,64.24,-124.45,1785096996559.451
-0.153,-0.461,-1.298,39.25,80.75,-145.76,1785096996572.704
-0.165,-0.547,-1.293,34.42,92.23,-160.47,1785096996578.787
-0.177,-0.605,-1.317,27.44,104.43,-168.55,1785096996589.5747
-0.2,-0.604,-1.307,15.23,116.06,-167.55,1785096996602.885
-0.193,-0.571,-1.284,3.85,124.21,-161.63,1785096996608.808
-0.141,-0.543,-1.284,-2.29,129.67,-157.54,1785096996619.633
-0.076,-0.535,-1.266,-5.68,135.59,-156.38,1785096996632.869
-0.032,-0.548,-1.252,-4.46,141.91,-155.03,1785096996638.7861
0.064,-0.572,-1.213,2.01,151.31,-149.85,1785096996649.556
0.113,-0.513,-1.1,9.22,160.83,-142.7,1785096996662.834
0.118,-0.457,-0.999,22.06,166.3,-129.7,1785096996668.795
0.106,-0.42,-0.891,39.58,168.28,-117.59,1785096996679.803
0.109,-0.391,-0.803,57.53,169.01,-110.42,1785096996692.94
0.204,-0.358,-0.746,70.99,169.01,-107.64,1785096996698.972
0.376,-0.329,-0.662,84.05,169.62,-108.07,1785096996709.946
0.548,-0.328,-0.669,95.98,165.93,-110.54,1785096996723.1528
0.64,-0.266,-0.603,91.4,159.52,-113.1,1785096996729.2559
0.611,-0.198,-0.497,79.04,148.14,-115.18,1785096996742.538
0.542,-0.265,-0.525,76.69,143.25,-117.5,1785096996748.55
0.538,-0.234,-0.522,72.73,151.49,-121.34,1785096996759.53
0.693,-0.107,-0.479,64.88,159.67,-121.95,1785096996772.754
0.827,0.02,-0.383,54.51,162.02,-117.71,1785096996779.212
0.924,0.042,-0.311,47.3,159.79,-112.31,1785096996789.7869
1.007,0.089,-0.284,49.1,158.33,-113.32,1785096996803.042
1.017,0.028,-0.245,50.05,157.54,-106.45,1785096996808.9888
1.116,0.156,-0.198,46.11,159.76,-106.94,1785096996819.9958
1.137,0.157,-0.136,47.88,161.11,-92.84,1785096996833.2532
1.146,0.193,-0.063,49.17,161.66,-85.39,1785096996839.166
1.182,0.279,0.034,49.71,160.53,-85.18,1785096996849.95
1.22,0.337,0.087,48.1,157.51,-77.55,1785096996863.268
1.24,0.326,0.163,29.54,153.66,-66.59,1785096996869.356
1.288,0.335,0.302,-2.2,150.24,-67.11,1785096996879.967
1.296,0.344,0.412,-36.99,144.47,-67.17,1785096996893.125
1.315,0.429,0.483,-69.77,140.02,-66.62,1785096996899.085
1.325,0.525,0.518,-95.16,133.85,-66.74,1785096996909.818
1.313,0.594,0.505,-109.35,125.83,-66.77,1785096996923.054
1.281,0.689,0.521,-114.87,121.86,-65.22,1785096996929.223
1.257,0.739,0.564,-110.32,114.9,-54.69,1785096996940.041
1.261,0.824,0.609,-91.19,102.82,-40.62,1785096996953.268
1.267,0.881,0.633,-58.05,91.28,-26.92,1785096996959.229
1.252,0.873,0.647,-23.5,80.11,-13.86,1785096996969.8188
1.238,0.824,0.668,8.73,70.8,-4.15,1785096996983.052
1.226,0.713,0.676,37.08,61.46,3.69,1785096996988.938
1.207,0.585,0.673,55.6,50.51,12.63,1785096996999.3223
1.185,0.488,0.662,62.69,38.45,21.61,1785096997009.886
1.185,0.412,0.632,58.14,25.18,28.72,1785096997023.1372
1.19,0.363,0.602,41.78,10.59,33.2,1785096997029.2869
1.194,0.313,0.568,21.82,-3.6,34.79,1785096997039.4712
1.205,0.272,0.518,3.78,-15.93,35.74,1785096997050.051
1.186,0.245,0.488,-13.34,-27.1,39.83,1785096997063.4128
1.176,0.239,0.441,-27.47,-38.42,46.94,1785096997069.22
1.167,0.251,0.406,-38.73,-48.89,54.75,1785096997079.8499
1.146,0.271,0.388,-46.14,-59.39,61.37,1785096997093.013
1.15,0.284,0.345,-48.98,-68.21,65.86,1785096997098.937
1.173,0.274,0.283,-48.86,-74.1,68.36,1785096997109.511
1.186,0.252,0.236,-52.95,-79.17,72.08,1785096997122.6829
1.182,0.238,0.196,-58.47,-84.84,76.75,1785096997128.664
1.176,0.225,0.155,-59.66,-91.53,82.95,1785096997139.136
1.167,0.22,0.115,-58.9,-99.49,90.98,1785096997149.8408
1.125,0.216,0.091,-59.48,-109.81,100.16,1785096997164.806
1.06,0.221,0.065,-59.97,-122.68,108.92,1785096997169.439
0.982,0.206,0.021,-61.37,-136.14,116.82,1785096997180.1072
0.905,0.229,-0.002,-66.41,-148.63,121.8,1785096997193.3708
0.808,0.217,-0.029,-69.7,-162.3,128.15,1785096997199.2488
0.731,0.211,-0.039,-71.57,-174.75,132.33,1785096997212.779
0.621,0.212,-0.037,-69.12,-189.79,137.49,1785096997218.6948
0.505,0.182,-0.058,-63.05,-207.68,146.43,1785096997229.747
0.443,0.191,-0.065,-53.99,-224.56,152.71,1785096997242.926
0.255,0.169,-0.089,-38.03,-247.81,163.46,1785096997248.8708
0.004,0.067,-0.216,-22.92,-269.05,175.05,1785096997259.942
-0.231,-0.019,-0.313,-19.07,-282.3,182.32,1785096997273.161
-0.469,-0.12,-0.468,-27.62,-297.13,189.49,1785096997279.0642
-0.655,-0.285,-0.771,-46.97,-307.69,192.48,1785096997292.58
-0.785,-0.445,-1.118,-79.04,-308.97,186.83,1785096997298.537
-0.827,-0.543,-1.436,-115.51,-304.79,179.78,1785096997309.6619
-0.829,-0.616,-1.859,-139.01,-288.52,169.04,1785096997322.873
-0.811,-0.732,-2.285,-150.12,-251.26,152.35,1785096997328.958
-0.752,-0.886,-2.461,-152.99,-202.73,128.48,1785096997342.455
-0.583,-0.998,-2.256,-148.05,-151.4,105.66,1785096997348.4248
-0.583,-0.998,-2.256,-132.39,-100.25,89.48,1785096997359.6
-0.25,-1.016,-1.753,-101.2,-60.15,65.28,1785096997372.8662
0.014,-0.935,-1.17,-57.41,-32.78,31.19,1785096997378.815
0.162,-0.806,-0.823,-10.86,-5.37,-7.2,1785096997389.236
0.254,-0.698,-0.744,29.63,22.58,-52.0,1785096997399.8499
0.232,-0.613,-0.814,29.63,22.58,-52.0,1785096997413.0981
