ax,ay,az,gx,gy,gz,timestamp_ms
-0.096,-0.72,-1.114,-76.39,-24.51,44.89,1785096976142.993
-0.073,-0.76,-1.017,-60.98,-7.54,18.1,1785096976164.4841
-0.074,-0.721,-0.949,-46.02,8.09,-6.2,1785096976164.917
-0.055,-0.679,-0.938,-23.07,24.35,-27.83,1785096976165.339
-0.073,-0.679,-0.982,3.75,39.03,-52.49,1785096976165.7632
-0.14,-0.649,-1.021,23.99,55.97,-81.79,1785096976166.2231
-0.238,-0.613,-1.033,39.09,73.15,-111.51,1785096976166.699
-0.306,-0.62,-1.069,46.24,86.73,-140.11,1785096976167.1848
-0.379,-0.628,-1.095,37.9,97.6,-168.03,1785096976167.618
-0.437,-0.608,-1.126,15.9,106.81,-187.69,1785096976168.0798
-0.487,-0.574,-1.116,-10.04,118.41,-196.72,1785096976168.4822
-0.537,-0.545,-1.078,-31.89,131.44,-197.88,1785096976168.848
-0.552,-0.562,-1.084,-42.02,143.93,-198.1,1785096976169.211
-0.537,-0.6,-1.072,-44.25,155.92,-201.45,1785096976169.569
-0.397,-0.584,-0.993,-43.34,164.98,-204.93,1785096976169.9478
-0.175,-0.509,-0.912,-33.94,169.56,-205.76,1785096976170.298
0.033,-0.481,-0.91,-16.79,171.3,-200.57,1785096976170.672
0.168,-0.51,-0.914,-2.14,171.06,-192.75,1785096976171.035
0.202,-0.519,-0.876,4.55,167.94,-184.0,1785096976171.385
0.173,-0.449,-0.781,5.46,164.01,-170.51,1785096976171.733
0.27,-0.335,-0.69,7.05,158.76,-153.14,1785096976172.092
0.492,-0.199,-0.634,9.7,151.01,-140.08,1785096976172.4448
0.682,-0.056,-0.563,8.0,142.52,-130.25,1785096976172.795
0.793,0.046,-0.48,2.93,134.04,-118.14,1785096976173.1511
0.875,0.115,-0.346,-2.26,125.86,-107.15,1785096976173.522
0.972,0.183,-0.24,-4.36,116.43,-98.57,1785096976173.878
1.064,0.215,-0.17,-4.06,106.78,-89.36,1785096976174.2441
1.078,0.224,-0.117,-3.45,96.53,-82.74,1785096976174.6108
1.04,0.287,-0.067,0.58,86.37,-79.99,1785096976174.9548
1.079,0.337,-0.044,8.94,78.04,-76.69,1785096976175.346
1.136,0.396,-0.02,17.43,71.29,-72.63,1785096976175.672
1.153,0.44,0.015,31.1,65.95,-65.77,1785096976175.977
1.201,0.523,0.044,52.16,59.97,-56.37,1785096976176.2869
1.309,0.64,0.041,78.8,54.66,-45.63,1785096976176.6082
1.397,0.719,0.04,102.27,49.13,-34.79,1785096976176.917
1.395,0.774,0.065,117.31,41.9,-24.63,1785096976177.223
1.434,0.781,0.071,127.41,33.57,-15.23,1785096976177.5308
1.472,0.79,0.042,131.9,23.1,-9.8,1785096976177.8271
1.499,0.848,0.025,130.25,11.38,-4.43,1785096976178.1309
1.484,0.835,-0.03,128.12,-0.73,5.65,1785096976178.426
1.496,0.816,-0.076,124.76,-7.45,8.55,1785096976178.7441
1.501,0.787,-0.114,117.77,-11.87,11.29,1785096976179.042
1.505,0.749,-0.146,108.19,-13.73,15.93,1785096976179.348
1.514,0.724,-0.163,98.12,-15.93,18.28,1785096976179.667
1.504,0.672,-0.185,84.6,-18.86,19.2,1785096976179.971
1.465,0.617,-0.167,64.12,-21.18,21.67,1785096976180.265
1.434,0.55,-0.166,47.24,-23.59,25.57,1785096976180.57
1.404,0.492,-0.165,35.4,-25.82,30.85,1785096976180.877
1.348,0.457,-0.144,27.28,-28.78,38.15,1785096976181.178
1.295,0.405,-0.15,24.78,-30.7,46.48,1785096976181.486
1.248,0.328,-0.184,21.91,-29.97,53.32,1785096976181.7998
1.221,0.283,-0.207,11.6,-29.02,61.37,1785096976182.112
1.222,0.263,-0.237,0.76,-29.18,70.96,1785096976182.402
1.244,0.234,-0.262,-8.85,-29.42,78.92,1785096976182.7158
1.246,0.194,-0.282,-23.53,-31.65,84.75,1785096976183.012
1.21,0.17,-0.286,-40.96,-36.29,90.58,1785096976183.299
1.155,0.128,-0.289,-49.62,-42.63,97.81,1785096976183.5698
1.09,0.034,-0.34,-48.74,-46.57,103.76,1785096976183.8347
1.055,-0.029,-0.391,-51.18,-48.62,108.95,1785096976184.1018
1.047,-0.067,-0.422,-55.02,-50.51,114.96,1785096976184.355
1.005,-0.077,-0.418,-56.22,-55.24,120.64,1785096976184.617
0.957,-0.106,-0.444,-52.77,-62.62,126.38,1785096976184.886
0.878,-0.172,-0.5,-45.87,-68.21,130.16,1785096976185.151
0.788,-0.233,-0.536,-42.12,-72.51,133.37,1785096976185.41
0.707,-0.277,-0.537,-38.51,-76.63,138.83,1785096976185.677
0.605,-0.302,-0.528,-33.42,-82.89,145.91,1785096976185.945
0.507,-0.298,-0.497,-32.11,-92.07,156.44,1785096976186.2148
0.426,-0.315,-0.439,-29.08,-102.36,170.11,1785096976186.476
0.278,-0.409,-0.395,-16.36,-115.63,182.01,1785096976186.7522
0.051,-0.507,-0.343,-5.16,-134.77,190.22,1785096976187.035
-0.198,-0.574,-0.314,-3.75,-159.98,200.02,1785096976187.34
-0.449,-0.662,-0.399,-6.62,-186.13,210.76,1785096976187.623
-0.635,-0.767,-0.561,-15.41,-206.43,216.68,1785096976187.9639
-0.72,-0.823,-0.777,-33.11,-219.55,217.38,1785096976188.271
-0.723,-0.791,-0.978,-58.5,-222.91,212.1,1785096976188.537
-0.682,-0.693,-1.154,-85.21,-218.45,203.1,1785096976188.8071
-0.682,-0.693,-1.154,-99.7,-201.48,191.26,1785096976189.0837
-0.62,-0.602,-1.472,-106.02,-163.82,179.02,1785096976189.3618
-0.613,-0.508,-1.774,-119.05,-121.34,169.29,1785096976189.633
-0.626,-0.443,-1.86,-136.57,-83.56,152.99,1785096976189.9067
-0.574,-0.486,-1.733,-136.57,-83.56,152.99,1785096976190.181
-0.459,-0.534,-1.382,-149.27,-53.62,129.37,1785096976190.4631
-0.328,-0.549,-0.921,-146.4,-36.5,113.13,1785096976190.727
-0.188,-0.58,-0.532,-122.47,-29.73,109.38,1785096976191.025
-0.006,-0.692,-0.399,-77.18,-25.91,106.11,1785096976191.297
0.176,-0.805,-0.523,-25.21,-20.72,87.25,1785096976191.542
0.263,-0.758,-0.689,19.5,-10.5,52.8,1785096976191.7761
0.225,-0.631,-0.835,61.56,2.38,12.27,1785096976192.024
0.13,-0.564,-0.964,94.58,15.35,-25.03,1785096976192.2659
0.044,-0.555,-1.118,104.89,29.02,-57.25,1785096976192.52
-0.018,-0.555,-1.233,91.62,48.1,-85.6,1785096976192.755
-0.118,-0.602,-1.245,70.71,71.75,-113.25,1785096976193.0083
-0.3,-0.67,-1.188,51.73,93.33,-142.55,1785096976193.25
-0.545,-0.715,-1.113,37.48,107.15,-170.05,1785096976193.491
-0.735,-0.749,-1.093,24.6,114.99,-191.14,1785096976193.7458
-0.902,-0.684,-1.066,6.81,120.67,-206.18,1785096976193.988
-0.955,-0.613,-1.058,-10.19,128.12,-213.08,1785096976194.2358
-0.919,-0.576,-1.083,-33.14,137.91,-220.31,1785096976194.478
-0.84,-0.527,-1.069,-69.25,149.66,-229.53,1785096976194.725
-0.722,-0.471,-1.003,-111.94,160.41,-239.6,1785096976194.976
-0.585,-0.438,-0.904,-151.89,168.77,-243.78,1785096976195.247
-0.411,-0.457,-0.807,-178.75,175.76,-235.57,1785096976195.487
-0.226,-0.504,-0.742,-188.6,181.28,-217.99,1785096976195.737
-0.03,-0.507,-0.674,-184.67,181.34,-194.13,1785096976195.9932
0.127,-0.413,-0.594,-161.69,175.82,-167.94,1785096976196.247
0.196,-0.301,-0.554,-114.75,168.1,-143.56,1785096976196.4888
0.281,-0.214,-0.57,-58.99,158.42,-124.7,1785096976196.7412
0.446,-0.129,-0.634,-12.57,147.59,-112.74,1785096976196.996
0.634,-0.019,-0.666,17.4,141.51,-102.88,1785096976197.2402
0.751,0.115,-0.611,37.42,138.58,-92.81,1785096976197.4668
0.818,0.195,-0.561,54.96,129.7,-80.11,1785096976197.703
0.907,0.23,-0.528,70.13,118.93,-68.24,1785096976197.9622
1.019,0.262,-0.471,78.77,110.72,-60.58,1785096976198.187
1.07,0.308,-0.379,77.88,101.35,-51.76,1785096976198.4302
1.101,0.305,-0.294,75.96,90.98,-37.84,1785096976198.6648
1.125,0.242,-0.22,80.23,82.89,-25.24,1785096976198.897
1.195,0.243,-0.167,85.6,76.08,-13.4,1785096976199.1199
1.295,0.322,-0.141,93.11,67.26,2.01,1785096976199.347
1.33,0.395,-0.123,104.71,55.91,17.91,1785096976199.583
1.354,0.464,-0.114,115.97,44.89,30.43,1785096976199.8123
1.369,0.509,-0.086,127.14,35.49,39.25,1785096976200.0342
1.381,0.547,-0.076,143.71,25.45,44.95,1785096976200.267
1.441,0.547,-0.042,169.38,17.52,44.89,1785096976200.501
1.507,0.472,-0.021,192.02,11.29,41.02,1785096976200.725
1.518,0.395,-0.034,191.72,2.2,40.25,1785096976200.9558
1.499,0.389,-0.071,177.86,-11.2,42.18,1785096976201.19
1.487,0.427,-0.128,164.56,-24.2,41.35,1785096976201.4202
1.48,0.413,-0.188,147.25,-31.28,36.87,1785096976201.644
1.46,0.328,-0.257,123.57,-35.77,29.11,1785096976201.877
1.459,0.23,-0.325,99.89,-38.24,18.86,1785096976202.11
1.471,0.156,-0.393,80.29,-38.09,9.31,1785096976202.338
1.458,0.114,-0.45,65.52,-35.22,0.85,1785096976202.557
1.441,0.074,-0.453,52.16,-31.83,-4.82,1785096976202.783
1.422,0.05,-0.466,39.25,-30.3,-10.35,1785096976203.011
1.398,0.024,-0.47,28.11,-29.21,-14.95,1785096976203.229
1.369,-0.014,-0.458,18.19,-27.86,-16.88,1785096976203.442
1.36,-0.026,-0.45,8.21,-24.08,-16.82,1785096976203.666
1.361,0.009,-0.436,-1.89,-19.1,-16.08,1785096976203.876
1.36,0.062,-0.43,-11.81,-15.59,-14.95,1785096976204.082
1.352,0.102,-0.421,-21.94,-12.51,-15.14,1785096976204.303
1.336,0.093,-0.436,-29.94,-9.09,-17.61,1785096976204.522
1.298,0.068,-0.455,-37.42,-5.46,-20.42,1785096976204.73
1.279,0.059,-0.462,-45.14,-2.2,-19.38,1785096976204.9458
1.25,0.062,-0.451,-49.59,1.07,-16.36,1785096976205.155
1.238,0.07,-0.456,-51.21,2.93,-12.21,1785096976205.365
1.23,0.081,-0.455,-54.32,4.09,-7.63,1785096976205.569
1.197,0.078,-0.455,-60.15,4.27,-2.11,1785096976205.8352
1.167,0.076,-0.452,-66.84,4.33,3.27,1785096976206.0598
1.144,0.077,-0.442,-72.08,3.57,10.83,1785096976206.266
1.105,0.078,-0.433,-74.19,1.8,21.06,1785096976206.485
1.073,0.094,-0.416,-73.0,-0.03,32.96,1785096976206.701
1.062,0.111,-0.429,-68.24,-3.11,45.08,1785096976206.912
1.043,0.124,-0.431,-64.52,-7.02,56.06,1785096976207.124
1.001,0.117,-0.434,-61.68,-11.87,67.81,1785096976207.344
0.939,0.082,-0.436,-58.81,-17.12,79.71,1785096976207.5552
0.855,0.021,-0.434,-52.83,-22.98,91.74,1785096976207.764
0.778,-0.041,-0.471,-45.93,-28.78,103.58,1785096976208.004
0.75,-0.047,-0.498,-45.59,-33.48,115.3,1785096976208.253
0.728,-0.063,-0.499,-43.73,-37.23,127.32,1785096976208.498
0.645,-0.13,-0.486,-33.91,-43.06,135.47,1785096976208.706
0.549,-0.179,-0.496,-22.49,-52.71,141.48,1785096976208.92
0.511,-0.197,-0.485,-16.45,-63.91,151.25,1785096976209.1428
0.444,-0.231,-0.445,-10.22,-77.58,163.46,1785096976209.356
0.318,-0.321,-0.498,2.11,-92.38,175.39,1785096976209.579
0.153,-0.423,-0.531,11.99,-102.48,184.85,1785096976209.7979
-0.005,-0.515,-0.521,16.97,-110.87,193.09,1785096976210.034
-0.134,-0.575,-0.475,16.17,-121.59,200.96,1785096976210.2458
-0.264,-0.611,-0.458,13.52,-136.33,20.448,1785096976210.6619
-0.495,-0.724,-0.606,5.65,-161.05,209.78,1785096976210.871
-0.467,-0.702,-0.613,-10.01,-8.67,8.27,1785096976211.305
-0.519,-0.715,-0.57,-6.16,-8.58,6.01,1785096976211.4949
-0.549,-0.71,-0.581,-5.13,-8.36,3.48,1785096976211.685
-0.551,-0.704,-0.585,-7.14,-6.38,1.5,1785096976218.982
-0.543,-0.714,-0.549,-7.45,-6.07,-1.19,1785096976229.363
-0.544,-0.734,-0.531,-3.2,-7.11,-4.97,1785096976242.605
-0.554,-0.74,-0.534,2.08,-6.41,-7.51,1785096976247.978
-0.572,-0.746,-0.548,9.13,-4.27,-9.28,1785096976258.2778
-0.603,-0.739,-0.567,17.43,-1.53,-11.54,1785096976268.852
-0.621,-0.724,-0.568,26.67,0.98,-12.76,1785096976279.4011
-0.617,-0.717,-0.577,37.11,2.99,-13.18,1785096976292.683
-0.606,-0.698,-0.556,46.66,5.25,-13.03,1785096976298.34
-0.608,-0.672,-0.528,53.83,6.32,-12.18,1785096976308.897
-0.597,-0.654,-0.503,59.88,6.96,-9.43,1785096976319.3337
-0.577,-0.652,-0.49,66.56,7.35,-6.29,1785096976332.641
-0.562,-0.644,-0.487,70.53,8.45,-5.77,1785096976338.233
-0.58,-0.623,-0.496,68.76,9.58,-6.16,1785096976348.577
-0.573,-0.635,-0.487,62.9,10.83,-3.94,1785096976359.123
-0.57,-0.66,-0.485,54.93,10.62,-4.36,1785096976372.3672
-0.584,-0.684,-0.478,46.14,9.43,-5.01,1785096976378.197
-0.579,-0.722,-0.471,40.13,9.19,-3.75,1785096976388.574
-0.581,-0.746,-0.465,36.65,8.94,-4.15,1785096976398.9539
-0.588,-0.756,-0.454,35.92,9.37,-4.94,1785096976409.556
-0.587,-0.769,-0.449,38.33,9.46,-4.79,1785096976422.802
-0.583,-0.78,-0.454,42.79,8.64,-4.18,1785096976428.833
-0.577,-0.782,-0.458,47.88,8.55,-3.27,1785096976438.663
-0.571,-0.772,-0.459,52.61,9.03,-2.2,1785096976449.177
-0.564,-0.754,-0.46,55.6,8.82,-1.01,1785096976459.604
-0.554,-0.731,-0.456,56.18,8.3,0.03,1785096976473.011
-0.543,-0.721,-0.438,54.72,7.78,0.79,1785096976478.7542
-0.532,-0.718,-0.425,51.12,6.38,0.64,1785096976488.885
-0.523,-0.711,-0.414,45.78,5.22,0.67,1785096976499.33
-0.518,-0.711,-0.406,41.41,4.03,1.65,1785096976512.638
-0.513,-0.713,-0.415,36.71,2.69,2.17,1785096976518.388
-0.514,-0.71,-0.434,30.27,1.22,2.17,1785096976528.6719
-0.515,-0.708,-0.448,23.65,0.21,2.81,1785096976538.923
-0.514,-0.714,-0.463,17.55,-0.18,3.6,1785096976549.4138
-0.51,-0.728,-0.465,12.51,-0.76,4.03,1785096976562.735
-0.507,-0.751,-0.449,8.91,-2.04,4.7,1785096976568.553
-0.502,-0.781,-0.425,7.39,-3.33,5.55,1785096976578.409
-0.499,-0.806,-0.396,7.66,-5.28,6.16,1785096976588.803
-0.495,-0.824,-0.381,9.31,-7.72,7.02,1785096976599.158
-0.487,-0.833,-0.38,12.48,-9.74,7.93,1785096976610.1792
-0.483,-0.843,-0.384,16.94,-11.47,8.15,1785096976622.909
-0.482,-0.85,-0.393,21.24,-13.28,7.6,1785096976629.083
-0.485,-0.849,-0.398,25.03,-15.32,6.29,1785096976639.1082
-0.483,-0.849,-0.402,28.5,-17.46,5.55,1785096976649.6838
-0.483,-0.85,-0.407,31.71,-19.44,4.82,1785096976662.944
-0.486,-0.841,-0.406,33.94,-21.33,3.81,1785096976668.9448
-0.481,-0.828,-0.402,35.77,-23.38,3.63,1785096976679.2532
-0.477,-0.82,-0.407,35.98,-25.3,3.51,1785096976689.659
-0.477,-0.81,-0.413,33.2,-26.7,3.45,1785096976702.917
-0.478,-0.803,-0.404,27.92,-28.17,3.66,1785096976708.978
-0.475,-0.801,-0.414,20.69,-29.88,3.54,1785096976719.084
-0.471,-0.809,-0.42,12.97,-29.21,3.33,1785096976729.7102
-0.476,-0.834,-0.418,6.1,-29.24,2.23,1785096976742.867
-0.473,-0.832,-0.441,-4.88,-30.37,0.58,1785096976748.9111
-0.463,-0.845,-0.442,-14.34,-28.32,-0.06,1785096976758.9153
-0.46,-0.885,-0.434,-18.07,-26.43,-1.25,1785096976769.4841
-0.462,-0.902,-0.425,-20.57,-25.33,-3.57,1785096976782.757
-0.461,-0.895,-0.4,-22.13,-24.26,-4.97,1785096976788.7559
-0.457,-0.893,-0.381,-22.13,-23.53,-5.34,1785096976798.954
-0.45,-0.894,-0.37,-21.52,-22.74,-6.01,1785096976809.4531
-0.45,-0.894,-0.37,-19.87,-21.97,-7.14,1785096976822.731
-0.448,-0.894,-0.359,-17.0,-21.27,-8.48,1785096976828.892
-0.45,-0.901,-0.358,-14.19,-20.69,-9.8,1785096976838.92
-0.448,-0.913,-0.381,-13.46,-19.68,-10.96,1785096976849.591
-0.449,-0.909,-0.4,-13.92,-17.76,-11.87,1785096976862.7441
-0.453,-0.886,-0.402,-13.92,-17.76,-11.87,1785096976868.98
-0.446,-0.875,-0.401,-14.77,-15.32,-12.36,1785096976879.376
-0.44,-0.87,-0.395,-16.54,-13.06,-13.15,1785096976892.537
-0.433,-0.868,-0.383,-18.71,-11.08,-13.82,1785096976898.53
-0.429,-0.866,-0.37,-19.87,-9.03,-14.71,1785096976908.9019
-0.423,-0.862,-0.362,-19.87,-6.68,-15.93,1785096976919.492
-0.417,-0.858,-0.359,-19.59,-4.58,-17.73,1785096976932.748
-0.397,-0.856,-0.368,-19.14,-2.26,-20.39,1785096976938.6282
-0.437,-0.829,-0.374,-18.59,0.92,-24.81,1785096976948.929
-0.422,-0.878,-0.405,-18.71,0.89,-19.26,1785096976959.46
-0.392,-0.876,-0.397,-20.78,0.12,-19.96,1785096976972.711
-0.415,-0.822,-0.392,-19.9,5.31,-23.65,1785096976978.6082
-0.404,-0.822,-0.42,-17.91,9.22,-21.94,1785096976988.8582
-0.408,-0.812,-0.42,-19.32,10.44,-22.49,1785096976999.6062
-0.397,-0.817,-0.414,-20.84,11.87,-21.88,1785096977012.871
-0.386,-0.828,-0.401,-21.12,12.45,-21.52,1785096977018.71
-0.366,-0.839,-0.405,-20.54,13.98,-22.83,1785096977029.3499
-0.37,-0.837,-0.427,-20.29,16.17,-26.22,1785096977042.483
-0.381,-0.835,-0.455,-21.55,18.01,-28.17,1785096977048.5771
-0.381,-0.83,-0.479,-24.17,19.68,-28.84,1785096977058.934
-0.378,-0.815,-0.502,-26.8,22.03,-28.87,1785096977069.64
-0.37,-0.799,-0.518,-28.47,24.69,-28.75,1785096977082.882
-0.36,-0.787,-0.547,-30.03,27.34,-29.45,1785096977089.062
-0.349,-0.782,-0.571,-32.44,30.12,-30.37,1785096977099.306
-0.34,-0.779,-0.575,-34.91,32.53,-31.4,1785096977112.722
-0.333,-0.787,-0.579,-35.49,34.42,-32.35,1785096977118.535
-0.327,-0.792,-0.588,-34.24,35.98,-33.02,1785096977129.1577
-0.322,-0.789,-0.592,-31.95,37.17,-33.6,1785096977139.6633
-0.319,-0.795,-0.596,-28.29,37.69,-34.36,1785096977152.875
-0.314,-0.802,-0.62,-24.6,37.78,-35.52,1785096977158.8171
-0.317,-0.791,-0.653,-22.77,38.64,-36.81,1785096977169.425
-0.329,-0.766,-0.681,-22.83,39.55,-37.75,1785096977183.1008
-0.339,-0.736,-0.704,-24.99,40.01,-38.64,1785096977188.8462
-0.339,-0.705,-0.718,-28.96,39.58,-39.4,1785096977199.0918
-0.331,-0.674,-0.717,-33.85,38.54,-40.25,1785096977209.7012
-0.32,-0.64,-0.7,-38.58,36.87,-41.05,1785096977222.913
-0.303,-0.616,-0.68,-42.18,34.91,-41.35,1785096977229.059
-0.285,-0.611,-0.671,-44.83,32.96,-42.12,1785096977239.43
-0.278,-0.616,-0.679,-47.58,31.1,-43.86,1785096977252.654
-0.276,-0.636,-0.71,-50.94,29.36,-46.39,1785096977258.6008
-0.288,-0.667,-0.75,-56.12,27.65,-49.87,1785096977269.1208
-0.308,-0.695,-0.784,-64.36,26.52,-53.13,1785096977282.3857
-0.328,-0.721,-0.805,-73.79,26.15,-55.33,1785096977288.4731
-0.339,-0.745,-0.805,-81.55,26.7,-56.64,1785096977298.777
-0.344,-0.743,-0.76,-87.47,26.55,-56.37,1785096977309.429
-0.33,-0.716,-0.73,-91.25,25.03,-54.26,1785096977322.6711
-0.294,-0.677,-0.743,-93.91,25.15,-51.03,1785096977328.7402
-0.26,-0.666,-0.769,-94.79,27.99,-49.07,1785096977339.175
-0.241,-0.711,-0.817,-94.09,31.74,-50.51,1785096977352.457
-0.239,-0.794,-0.859,-93.02,36.68,-54.63,1785096977358.318
-0.258,-0.864,-0.87,-91.59,42.57,-58.87,1785096977368.8892
-0.268,-0.877,-0.857,-87.22,48.31,-59.45,1785096977379.524
-0.243,-0.843,-0.832,-76.33,54.41,-55.39,1785096977392.784
-0.2,-0.795,-0.819,-59.36,59.94,-50.05,1785096977398.763
-0.16,-0.755,-0.826,-39.67,64.88,-45.87,1785096977409.212
-0.133,-0.747,-0.853,-21.09,69.77,-44.8,1785096977422.423
-0.117,-0.784,-0.941,-6.62,75.56,-47.82,1785096977428.583
-0.121,-0.864,-1.022,1.5,84.44,-54.48,1785096977438.71
-0.161,-0.91,-1.031,-0.31,93.66,-62.59,1785096977449.2778
-0.177,-0.878,-1.025,-9.49,99.31,-66.41,1785096977462.535
-0.158,-0.844,-0.962,-18.83,103.79,-64.88,1785096977468.28
-0.102,-0.797,-0.86,-26.43,107.27,-62.44,1785096977479.1018
-0.045,-0.73,-0.782,-31.65,110.48,-59.33,1785096977492.3918
-0.026,-0.687,-0.77,-34.67,112.46,-55.42,1785096977498.444
-0.036,-0.693,-0.77,-38.15,114.29,-54.78,1785096977509.0981
-0.045,-0.715,-0.799,-45.69,113.77,-61.22,1785096977522.332
-0.029,-0.748,-0.886,-58.02,116.03,-71.72,1785096977528.5708
0.028,-0.808,-0.902,-73.98,124.97,-78.46,1785096977539.031
0.093,-0.846,-0.882,-87.59,134.4,-79.78,1785096977552.311
0.116,-0.84,-0.898,-90.21,141.91,-76.48,1785096977558.309
0.169,-0.797,-0.891,-81.06,149.51,-72.15,1785096977569.0142
0.232,-0.724,-0.767,-57.47,157.84,-72.51,1785096977582.284
0.302,-0.647,-0.678,-19.75,160.95,-73.34,1785096977588.19
0.332,-0.574,-0.658,19.62,161.57,-73.46,1785096977598.9949
0.407,-0.506,-0.652,50.23,161.38,-73.49,1785096977609.699
0.47,-0.464,-0.665,72.45,161.32,-77.88,1785096977622.956
0.523,-0.453,-0.666,81.88,158.24,-86.98,1785096977629.2852
0.645,-0.448,-0.662,80.05,154.03,-97.6,1785096977639.6558
0.716,-0.425,-0.604,71.41,149.33,-106.91,1785096977652.972
0.754,-0.4,-0.534,62.9,143.22,-110.63,1785096977658.856
0.778,-0.399,-0.476,67.81,139.26,-112.31,1785096977672.3599
0.873,-0.359,-0.481,74.1,135.96,-112.64,1785096977678.4019
0.944,-0.228,-0.491,71.81,131.14,-112.22,1785096977689.2888
0.97,-0.108,-0.45,70.68,124.39,-111.18,1785096977702.564
1.071,-0.021,-0.43,76.17,118.32,-118.05,1785096977708.652
1.076,0.094,-0.385,86.64,112.77,-132.57,1785096977719.558
1.204,0.117,-0.38,99.64,108.89,-149.08,1785096977732.816
1.327,0.149,-0.336,104.37,100.59,-172.92,1785096977738.734
1.36,0.08,-0.285,103.55,86.7,-187.63,1785096977752.295
1.411,-0.005,-0.231,102.88,75.29,-194.19,1785096977758.23
1.455,-0.086,-0.211,108.01,62.87,-194.56,1785096977769.294
1.403,-0.035,-0.211,109.59,49.13,-192.88,1785096977782.5579
1.418,-0.134,-0.234,98.57,39.67,-183.75,1785096977788.6602
1.416,-0.032,-0.209,73.24,30.88,-192.45,1785096977799.3281
1.423,-0.07,-0.179,58.41,26.0,-183.26,1785096977812.685
1.433,-0.093,-0.156,42.24,22.64,-175.51,1785096977818.5488
1.398,0.083,-0.142,30.03,19.01,-171.91,1785096977829.377
1.348,0.058,-0.108,22.1,15.05,-147.77,1785096977842.488
1.302,0.092,-0.066,11.44,8.97,-129.0,1785096977848.638
1.248,0.143,-0.057,6.99,2.99,-110.81,1785096977858.987
1.179,0.149,-0.067,4.64,-2.78,-91.01,1785096977869.215
1.095,0.141,-0.082,0.43,-9.03,-69.34,1785096977882.7268
1.003,0.102,-0.099,-2.59,-16.88,-46.02,1785096977888.746
0.916,0.173,-0.135,-3.63,-26.92,-24.75,1785096977898.7698
0.815,0.104,-0.18,-7.26,-34.39,8.06,1785096977909.2312
0.731,0.099,-0.203,-18.07,-41.23,33.48,1785096977922.4949
0.681,0.105,-0.235,-29.24,-48.92,56.37,1785096977928.6047
0.615,0.088,-0.254,-39.86,-55.73,78.65,1785096977938.931
0.521,0.053,-0.273,-49.47,-61.07,100.86,1785096977949.729
0.425,0.03,-0.276,-55.48,-66.19,123.57,1785096977963.0908
0.315,0.006,-0.269,-56.12,-72.51,147.1,1785096977969.034
0.202,-0.042,-0.291,-51.79,-79.1,168.95,1785096977979.777
0.105,-0.12,-0.326,-45.99,-85.48,187.32,1785096977992.908
0.012,-0.177,-0.359,-43.31,-92.87,202.25,1785096977998.931
-0.06,-0.219,-0.396,-43.76,-101.32,215.43,1785096978009.728
-0.118,-0.307,-0.397,-47.06,-110.51,223.24,1785096978022.973
-0.288,-0.345,-0.442,-56.61,-122.32,222.42,1785096978029.207
-0.38,-0.342,-0.515,-73.0,-135.96,220.65,1785096978042.444
-0.55,-0.288,-0.536,-93.72,-152.29,220.34,1785096978048.5618
-0.625,-0.363,-0.664,-104.4,-163.7,222.14,1785096978059.448
-0.66,-0.533,-0.853,-106.45,-163.58,211.71,1785096978072.715
-0.796,-0.693,-1.005,-111.88,-152.35,191.66,1785096978078.778
-0.91,-0.865,-1.165,-116.12,-131.47,177.47,1785096978092.261
-0.823,-1.094,-1.448,-113.16,-104.46,166.48,1785096978098.446
-0.823,-1.094,-1.448,-114.26,-70.59,145.45,1785096978109.444
-0.634,-1.222,-1.633,-125.13,-37.39,122.68,1785096978122.7122
-0.475,-1.168,-1.593,-133.7,-7.69,99.83,1785096978128.916
-0.317,-1.058,-1.37,-132.51,12.3,69.19,1785096978139.411
-0.231,-0.978,-1.055,-132.51,12.3,69.19,1785096978152.702
-0.18,-0.934,-0.817,-124.7,22.03,31.71,1785096978158.601
-0.187,-0.852,-0.679,-114.32,28.05,-9.22,1785096978169.303
-0.18,-0.731,-0.674,-97.48,35.55,-46.11,1785096978182.511
-0.201,-0.67,-0.727,-78.13,45.32,-78.74,1785096978188.7668
-0.287,-0.542,-0.751,-59.63,56.43,-118.29,1785096978199.053
-0.395,-0.525,-0.782,-33.42,69.06,-147.4,1785096978212.3342
-0.396,-0.59,-0.84,-7.45,83.07,-170.84,1785096978218.189
-0.329,-0.629,-0.893,13.09,96.71,-187.2,1785096978228.9521
-0.172,-0.674,-1.032,28.69,108.37,-197.33,1785096978242.1519
-0.175,-0.609,-1.12,29.15,117.89,-201.76,1785096978248.276
-0.146,-0.577,-1.139,18.77,126.1,-190.83,1785096978259.1519
-0.079,-0.563,-1.103,1.89,131.29,-178.17,1785096978272.416
0.007,-0.556,-1.021,-11.96,133.43,-165.99,1785096978278.367
0.138,-0.546,-1.013,-15.44,136.97,-158.15,1785096978289.303
0.223,-0.508,-0.944,-13.95,145.36,-151.95,1785096978302.5059
0.33,-0.476,-0.845,-7.35,152.84,-145.12,1785096978308.6519
0.423,-0.394,-0.734,1.95,153.69,-141.36,1785096978319.384
0.49,-0.286,-0.637,15.66,148.38,-137.58,1785096978332.579
0.63,-0.177,-0.634,30.7,142.16,-136.69,1785096978338.5542
0.777,-0.009,-0.566,36.1,136.88,-136.42,1785096978349.615
0.955,0.112,-0.489,40.38,133.52,-133.03,1785096978362.8281
1.077,0.169,-0.385,49.65,133.09,-128.48,1785096978369.1257
1.136,0.204,-0.287,59.97,132.88,-122.99,1785096978382.2388
1.1,0.216,-0.204,68.42,131.11,-116.76,1785096978388.3728
1.135,0.229,-0.178,67.75,127.2,-111.48,1785096978399.262
1.194,0.266,-0.088,55.12,121.74,-105.69,1785096978412.52
1.248,0.22,-0.032,37.57,115.39,-98.18,1785096978418.539
1.313,0.315,0.026,19.62,110.84,-97.35,1785096978429.307
1.344,0.346,0.071,3.36,102.48,-83.9,1785096978442.506
1.368,0.408,0.109,-12.6,92.72,-72.66,1785096978449.122
1.373,0.504,0.138,-20.39,81.91,-65.16,1785096978459.0159
1.401,0.576,0.155,-18.56,72.24,-57.5,1785096978469.424
1.435,0.644,0.164,-9.52,65.31,-52.03,1785096978482.719
1.473,0.719,0.189,3.81,60.03,-45.35,1785096978489.0571
1.491,0.747,0.208,20.14,55.33,-37.32,1785096978499.204
1.482,0.824,0.213,38.58,50.02,-37.08,1785096978512.435
1.467,0.897,0.219,55.64,40.53,-28.75,1785096978518.362
1.434,0.834,0.231,62.47,28.9,-16.51,1785096978529.007
1.426,0.796,0.218,65.1,18.92,-12.54,1785096978539.48
1.405,0.731,0.197,58.02,10.28,-8.03,1785096978552.7207
1.385,0.675,0.175,41.54,2.44,-2.62,1785096978558.63
1.356,0.637,0.146,20.57,-5.01,3.51,1785096978568.7192
1.319,0.612,0.135,-1.59,-12.24,11.35,1785096978579.375
1.295,0.607,0.128,-20.63,-20.54,21.03,1785096978592.56
1.289,0.611,0.098,-33.51,-28.41,30.52,1785096978598.619
1.28,0.572,0.065,-38.39,-32.93,38.51,1785096978608.99
1.281,0.544,0.027,-39.34,-37.78,46.42,1785096978619.4438
1.278,0.515,0.002,-39.06,-42.66,54.14,1785096978632.936
1.268,0.473,-0.023,-38.09,-48.16,61.62,1785096978638.92
1.244,0.429,-0.042,-36.93,-55.02,70.41,1785096978649.275
1.218,0.38,-0.074,-34.94,-61.74,80.84,1785096978662.708
1.188,0.343,-0.106,-35.77,-67.66,92.59,1785096978668.781
1.158,0.317,-0.131,-37.57,-74.13,105.08,1785096978679.29
1.112,0.287,-0.182,-40.96,-80.54,116.79,1785096978692.47
1.042,0.263,-0.227,-46.24,-86.73,128.88,1785096978698.473
0.974,0.243,-0.262,-50.94,-93.81,141.3,1785096978709.167
0.898,0.215,-0.281,-53.93,-100.62,153.14,1785096978722.505
0.837,0.175,-0.317,-52.98,-105.93,163.73,1785096978729.217
0.797,0.114,-0.363,-47.15,-110.39,173.56,1785096978739.325
0.749,0.044,-0.415,-40.5,-117.01,182.5,1785096978752.668
0.689,0.018,-0.472,-40.96,-127.57,192.66,1785096978758.582
0.608,0.034,-0.501,-48.55,-141.27,202.89,1785096978769.466
0.457,0.034,-0.492,-57.28,-157.6,211.68,1785096978782.933
0.225,-0.01,-0.477,-61.65,-174.54,219.7,1785096978789.0098
0.018,-0.167,-0.495,-57.01,-189.49,228.34,1785096978802.2761
-0.203,-0.348,-0.468,-44.92,-202.67,227.48,1785096978808.387
-0.479,-0.471,-0.511,-29.42,-218.45,223.09,1785096978819.2551
-0.656,-0.499,-0.503,-16.51,-237.4,223.43,1785096978832.506
-0.799,-0.49,-0.65,-4.36,-262.64,227.0,1785096978838.47
-0.986,-0.538,-0.944,-1.59,-277.63,230.81,1785096978849.304
-1.158,-0.587,-1.246,-17.82,-276.62,231.7,1785096978862.667
-1.247,-0.616,-1.511,-47.91,-261.48,229.35,1785096978868.8582
-1.215,-0.672,-1.836,-74.34,-228.4,219.86,1785096978879.6082
-1.088,-0.745,-2.1,-88.35,-172.06,194.22,1785096978892.769
-0.844,-0.812,-2.048,-91.13,-108.04,161.99,1785096978898.782
-0.456,-0.912,-1.716,-84.17,-59.24,133.15,1785096978909.652
-0.07,-0.999,-1.347,-78.59,-28.69,103.61,1785096978922.881
0.206,-1.028,-1.114,-85.85,-11.51,72.12,1785096978929.091
0.331,-0.917,-1.002,-106.6,-4.82,40.28,1785096978939.3972
0.327,-0.648,-0.887,-126.59,-2.17,6.78,1785096978952.707
0.238,-0.37,-0.837,-119.91,2.66,-30.03,1785096978958.573
0.086,-0.198,-0.87,-82.43,15.87,-67.87,1785096978969.0703
-0.101,-0.176,-0.871,-32.29,36.74,-104.16,1785096978982.365
-0.353,-0.232,-0.873,11.02,55.45,-135.04,1785096978988.479
-0.51,-0.332,-0.91,41.05,71.93,-153.94,1785096978999.186
-0.445,-0.452,-0.901,61.43,87.04,-166.72,1785096979012.115
-0.382,-0.498,-0.902,73.27,94.73,-182.99,1785096979018.656
-0.436,-0.436,-0.948,72.6,99.95,-193.7,1785096979029.175
-0.467,-0.37,-0.987,56.52,105.78,-198.16,1785096979042.202
-0.498,-0.32,-1.014,33.72,109.53,-205.57,1785096979048.4421
-0.449,-0.307,-1.009,10.25,109.07,-209.45,1785096979059.218
-0.347,-0.362,-1.052,-10.62,109.93,-210.3,1785096979072.48
-0.249,-0.42,-1.015,-24.14,114.29,-209.05,1785096979078.3948
-0.141,-0.458,-0.989,-27.07,116.86,-203.53,1785096979089.468
-0.044,-0.5,-0.975,-15.14,121.68,-194.8,1785096979102.689
0.03,-0.46,-0.943,0.55,123.72,-182.87,1785096979108.768
0.115,-0.388,-0.934,12.48,123.97,-166.6,1785096979119.641
0.174,-0.314,-0.889,28.14,123.84,-154.27,1785096979132.8452
0.267,-0.29,-0.888,50.23,123.54,-151.98,1785096979138.836
0.329,-0.266,-0.831,67.11,124.03,-155.43,1785096979152.301
0.465,-0.208,-0.769,69.55,120.15,-146.0,1785096979158.1929
0.602,-0.153,-0.713,68.39,113.96,-127.41,1785096979169.2642
0.675,-0.12,-0.667,75.62,104.83,-110.29,1785096979182.463
0.77,-0.09,-0.629,87.65,96.35,-96.9,1785096979188.499
0.895,0.002,-0.598,89.85,91.19,-86.92,1785096979199.0889
0.948,0.12,-0.553,80.17,88.84,-78.28,1785096979209.716
0.994,0.165,-0.481,69.4,88.99,-71.93,1785096979222.938
1.055,0.189,-0.421,59.51,90.46,-68.54,1785096979229.028
1.081,0.258,-0.342,52.74,90.82,-61.43,1785096979239.409
1.126,0.261,-0.285,54.63,91.68,-49.01,1785096979252.6729
1.179,0.314,-0.27,56.61,93.72,-42.36,1785096979258.5752
1.224,0.335,-0.249,53.93,92.65,-29.88,1785096979269.1099
1.268,0.385,-0.231,52.13,90.43,-22.31,1785096979282.392
1.325,0.411,-0.205,56.0,87.77,-15.66,1785096979288.424
1.33,0.339,-0.168,62.17,84.29,-8.85,1785096979298.735
1.365,0.38,-0.165,71.23,82.34,-8.85,1785096979309.269
1.398,0.43,-0.151,82.89,78.89,3.69,1785096979323.31
1.427,0.37,-0.146,83.9,72.91,18.8,1785096979328.804
1.448,0.396,-0.095,76.45,65.83,21.24,1785096979338.893
1.457,0.382,-0.045,67.96,58.17,22.92,1785096979349.592
1.469,0.383,-0.005,55.15,50.14,23.26,1785096979362.866
1.477,0.376,-0.001,40.16,42.02,21.42,1785096979369.017
1.468,0.34,-0.022,22.83,34.21,19.56,1785096979379.294
1.468,0.34,-0.022,4.46,27.62,18.16,1785096979392.5
1.469,0.31,-0.026,-11.47,19.38,19.9,1785096979398.4749
1.469,0.291,-0.008,-21.7,11.17,26.18,1785096979408.906
1.432,0.267,-0.004,-27.13,1.8,32.72,1785096979419.404
1.4,0.284,-0.017,-30.12,-6.71,37.63,1785096979432.7031
1.374,0.27,-0.035,-30.12,-6.71,37.63,1785096979438.58
1.362,0.242,-0.051,-32.07,-13.92,43.4,1785096979448.769
1.364,0.224,-0.076,-32.87,-20.97,50.36,1785096979459.599
1.348,0.198,-0.093,-34.46,-28.84,57.53,1785096979472.991
1.316,0.168,-0.105,-38.85,-36.9,65.37,1785096979478.839
1.279,0.148,-0.119,-42.76,-45.41,72.36,1785096979489.362
1.245,0.127,-0.154,-46.02,-55.67,77.55,1785096979502.5898
1.189,0.114,-0.176,-50.39,-64.3,81.27,1785096979508.6838
1.163,0.081,-0.181,-51.09,-70.68,85.63,1785096979519.0762
1.137,0.037,-0.265,-44.65,-75.29,90.91,1785096979529.771
1.09,-0.003,-0.316,-39.12,-79.26,100.19,1785096979542.9338
1.059,-0.038,-0.363,-35.86,-85.97,111.61,1785096979549.129
0.999,-0.081,-0.439,-31.62,-92.01,121.8,1785096979559.654
0.923,-0.123,-0.487,-34.55,-97.48,130.83,1785096979572.917
0.827,-0.147,-0.518,-45.38,-105.41,140.05,1785096979579.205
0.74,-0.147,-0.546,-58.29,-113.86,149.05,1785096979592.226
0.643,-0.184,-0.54,-67.29,-121.19,157.17,1785096979598.327
0.485,-0.257,-0.561,-68.67,-129.76,161.14,1785096979609.2942
0.333,-0.288,-0.594,-69.06,-137.91,164.01,1785096979622.488
0.152,-0.302,-0.58,-65.55,-147.37,170.11,1785096979629.098
-0.034,-0.355,-0.607,-58.84,-162.21,179.78,1785096979639.452
-0.213,-0.402,-0.674,-55.91,-176.67,185.92,1785096979652.775
-0.39,-0.428,-0.699,-60.95,-191.2,191.38,1785096979658.725
-0.565,-0.469,-0.781,-69.06,-207.89,197.55,1785096979669.6948
-0.721,-0.524,-0.958,-76.17,-215.49,197.45,1785096979682.982
-0.887,-0.576,-1.158,-86.06,-213.08,193.0,1785096979689.006
-0.99,-0.628,-1.413,-99.15,-200.99,189.73,1785096979702.3252
-1.047,-0.656,-1.636,-113.5,-178.35,185.52,1785096979708.427
-0.977,-0.616,-1.806,-125.64,-149.39,177.01,1785096979719.5032
-0.836,-0.542,-1.829,-129.58,-115.88,158.3,1785096979732.775
-0.615,-0.525,-1.702,-124.58,-84.54,136.66,1785096979738.6648
-0.367,-0.578,-1.491,-117.04,-58.11,114.66,1785096979752.1929
-0.187,-0.609,-1.174,-108.77,-35.83,91.56,1785096979758.1282
-0.072,-0.613,-0.945,-90.06,-19.29,69.34,1785096979768.9338
0.005,-0.63,-0.848,-64.15,-7.02,46.69,1785096979779.584
0.036,-0.585,-0.845,-43.24,1.25,19.9,1785096979792.705
0.021,-0.468,-0.888,-28.66,9.58,-9.7,1785096979798.76
-0.038,-0.368,-0.972,-14.44,19.75,-40.68,1785096979808.9421
-0.129,-0.313,-1.059,-0.98,32.11,-73.61,1785096979819.4812
-0.283,-0.303,-1.058,11.63,49.26,-107.43,1785096979832.774
-0.45,-0.374,-1.024,29.97,67.14,-135.32,1785096979838.664
-0.548,-0.455,-1.026,45.66,83.16,-159.34,1785096979849.4668
-0.624,-0.463,-1.019,51.06,100.22,-178.04,1785096979862.7673
-0.716,-0.46,-1.009,53.16,115.6,-187.66,1785096979868.843
-0.749,-0.513,-1.067,54.48,125.95,-195.01,1785096979879.7598
-0.745,-0.599,-1.1,45.96,134.07,-206.12,1785096979892.894
-0.721,-0.639,-1.123,26.52,141.51,-214.67,1785096979899.0322
-0.488,-0.702,-1.17,9.06,149.94,-214.18,1785096979912.5151
-0.354,-0.675,-1.178,-2.26,153.11,-217.78,1785096979918.3118
-0.251,-0.633,-1.16,-2.59,154.39,-214.42,1785096979929.706
-0.12,-0.588,-1.135,8.36,152.78,-205.6,1785096979939.801
0.001,-0.538,-1.082,25.42,150.76,-198.64,1785096979953.094
0.094,-0.49,-1.034,43.52,151.04,-193.24,1785096979958.788
0.186,-0.39,-0.938,54.23,152.96,-188.42,1785096979972.481
0.385,-0.281,-0.859,57.47,151.77,-181.89,1785096979978.425
0.557,-0.152,-0.763,58.44,146.12,-179.69,1785096979989.185
0.684,-0.072,-0.678,54.66,135.47,-175.66,1785096980002.811
0.841,0.007,-0.597,44.77,127.11,-167.55,1785096980008.7559
0.976,0.136,-0.526,34.33,122.1,-156.65,1785096980019.659
1.072,0.226,-0.459,23.26,120.52,-142.25,1785096980032.9358
1.107,0.32,-0.386,11.41,123.05,-132.73,1785096980038.862
1.143,0.371,-0.309,1.5,126.59,-124.06,1785096980052.306
1.218,0.408,-0.232,-8.15,128.94,-116.37,1785096980058.227
1.267,0.433,-0.18,-13.55,132.57,-109.74,1785096980069.137
1.296,0.437,-0.135,-16.24,136.33,-103.55,1785096980082.451
1.356,0.521,-0.114,-16.57,139.19,-100.89,1785096980088.5068
1.382,0.563,-0.067,-15.35,137.76,-90.43,1785096980099.2551
1.391,0.586,-0.017,-12.57,133.67,-80.48,1785096980112.597
1.415,0.643,0.021,-8.03,129.22,-73.82,1785096980118.491
1.423,0.693,0.058,-5.95,123.84,-68.85,1785096980129.156
1.415,0.727,0.095,-6.16,117.56,-65.52,1785096980139.652
1.401,0.772,0.131,-8.0,110.42,-62.26,1785096980152.925
1.402,0.81,0.168,-9.34,103.37,-59.24,1785096980158.8481
1.403,0.818,0.188,-11.35,96.07,-55.88,1785096980169.419
1.394,0.809,0.2,-14.28,88.87,-51.82,1785096980182.5989
1.387,0.804,0.222,-17.98,79.47,-44.83,1785096980188.617
1.368,0.798,0.231,-22.06,68.85,-36.41,1785096980199.078
1.331,0.77,0.219,-26.95,58.9,-28.38,1785096980209.712
1.28,0.733,0.204,-33.54,49.35,-20.29,1785096980222.994
1.262,0.689,0.172,-39.74,40.53,-11.63,1785096980228.977
1.249,0.638,0.137,-50.78,32.29,-3.78,1785096980239.368
1.235,0.57,0.139,-75.32,23.77,4.73,1785096980252.552
1.231,0.5,0.141,-107.91,15.05,12.6,1785096980258.49
1.207,0.446,0.133,-147.59,5.83,19.59,1785096980269.0562
1.167,0.446,0.103,-188.3,-4.76,26.55,1785096980279.659
1.144,0.476,0.05,-213.63,-17.09,34.21,1785096980292.937
1.115,0.548,0.018,-220.53,-30.95,40.07,1785096980298.8857
1.099,0.573,-0.027,-209.45,-43.18,44.74,1785096980309.6719
1.119,0.53,-0.07,-185.58,-50.9,52.55,1785096980322.872
1.107,0.511,-0.09,-153.36,-56.83,57.99,1785096980328.9622
1.014,0.462,-0.082,-115.67,-66.53,66.84,1785096980339.603
0.896,0.403,-0.061,-76.39,-79.1,83.68,1785096980352.848
0.882,0.355,-0.088,-35.37,-89.91,101.35,1785096980358.777
0.858,0.328,-0.15,-2.93,-103.18,112.43,1785096980369.499
0.784,0.303,-0.201,11.17,-119.48,123.08,1785096980382.726
0.763,0.287,-0.218,11.69,-136.08,134.59,1785096980388.8472
0.714,0.289,-0.214,7.75,-153.66,144.9,1785096980399.6511
0.612,0.261,-0.201,2.96,-171.27,155.43,1785096980412.917
0.483,0.224,-0.191,-1.68,-188.24,162.6,1785096980418.8708
0.368,0.225,-0.202,-5.01,-205.08,166.72,1785096980429.638
0.247,0.232,-0.205,-4.46,-221.9,171.0,1785096980442.808
0.082,0.195,-0.205,0.31,-239.45,174.66,1785096980448.936
-0.074,0.137,-0.213,6.65,-259.04,177.5,1785096980459.5671
-0.272,0.048,-0.255,13.46,-279.76,177.65,1785096980472.951
-0.526,0.006,-0.331,14.98,-300.64,175.12,1785096980478.902
-0.77,-0.048,-0.487,3.48,-328.53,182.59,1785096980489.7778
-0.99,-0.129,-0.749,-18.28,-356.03,198.52,1785096980503.0342
-1.208,-0.167,-1.086,-40.25,-367.78,207.71,1785096980509.187
-1.379,-0.243,-1.542,-55.79,-360.3,210.3,1785096980522.28
-1.528,-0.34,-2.153,-64.76,-328.1,197.64,1785096980528.665
-1.445,-0.398,-2.708,-75.59,-270.79,180.58,1785096980539.392
-0.976,-0.403,-2.922,-90.06,-197.45,166.3,1785096980552.5762
-0.331,-0.487,-2.532,-94.39,-124.97,154.24,1785096980558.535
0.125,-0.701,-1.743,-75.2,-68.18,130.22,1785096980569.489
0.311,-0.933,-1.005,-44.43,-35.71,97.81,1785096980582.7148
0.385,-0.963,-0.68,-26.25,-24.93,72.51,1785096980588.8
0.517,-0.72,-0.683,-13.34,-11.6,46.36,1785096980599.193
0.551,-0.37,-0.824,18.34,9.43,-3.23,1785096980609.611
0.305,-0.07,-0.982,57.16,31.95,-63.08,1785096980622.846
0.002,0.033,-1.115,86.03,56.89,-106.72,1785096980629.107
-0.159,-0.067,-1.198,95.98,80.97,-136.3,1785096980639.494
-0.276,-0.193,-1.14,84.81,99.67,-158.42,1785096980652.774
-0.364,-0.285,-1.027,70.13,114.05,-173.01,1785096980658.7131
-0.364,-0.285,-1.027,62.65,125.31,-183.02,1785096980669.6611
-0.465,-0.375,-0.986,53.19,136.54,-188.33,1785096980682.9497
-0.537,-0.424,-0.994,33.3,144.08,-190.34,1785096980688.961
-0.609,-0.384,-0.962,13.95,146.76,-187.72,1785096980702.3162
-0.591,-0.39,-1.025,-5.01,147.83,-188.21,1785096980708.437
-0.467,-0.43,-1.12,-5.01,147.83,-188.21,1785096980719.1292
-0.416,-0.424,-1.127,-18.74,149.57,-190.13,1785096980732.466
-0.288,-0.459,-1.153,-17.06,150.52,-184.91,1785096980743.7131
-0.204,-0.445,-1.16,-7.54,149.85,-181.55,1785096980749.125
-0.123,-0.472,-1.202,5.89,151.22,-174.78,1785096980762.511
-0.014,-0.49,-1.221,12.48,155.49,-171.54,1785096980768.354
0.055,-0.392,-1.118,12.76,156.19,-169.65,1785096980779.252
0.186,-0.328,-1.036,20.84,155.31,-163.61,1785096980792.6882
0.237,-0.301,-0.95,29.3,151.13,-157.44,1785096980798.84
0.275,-0.298,-0.893,34.0,144.84,-154.09,1785096980809.715
0.373,-0.239,-0.836,30.92,136.54,-151.52,1785096980822.928
0.486,-0.143,-0.765,18.92,124.09,-144.96,1785096980829.048
0.53,-0.086,-0.603,11.38,113.28,-135.69,1785096980842.325
0.674,-0.011,-0.478,20.2,104.77,-127.72,1785096980848.448
0.87,0.165,-0.409,38.64,99.77,-118.11,1785096980859.1868
0.99,0.268,-0.372,60.7,99.58,-103.06,1785096980872.4338
1.134,0.33,-0.32,81.97,100.07,-91.74,1785096980878.383
1.163,0.393,-0.238,97.05,98.09,-84.23,1785096980889.079
1.162,0.337,-0.208,105.62,96.19,-73.49,1785096980902.3162
1.205,0.338,-0.201,103.4,96.41,-66.93,1785096980908.517
1.31,0.422,-0.19,98.91,97.51,-63.84,1785096980918.9602
1.373,0.414,-0.211,94.39,96.29,-57.19,1785096980929.634
1.444,0.451,-0.217,87.13,98.18,-62.01,1785096980942.823
1.507,0.567,-0.214,86.73,100.77,-68.06,1785096980948.982
1.521,0.622,-0.165,85.85,101.44,-59.02,1785096980959.4849
1.505,0.74,-0.101,87.65,97.29,-51.91,1785096980972.555
1.504,0.946,-0.074,97.32,87.34,-44.34,1785096980978.739
1.471,1.048,-0.024,102.02,74.07,-29.3,1785096980989.323
1.465,1.178,0.018,110.72,64.06,-22.0,1785096981002.555
1.448,1.246,0.029,124.76,55.67,-15.11,1785096981008.664
1.43,1.241,0.009,141.06,49.93,-12.73,1785096981019.239
1.433,1.121,-0.031,149.63,48.83,-8.15,1785096981032.4722
1.385,0.865,-0.052,130.95,47.7,-5.77,1785096981038.388
1.407,0.764,-0.051,95.68,41.69,-14.28,1785096981048.985
1.38,0.595,-0.044,49.56,30.85,-5.34,1785096981059.456
1.359,0.547,-0.021,2.69,22.46,2.99,1785096981072.734
1.33,0.529,-0.008,-34.12,13.43,10.44,1785096981078.8647
1.297,0.521,0.011,-63.69,4.97,17.98,1785096981088.947
1.289,0.527,0.008,-84.99,-1.34,23.44,1785096981099.5059
1.285,0.515,0.007,-95.74,-6.62,25.85,1785096981112.79
1.258,0.486,-0.013,-99.22,-12.3,26.95,1785096981120.565
1.243,0.456,-0.016,-99.98,-15.5,28.96,1785096981129.09
1.2,0.422,-0.011,-95.58,-20.17,33.08,1785096981139.79
1.161,0.382,-0.027,-84.05,-23.13,37.97,1785096981153.002
