ax,ay,az,gx,gy,gz,timestamp_ms
0.085,-0.481,-0.942,39.22,122.04,-196.87,1785097019240.236
0.14,-0.494,-0.899,60.37,132.85,-198.07,1785097019240.8882
0.213,-0.448,-0.827,69.58,138.55,-196.33,1785097019241.444
0.374,-0.371,-0.84,65.49,136.36,-190.47,1785097019241.965
0.483,-0.212,-0.799,44.68,125.34,-183.78,1785097019242.455
0.535,-0.125,-0.765,21.39,112.74,-174.08,1785097019242.958
0.568,-0.105,-0.734,2.56,110.39,-169.84,1785097019243.464
0.614,-0.02,-0.655,-16.45,115.21,-167.58,1785097019243.9512
0.699,0.065,-0.607,-30.85,118.17,-158.82,1785097019244.4348
0.777,0.115,-0.498,-35.43,120.37,-148.44,1785097019244.9238
0.874,0.154,-0.353,-22.16,120.7,-138.62,1785097019245.437
0.96,0.191,-0.309,7.35,119.91,-130.95,1785097019245.9468
0.928,0.264,-0.342,35.65,118.38,-122.71,1785097019246.523
0.976,0.358,-0.382,49.23,119.39,-114.63,1785097019247.072
1.104,0.428,-0.299,49.35,125.0,-110.63,1785097019247.57
1.118,0.423,-0.212,46.78,131.17,-108.62,1785097019248.061
1.14,0.408,-0.135,41.69,138.83,-106.36,1785097019248.492
1.197,0.444,-0.057,33.05,145.57,-106.81,1785097019248.904
1.235,0.484,-0.003,23.56,150.3,-108.74,1785097019249.325
1.235,0.494,0.016,8.03,152.2,-112.28,1785097019249.741
1.21,0.509,0.064,-13.55,151.01,-113.86,1785097019250.14
1.19,0.537,0.101,-30.88,145.66,-111.33,1785097019250.5479
1.181,0.604,0.143,-40.83,137.49,-104.83,1785097019250.963
1.177,0.716,0.186,-45.35,126.77,-96.01,1785097019251.3708
1.167,0.874,0.246,-45.29,114.38,-87.53,1785097019251.761
1.143,1.049,0.305,-37.08,100.56,-78.13,1785097019252.177
1.135,1.243,0.365,-19.9,86.0,-65.28,1785097019252.5889
1.143,1.452,0.432,7.17,68.76,-48.19,1785097019252.9731
1.142,1.531,0.476,44.34,51.42,-26.86,1785097019253.3792
1.138,1.392,0.449,77.09,36.04,-8.97,1785097019253.7861
1.119,1.129,0.374,82.37,23.68,-0.15,1785097019254.194
1.065,0.935,0.293,53.8,14.25,4.27,1785097019254.526
1.065,0.935,0.293,12.6,4.09,12.82,1785097019254.898
1.027,0.845,0.233,-23.53,-7.87,26.98,1785097019255.267
1.032,0.818,0.179,-52.49,-19.9,45.29,1785097019255.6392
1.038,0.831,0.137,-71.57,-31.65,64.58,1785097019255.976
1.042,0.856,0.123,-76.82,-42.15,80.69,1785097019256.321
1.047,0.854,0.113,-76.82,-42.15,80.69,1785097019256.6882
1.057,0.817,0.11,-73.21,-49.65,92.04,1785097019257.048
1.036,0.775,0.077,-65.25,-56.09,100.38,1785097019257.3928
1.022,0.691,0.064,-60.21,-58.69,110.35,1785097019257.7432
1.042,0.694,0.078,-59.57,-60.98,118.23,1785097019258.115
0.998,0.591,0.054,-55.06,-69.43,130.8,1785097019258.4597
1.004,0.513,0.044,-52.19,-72.6,142.77,1785097019258.801
1.017,0.458,0.012,-54.81,-73.27,150.61,1785097019259.146
0.974,0.397,-0.026,-64.18,-78.98,153.9,1785097019259.5142
0.927,0.319,-0.046,-78.31,-86.92,155.43,1785097019259.865
0.874,0.266,-0.062,-90.64,-92.38,152.5,1785097019260.21
0.803,0.198,-0.097,-100.74,-99.25,149.94,1785097019260.5498
0.729,0.122,-0.113,-110.08,-107.18,151.55,1785097019260.8992
0.652,0.071,-0.099,-115.54,-115.88,154.33,1785097019261.2368
0.583,0.008,-0.104,-111.51,-128.12,158.73,1785097019261.591
0.533,-0.052,-0.134,-95.92,-141.0,159.37,1785097019261.951
0.491,-0.117,-0.181,-71.11,-151.98,158.45,1785097019262.254
0.454,-0.194,-0.244,-38.48,-163.34,160.99,1785097019262.55
0.391,-0.209,-0.32,-0.18,-175.66,165.29,1785097019262.847
0.391,-0.162,-0.386,37.23,-185.95,174.6,1785097019263.1511
0.363,-0.115,-0.471,65.55,-193.49,184.39,1785097019263.457
0.296,-0.09,-0.516,82.52,-197.52,187.96,1785097019263.753
0.188,-0.141,-0.519,93.54,-202.15,185.95,1785097019264.058
0.047,-0.295,-0.561,96.56,-206.67,184.12,1785097019264.3672
-0.118,-0.483,-0.649,81.51,-205.76,183.51,1785097019264.672
-0.296,-0.598,-0.702,51.06,-200.26,184.73,1785097019264.965
-0.37,-0.631,-0.773,22.46,-195.29,189.43,1785097019265.2668
-0.361,-0.627,-0.933,3.02,-191.23,191.53,1785097019265.5999
-0.362,-0.646,-1.15,-11.23,-187.87,191.14,1785097019265.9001
-0.339,-0.727,-1.381,-20.08,-177.56,187.08,1785097019266.211
-0.321,-0.81,-1.572,-29.79,-158.82,177.68,1785097019266.5798
-0.288,-0.888,-1.742,-41.93,-131.96,165.5,1785097019266.9119
-0.224,-0.938,-1.833,-54.96,-97.78,146.95,1785097019267.2078
-0.14,-0.956,-1.736,-65.95,-62.14,120.09,1785097019267.518
-0.061,-0.981,-1.511,-68.3,-31.5,88.5,1785097019267.814
0.009,-1.067,-1.273,-54.17,-4.94,54.32,1785097019268.106
0.026,-1.165,-1.075,-24.48,15.44,15.75,1785097019268.3962
0.011,-1.15,-0.993,10.04,29.24,-24.54,1785097019268.6912
0.005,-1.039,-1.062,42.82,41.17,-61.98,1785097019268.99
0.012,-0.932,-1.215,64.24,54.35,-94.85,1785097019269.293
-0.017,-0.861,-1.332,66.1,66.53,-125.46,1785097019269.5889
-0.079,-0.823,-1.359,50.36,73.61,-149.94,1785097019269.8738
-0.091,-0.832,-1.398,27.16,80.32,-165.23,1785097019270.145
-0.09,-0.849,-1.384,2.08,90.06,-174.69,1785097019270.409
-0.078,-0.834,-1.308,-19.26,100.89,-178.9,1785097019270.6711
-0.063,-0.795,-1.189,-30.18,110.97,-179.2,1785097019270.953
-0.035,-0.728,-1.097,-31.37,118.96,-176.55,1785097019271.232
-0.003,-0.665,-1.059,-27.89,126.65,-172.49,1785097019271.497
0.018,-0.575,-0.988,-24.45,133.24,-167.39,1785097019271.763
0.129,-0.482,-0.875,-19.2,139.1,-159.12,1785097019272.034
0.294,-0.403,-0.761,-8.97,144.14,-152.47,1785097019272.3079
0.41,-0.344,-0.626,3.14,143.41,-146.06,1785097019272.5671
0.495,-0.3,-0.527,17.7,135.29,-136.33,1785097019272.8372
0.611,-0.269,-0.465,40.35,125.34,-128.39,1785097019273.132
0.675,-0.224,-0.495,62.9,116.4,-126.44,1785097019273.4092
0.702,-0.176,-0.509,67.02,115.48,-124.7,1785097019273.673
0.821,-0.113,-0.472,55.21,119.57,-125.34,1785097019273.944
0.816,-0.066,-0.422,37.2,122.75,-126.19,1785097019274.2158
0.846,-0.045,-0.377,15.63,129.31,-124.24,1785097019274.487
0.915,0.013,-0.322,-8.94,135.99,-125.74,1785097019274.75
0.983,0.049,-0.257,-29.6,140.17,-126.65,1785097019275.024
1.056,-0.008,-0.237,-45.41,143.38,-124.42,1785097019275.3
1.091,0.031,-0.197,-57.68,145.42,-123.63,1785097019275.5789
1.1,-0.01,-0.148,-64.06,145.85,-114.75,1785097019275.864
1.114,-0.021,-0.099,-66.81,147.92,-113.99,1785097019276.1282
1.149,0.063,-0.062,-65.4,148.84,-112.4,1785097019276.401
1.127,0.061,0.03,-65.13,146.09,-104.07,1785097019276.667
1.154,0.115,0.106,-59.88,143.19,-105.01,1785097019276.9312
1.167,0.163,0.185,-51.94,140.45,-106.94,1785097019277.196
1.18,0.192,0.274,-46.72,136.81,-108.01,1785097019277.463
1.161,0.236,0.358,-43.76,132.6,-109.07,1785097019277.715
1.148,0.279,0.426,-42.76,126.68,-109.13,1785097019277.961
1.121,0.348,0.478,-45.17,120.55,-108.92,1785097019278.2058
1.071,0.417,0.526,-45.32,113.1,-108.46,1785097019278.461
1.033,0.472,0.562,-38.48,104.8,-106.66,1785097019278.7002
1.036,0.574,0.575,-28.66,97.23,-103.7,1785097019278.94
1.024,0.69,0.6,-15.35,88.17,-97.38,1785097019279.186
1.026,0.805,0.626,5.52,76.78,-87.37,1785097019279.4248
1.04,0.902,0.627,33.97,62.65,-74.13,1785097019279.662
1.029,0.97,0.627,62.96,45.63,-57.1,1785097019279.9028
1.023,0.974,0.618,88.47,27.99,-37.72,1785097019280.144
1.017,0.915,0.577,106.27,12.97,-22.22,1785097019280.3892
0.993,0.824,0.527,108.1,0.03,-10.5,1785097019280.6257
0.996,0.762,0.494,93.51,-11.75,0.55,1785097019280.863
1.001,0.743,0.449,69.43,-23.07,10.86,1785097019281.1023
0.994,0.746,0.42,42.3,-30.7,20.08,1785097019281.3352
0.995,0.746,0.396,18.16,-38.94,32.84,1785097019281.5737
1.012,0.758,0.368,4.36,-47.7,47.52,1785097019281.8088
1.015,0.783,0.341,-0.98,-57.22,60.55,1785097019282.045
1.016,0.778,0.312,-1.16,-66.07,74.37,1785097019282.2761
1.014,0.734,0.292,3.39,-73.0,87.37,1785097019282.512
1.008,0.672,0.272,8.79,-79.78,98.57,1785097019282.745
1.011,0.603,0.244,10.77,-86.49,109.71,1785097019282.979
1.014,0.523,0.215,7.45,-92.23,120.67,1785097019283.2158
0.983,0.456,0.183,-0.64,-97.51,130.62,1785097019283.4548
0.939,0.387,0.135,-13.55,-104.86,141.06,1785097019283.6868
0.897,0.353,0.098,-28.6,-113.53,148.29,1785097019283.9092
0.848,0.303,0.036,-43.92,-122.84,151.16,1785097019284.1357
0.813,0.265,-0.037,-58.35,-130.04,148.99,1785097019284.3662
0.771,0.243,-0.097,-69.37,-136.91,144.2,1785097019284.6038
0.73,0.209,-0.154,-76.24,-144.66,141.79,1785097019284.843
0.693,0.185,-0.198,-77.55,-154.67,142.77,1785097019285.069
0.654,0.191,-0.216,-73.92,-166.3,146.46,1785097019285.3032
0.579,0.178,-0.24,-63.97,-180.49,155.0,1785097019285.5588
0.458,0.165,-0.267,-52.31,-196.26,165.29,1785097019285.7852
0.324,0.178,-0.254,-40.22,-212.71,176.46,1785097019286.0532
0.161,0.142,-0.245,-21.64,-230.45,188.79,1785097019286.3271
-0.04,0.056,-0.269,0.7,-247.75,197.39,1785097019286.5852
-0.227,-0.037,-0.412,23.65,-260.48,200.54,1785097019286.81
-0.362,-0.146,-0.663,40.1,-261.97,200.54,1785097019287.0422
-0.456,-0.309,-0.897,37.29,-260.48,198.61,1785097019287.274
-0.497,-0.48,-1.154,17.79,-263.25,193.61,1785097019287.503
-0.523,-0.634,-1.437,-6.04,-262.95,185.71,1785097019287.727
-0.598,-0.777,-1.73,-23.62,-252.14,174.17,1785097019287.9622
-0.661,-0.965,-2.056,-33.94,-230.02,161.05,1785097019288.198
-0.692,-1.092,-2.306,-46.85,-192.45,145.42,1785097019288.424
-0.632,-1.095,-2.288,-63.97,-147.56,129.52,1785097019288.655
-0.427,-1.047,-2.07,-71.84,-106.14,107.55,1785097019288.903
-0.174,-1.053,-1.771,-62.56,-67.14,68.82,1785097019289.139
-0.05,-1.064,-1.436,-43.34,-33.66,15.2,1785097019289.3628
-0.048,-1.041,-1.144,-18.52,-6.68,-34.58,1785097019289.5789
-0.016,-1.028,-1.038,13.98,15.87,-72.02,1785097019289.797
0.035,-0.989,-1.094,44.47,36.13,-102.42,1785097019290.008
0.049,-0.89,-1.205,61.13,52.22,-126.56,1785097019290.23
0.049,-0.89,-1.205,58.75,64.42,-143.86,1785097019290.447
0.039,-0.771,-1.362,39.86,77.76,-155.03,1785097019290.6758
0.017,-0.667,-1.488,16.39,89.45,-160.01,1785097019290.9
0.026,-0.633,-1.513,-3.33,101.38,-161.9,1785097019291.1182
0.108,-0.665,-1.514,-3.33,101.38,-161.9,1785097019291.344
0.157,-0.635,-1.358,-12.15,127.99,-156.71,1785097019291.7659
0.157,-0.604,-1.277,-0.18,139.68,-152.81,1785097019291.9739
-0.82,-0.326,-0.424,5.19,3.45,-2.56,1785097019292.274
-0.819,-0.328,-0.427,5.68,3.48,-3.05,1785097019292.4822
-0.822,-0.33,-0.433,6.01,3.75,-3.6,1785097019292.6929
-0.826,-0.328,-0.435,6.65,3.88,-4.36,1785097019292.895
-0.825,-0.326,-0.435,7.72,3.91,-5.28,1785097019299.37
-0.826,-0.321,-0.434,8.7,3.81,-5.98,1785097019309.707
-0.824,-0.314,-0.435,9.13,3.97,-5.89,1785097019320.087
-0.821,-0.311,-0.437,9.25,4.46,-5.65,1785097019333.3518
-0.82,-0.31,-0.439,9.09,4.52,-5.98,1785097019338.76
-0.824,-0.309,-0.436,8.27,4.06,-6.71,1785097019349.04
-0.822,-0.313,-0.428,7.08,3.69,-6.74,1785097019359.436
-0.821,-0.319,-0.42,6.35,3.69,-6.71,1785097019369.879
-0.819,-0.321,-0.423,7.02,3.48,-6.93,1785097019383.067
-0.821,-0.316,-0.433,7.23,2.9,-6.96,1785097019388.4868
-0.824,-0.304,-0.435,6.47,2.38,-6.59,1785097019398.7761
-0.826,-0.299,-0.433,5.83,1.86,-5.95,1785097019409.146
-0.825,-0.299,-0.438,4.18,1.16,-6.01,1785097019419.5708
-0.821,-0.3,-0.437,2.93,1.07,-6.23,1785097019429.961
-0.82,-0.313,-0.435,3.63,1.34,-6.07,1785097019443.226
-0.825,-0.317,-0.435,4.06,1.1,-6.47,1785097019448.739
-0.828,-0.313,-0.437,2.08,0.31,-5.77,1785097019458.9287
-0.824,-0.313,-0.44,-0.85,0.27,-3.97,1785097019469.201
-0.82,-0.321,-0.445,-2.87,0.58,-2.96,1785097019479.741
-0.827,-0.325,-0.44,-3.88,0.06,-2.87,1785097019490.2131
-0.826,-0.32,-0.434,-4.55,-0.82,-1.59,1785097019503.4932
-0.814,-0.316,-0.433,-4.43,-0.64,-0.52,1785097019509.068
-0.814,-0.309,-0.43,-3.05,-0.73,-0.95,1785097019519.1538
-0.813,-0.308,-0.434,-1.74,-1.31,-1.07,1785097019529.3948
-0.808,-0.308,-0.44,-2.08,-1.56,-1.59,1785097019539.8618
-0.803,-0.311,-0.45,-2.26,-0.89,-2.5,1785097019550.2478
-0.799,-0.324,-0.454,-1.95,0.18,-2.93,1785097019563.606
-0.801,-0.331,-0.457,-2.38,0.67,-3.51,1785097019569.1453
-0.807,-0.324,-0.448,-3.45,0.67,-3.27,1785097019579.294
-0.805,-0.319,-0.441,-4.03,0.27,-2.32,1785097019589.539
-0.806,-0.317,-0.441,-3.97,0.67,-2.17,1785097019599.953
-0.814,-0.328,-0.442,-3.14,1.31,-2.9,1785097019610.2898
-0.823,-0.334,-0.441,-2.14,1.62,-3.36,1785097019623.5708
-0.825,-0.329,-0.433,-1.07,1.77,-2.66,1785097019629.448
-0.823,-0.322,-0.432,0.92,1.71,-1.8,1785097019639.222
-0.819,-0.323,-0.436,2.66,2.32,-1.46,1785097019649.623
-0.822,-0.326,-0.439,3.36,2.62,-2.01,1785097019660.002
-0.827,-0.327,-0.442,3.23,2.62,-1.86,1785097019670.1172
-0.826,-0.331,-0.436,3.11,2.93,-0.89,1785097019683.632
-0.828,-0.335,-0.429,4.0,3.17,-0.31,1785097019689.26
-0.832,-0.335,-0.427,5.25,3.14,-0.09,1785097019699.346
-0.833,-0.332,-0.426,6.23,3.05,0.27,1785097019709.708
-0.836,-0.323,-0.418,6.68,2.78,0.79,1785097019720.0498
-0.835,-0.316,-0.408,7.26,2.23,1.22,1785097019733.3638
-0.831,-0.322,-0.414,8.42,2.04,0.58,1785097019738.9949
-0.839,-0.325,-0.428,8.64,2.26,-0.18,1785097019749.039
-0.844,-0.327,-0.437,7.48,2.66,-0.34,1785097019759.357
-0.841,-0.326,-0.431,6.26,2.96,-0.37,1785097019769.757
-0.828,-0.331,-0.419,6.9,3.05,-0.03,1785097019780.214
-0.813,-0.339,-0.419,8.94,3.36,-0.67,1785097019793.413
-0.813,-0.334,-0.425,10.04,3.63,-1.46,1785097019799.238
-0.813,-0.328,-0.428,9.89,3.88,-0.92,1785097019809.201
-0.814,-0.322,-0.418,10.07,3.97,-0.27,1785097019819.699
-0.817,-0.314,-0.414,11.08,3.69,-0.64,1785097019830.2068
-0.815,-0.312,-0.418,11.87,3.45,-1.13,1785097019843.379
-0.81,-0.313,-0.426,11.87,3.42,-1.37,1785097019849.2659
-0.818,-0.315,-0.43,11.23,3.6,-1.56,1785097019859.288
-0.823,-0.315,-0.427,10.44,3.51,-0.98,1785097019869.7312
-0.821,-0.315,-0.42,10.16,3.08,0.12,1785097019880.259
-0.82,-0.31,-0.416,10.56,2.56,0.92,1785097019893.77
-0.818,-0.309,-0.418,10.71,2.26,1.71,1785097019899.5352
-0.816,-0.316,-0.42,10.59,2.04,2.32,1785097019909.423
-0.819,-0.318,-0.415,9.8,1.56,2.84,1785097019919.843
-0.818,-0.316,-0.407,9.09,0.85,3.69,1785097019930.2559
-0.814,-0.32,-0.41,9.22,-0.03,4.46,1785097019943.409
-0.818,-0.316,-0.419,8.55,-0.49,4.97,1785097019949.1782
-0.821,-0.319,-0.422,7.39,-0.49,5.83,1785097019959.0652
-0.822,-0.322,-0.422,6.47,-0.98,6.32,1785097019969.46
-0.824,-0.318,-0.416,5.62,-1.71,6.78,1785097019979.9668
-0.823,-0.323,-0.418,5.43,-2.2,7.63,1785097019990.227
-0.823,-0.326,-0.421,5.22,-2.56,8.12,1785097020003.526
-0.823,-0.326,-0.417,4.79,-2.84,8.67,1785097020008.645
-0.821,-0.331,-0.413,4.97,-3.23,8.76,1785097020019.1182
-0.82,-0.331,-0.412,5.49,-3.63,8.73,1785097020029.613
-0.824,-0.328,-0.415,5.31,-3.88,8.88,1785097020039.906
-0.82,-0.332,-0.419,4.55,-3.88,9.16,1785097020050.386
-0.823,-0.335,-0.421,3.66,-3.78,8.88,1785097020063.654
-0.822,-0.34,-0.418,3.51,-4.0,8.73,1785097020069.1997
-0.824,-0.342,-0.421,3.57,-4.09,8.45,1785097020079.318
-0.827,-0.341,-0.419,3.39,-4.18,8.79,1785097020089.629
-0.826,-0.342,-0.414,3.75,-4.49,9.13,1785097020099.977
-0.822,-0.338,-0.416,4.15,-4.82,8.79,1785097020110.378
-0.819,-0.335,-0.422,4.15,-4.49,8.55,1785097020123.659
-0.816,-0.335,-0.422,3.72,-4.52,8.55,1785097020129.519
-0.818,-0.341,-0.425,3.39,-4.43,8.0,1785097020139.377
-0.825,-0.342,-0.417,2.9,-4.39,7.75,1785097020149.6848
-0.83,-0.338,-0.409,2.59,-4.67,8.39,1785097020160.136
-0.826,-0.339,-0.41,2.93,-4.67,8.91,1785097020173.31
-0.823,-0.338,-0.412,3.02,-4.33,8.73,1785097020178.9583
-0.819,-0.347,-0.415,3.54,-3.81,7.87,1785097020189.0
-0.822,-0.353,-0.419,4.18,-3.3,7.17,1785097020199.3333
-0.828,-0.355,-0.412,4.61,-2.99,7.72,1785097020209.7212
-0.83,-0.356,-0.411,5.31,-3.11,7.93,1785097020220.169
-0.83,-0.357,-0.408,6.07,-3.39,7.69,1785097020233.376
-0.83,-0.359,-0.407,6.68,-3.85,7.39,1785097020239.0798
-0.832,-0.349,-0.412,6.71,-4.03,7.23,1785097020249.1729
-0.829,-0.343,-0.414,6.56,-3.91,7.45,1785097020259.4968
-0.83,-0.343,-0.416,6.32,-4.03,6.9,1785097020269.824
-0.827,-0.341,-0.409,5.58,-4.46,6.23,1785097020280.18
-0.824,-0.345,-0.408,4.88,-4.88,5.4,1785097020293.499
-0.827,-0.343,-0.413,3.91,-5.01,4.85,1785097020299.23
-0.83,-0.343,-0.416,2.17,-5.25,5.01,1785097020309.243
-0.827,-0.345,-0.414,0.49,-5.65,4.39,1785097020319.5242
-0.825,-0.342,-0.413,-0.82,-5.86,3.69,1785097020329.89
-0.821,-0.342,-0.407,-1.37,-5.86,3.57,1785097020340.262
-0.82,-0.343,-0.408,-1.5,-5.83,3.57,1785097020353.507
-0.824,-0.344,-0.407,-1.95,-5.71,3.33,1785097020359.1309
-0.827,-0.347,-0.408,-2.69,-5.86,2.69,1785097020369.203
-0.828,-0.35,-0.408,-3.11,-5.98,2.17,1785097020379.563
-0.829,-0.349,-0.404,-3.2,-6.07,2.26,1785097020389.926
-0.828,-0.348,-0.402,-2.93,-5.86,2.72,1785097020400.3188
-0.829,-0.351,-0.4,-2.04,-5.52,2.35,1785097020413.595
-0.83,-0.357,-0.4,-0.98,-5.52,1.74,1785097020419.2068
-0.832,-0.353,-0.402,-0.55,-5.25,1.4,1785097020429.3088
-0.834,-0.349,-0.399,-0.34,-4.91,1.8,1785097020439.857
-0.837,-0.349,-0.394,0.24,-4.88,1.68,1785097020450.0852
-0.836,-0.345,-0.393,0.49,-5.13,0.79,1785097020460.413
-0.836,-0.345,-0.393,0.7,-4.85,0.21,1785097020473.7122
-0.833,-0.349,-0.399,0.58,-4.67,-0.46,1785097020479.763
-0.834,-0.35,-0.399,0.7,-4.27,-0.79,1785097020489.343
-0.832,-0.354,-0.395,1.25,-4.15,-1.25,1785097020499.794
-0.833,-0.355,-0.398,1.59,-4.15,-1.68,1785097020510.102
-0.834,-0.348,-0.398,1.59,-4.15,-1.68,1785097020523.377
-0.835,-0.346,-0.396,2.14,-3.88,-1.95,1785097020529.322
-0.838,-0.344,-0.398,2.17,-3.69,-2.56,1785097020539.001
-0.84,-0.339,-0.398,1.68,-3.72,-3.54,1785097020549.4028
-0.84,-0.338,-0.402,1.07,-4.12,-3.91,1785097020559.889
-0.845,-0.335,-0.398,-0.21,-4.21,-3.94,1785097020570.187
-0.844,-0.339,-0.397,-0.73,-4.43,-4.09,1785097020583.416
-0.845,-0.336,-0.401,-1.43,-4.7,-5.19,1785097020589.0369
-0.845,-0.327,-0.401,-2.41,-4.49,-5.46,1785097020599.112
-0.843,-0.334,-0.404,-3.17,-4.18,-5.55,1785097020609.512
-0.84,-0.337,-0.404,-3.51,-3.97,-5.86,1785097020619.8909
-0.84,-0.337,-0.401,-3.14,-3.81,-5.86,1785097020630.2842
-0.842,-0.333,-0.401,-2.53,-3.78,-5.86,1785097020643.48
-0.839,-0.333,-0.398,-2.01,-3.66,-5.89,1785097020649.249
-0.836,-0.332,-0.395,-1.43,-3.51,-6.16,1785097020659.2031
-0.839,-0.328,-0.395,-0.92,-3.33,-5.95,1785097020669.567
-0.833,-0.327,-0.398,-0.7,-3.08,-5.49,1785097020680.017
-0.833,-0.322,-0.399,-0.61,-2.75,-5.8,1785097020690.302
-0.833,-0.323,-0.398,-0.27,-2.47,-5.62,1785097020703.5752
-0.842,-0.319,-0.394,-0.61,-2.5,-5.4,1785097020709.3271
-0.846,-0.318,-0.393,-0.89,-2.29,-5.22,1785097020719.293
-0.851,-0.321,-0.394,-1.37,-2.44,-5.83,1785097020729.713
-0.855,-0.318,-0.396,-2.69,-2.17,-5.71,1785097020739.9832
-0.852,-0.322,-0.394,-2.99,-1.4,-4.94,1785097020750.397
-0.854,-0.324,-0.392,-2.23,-1.37,-4.7,1785097020763.815
-0.855,-0.325,-0.387,-1.5,-1.5,-4.76,1785097020769.309
-0.851,-0.328,-0.385,-0.95,-1.56,-4.97,1785097020779.43
-0.848,-0.331,-0.385,-0.82,-1.89,-5.04,1785097020789.709
-0.844,-0.33,-0.388,-1.01,-2.04,-4.7,1785097020800.092
-0.84,-0.33,-0.387,-1.25,-1.89,-4.24,1785097020813.434
-0.838,-0.327,-0.389,-1.28,-1.65,-4.03,1785097020819.01
-0.839,-0.319,-0.384,-1.34,-1.74,-3.57,1785097020829.154
-0.837,-0.315,-0.382,-1.37,-1.86,-3.23,1785097020839.362
-0.836,-0.314,-0.378,-1.37,-1.89,-3.17,1785097020849.7332
-0.837,-0.316,-0.376,-1.65,-1.92,-3.05,1785097020860.191
-0.839,-0.319,-0.378,-1.92,-1.74,-3.17,1785097020873.378
-0.841,-0.323,-0.379,-1.95,-1.53,-3.33,1785097020879.231
-0.841,-0.322,-0.38,-2.17,-1.4,-3.17,1785097020889.063
-0.838,-0.326,-0.376,-2.01,-1.34,-2.66,1785097020899.4592
-0.837,-0.331,-0.376,-1.16,-1.31,-2.38,1785097020909.826
-0.839,-0.333,-0.372,-0.67,-1.19,-2.01,1785097020920.227
-0.839,-0.332,-0.372,0.15,-1.01,-1.4,1785097020933.4668
-0.843,-0.334,-0.371,1.13,-0.64,-1.13,1785097020939.096
-0.848,-0.335,-0.372,1.89,-0.67,-1.25,1785097020949.255
-0.849,-0.334,-0.372,2.14,-0.76,-1.31,1785097020959.527
-0.851,-0.331,-0.368,2.38,-0.89,-0.92,1785097020969.902
-0.85,-0.33,-0.365,2.78,-0.89,-0.55,1785097020980.308
-0.853,-0.328,-0.363,3.23,-0.85,-0.55,1785097020993.518
-0.852,-0.33,-0.364,3.39,-0.85,-0.76,1785097020999.241
-0.85,-0.33,-0.363,3.6,-0.76,-1.1,1785097021009.2402
-0.849,-0.335,-0.365,4.0,-0.55,-1.37,1785097021019.6062
-0.851,-0.334,-0.364,4.09,-0.4,-1.65,1785097021030.1519
-0.851,-0.332,-0.364,4.18,-0.31,-1.56,1785097021040.3408
-0.847,-0.333,-0.364,4.33,-0.24,-1.65,1785097021053.659
-0.847,-0.333,-0.362,4.49,-0.21,-1.62,1785097021059.244
-0.848,-0.332,-0.359,5.04,-0.03,-1.28,1785097021069.282
-0.849,-0.33,-0.357,5.77,-0.09,-1.07,1785097021079.7188
-0.846,-0.331,-0.356,6.59,-0.18,-0.95,1785097021090.0413
-0.846,-0.331,-0.359,7.26,-0.27,-1.04,1785097021100.446
-0.851,-0.328,-0.361,7.11,-0.49,-0.64,1785097021113.85
-0.854,-0.323,-0.362,6.71,-0.64,0.0,1785097021119.4
-0.854,-0.324,-0.363,6.53,-0.7,0.4,1785097021129.434
-0.852,-0.325,-0.368,6.44,-0.7,0.46,1785097021139.714
-0.849,-0.326,-0.37,6.62,-0.73,0.67,1785097021150.109
-0.85,-0.328,-0.368,6.74,-0.85,1.22,1785097021163.455
-0.846,-0.328,-0.364,6.96,-1.07,1.77,1785097021168.9912
-0.846,-0.326,-0.362,7.39,-1.22,1.92,1785097021179.0369
-0.847,-0.324,-0.368,7.35,-1.31,2.41,1785097021189.3972
-0.849,-0.322,-0.372,6.71,-1.31,2.75,1785097021199.8347
-0.85,-0.323,-0.375,6.23,-1.34,2.87,1785097021210.1619
-0.85,-0.324,-0.38,5.89,-1.5,2.99,1785097021223.4011
-0.851,-0.322,-0.381,5.37,-1.56,3.39,1785097021229.081
-0.851,-0.324,-0.385,5.1,-1.71,3.91,1785097021239.1438
-0.856,-0.326,-0.387,4.46,-1.83,3.94,1785097021249.4668
-0.858,-0.326,-0.389,3.48,-1.95,4.15,1785097021259.8828
-0.855,-0.324,-0.389,2.59,-2.08,4.55,1785097021270.2542
-0.852,-0.325,-0.39,2.35,-2.2,4.7,1785097021283.4539
-0.849,-0.328,-0.392,1.98,-2.23,4.7,1785097021289.148
-0.847,-0.33,-0.391,1.65,-1.98,4.97,1785097021299.156
-0.845,-0.331,-0.388,1.71,-1.89,5.1,1785097021309.576
-0.841,-0.331,-0.39,1.98,-1.62,5.55,1785097021319.993
-0.841,-0.333,-0.388,2.23,-1.19,6.04,1785097021330.346
-0.84,-0.334,-0.389,2.56,-0.95,6.26,1785097021343.641
-0.84,-0.333,-0.388,2.84,-0.7,6.62,1785097021349.2998
-0.839,-0.333,-0.385,3.33,-0.4,7.17,1785097021359.2341
-0.839,-0.336,-0.388,4.0,-0.15,7.42,1785097021369.658
-0.84,-0.338,-0.387,4.46,0.18,7.57,1785097021379.9932
-0.84,-0.339,-0.386,4.76,0.37,7.72,1785097021390.349
-0.844,-0.341,-0.385,4.85,0.4,7.9,1785097021403.596
-0.844,-0.34,-0.384,4.61,0.58,8.06,1785097021409.2578
-0.841,-0.345,-0.382,4.43,0.73,8.12,1785097021419.317
-0.837,-0.347,-0.382,4.27,0.95,7.81,1785097021429.6802
-0.836,-0.349,-0.38,4.3,1.37,7.69,1785097021440.032
-0.837,-0.352,-0.375,4.46,1.74,7.6,1785097021453.3132
-0.841,-0.355,-0.37,5.16,2.14,7.32,1785097021458.997
-0.842,-0.358,-0.365,6.23,2.35,6.78,1785097021468.763
-0.841,-0.361,-0.367,7.54,2.87,6.16,1785097021479.409
-0.842,-0.358,-0.369,8.39,3.23,5.49,1785097021489.6829
-0.844,-0.357,-0.369,8.94,3.39,5.16,1785097021500.192
-0.844,-0.357,-0.369,9.31,3.75,4.46,1785097021513.4639
-0.845,-0.356,-0.368,9.61,3.81,3.97,1785097021519.051
-0.844,-0.357,-0.366,9.7,3.94,3.6,1785097021529.149
-0.844,-0.356,-0.365,9.83,3.94,2.96,1785097021539.467
-0.844,-0.355,-0.365,9.86,3.97,2.69,1785097021549.824
-0.843,-0.353,-0.364,9.7,3.94,2.56,1785097021560.1978
-0.843,-0.352,-0.36,9.43,3.85,2.29,1785097021573.505
-0.841,-0.355,-0.357,9.16,3.69,1.92,1785097021579.341
-0.841,-0.358,-0.356,8.79,3.54,1.65,1785097021589.1929
-0.841,-0.358,-0.357,8.58,3.2,1.37,1785097021599.513
-0.838,-0.363,-0.361,8.73,2.99,0.89,1785097021609.92
-0.843,-0.365,-0.361,8.51,2.99,0.21,1785097021620.327
-0.846,-0.363,-0.361,8.64,2.96,0.15,1785097021633.599
-0.847,-0.363,-0.365,8.79,2.84,0.12,1785097021639.2031
-0.85,-0.358,-0.366,8.3,2.47,-0.18,1785097021649.3098
-0.849,-0.355,-0.364,7.35,2.14,-0.43,1785097021659.62
-0.846,-0.354,-0.361,6.47,1.77,-0.82,1785097021670.04
-0.848,-0.353,-0.362,5.71,1.56,-1.28,1785097021680.401
-0.847,-0.352,-0.366,4.7,1.5,-1.83,1785097021693.6318
-0.849,-0.353,-0.37,3.72,1.4,-2.59,1785097021699.327
-0.854,-0.35,-0.371,3.05,1.31,-3.11,1785097021709.3079
-0.855,-0.346,-0.374,2.11,1.25,-3.54,1785097021719.715
-0.856,-0.342,-0.372,0.85,1.07,-3.85,1785097021730.134
-0.854,-0.342,-0.373,-0.55,0.67,-3.85,1785097021740.428
-0.854,-0.342,-0.373,-1.65,0.76,-3.81,1785097021753.6929
-0.848,-0.343,-0.376,-2.47,0.95,-3.66,1785097021759.35
-0.843,-0.344,-0.376,-2.69,0.92,-3.39,1785097021769.378
-0.839,-0.346,-0.372,-2.29,0.82,-2.87,1785097021779.81
-0.841,-0.348,-0.368,-1.95,0.61,-2.11,1785097021790.219
-0.843,-0.345,-0.37,-1.95,0.61,-2.11,1785097021803.353
-0.845,-0.34,-0.367,-1.74,0.46,-1.43,1785097021808.979
-0.844,-0.337,-0.367,-1.65,0.21,-0.85,1785097021819.0342
-0.842,-0.337,-0.369,-1.83,0.15,-0.37,1785097021829.5989
-0.839,-0.342,-0.371,-1.83,0.12,-0.12,1785097021839.791
-0.84,-0.344,-0.371,-1.74,0.27,0.27,1785097021850.1912
-0.84,-0.346,-0.371,-1.62,0.24,0.49,1785097021863.544
-0.845,-0.35,-0.372,-1.68,0.27,0.61,1785097021869.122
-0.848,-0.352,-0.373,-1.77,0.15,0.52,1785097021879.266
-0.849,-0.352,-0.374,-1.46,0.15,0.58,1785097021889.497
-0.852,-0.351,-0.373,-1.16,0.18,0.64,1785097021899.937
-0.852,-0.349,-0.372,-0.89,0.06,0.61,1785097021910.238
-0.851,-0.346,-0.371,-0.85,-0.09,0.46,1785097021923.5032
-0.85,-0.343,-0.371,-1.4,-0.21,0.18,1785097021929.391
-0.851,-0.344,-0.375,-1.89,-0.24,-0.09,1785097021939.166
-0.854,-0.345,-0.379,-2.47,-0.24,-0.52,1785097021949.555
-0.851,-0.346,-0.381,-3.48,-0.27,-0.89,1785097021959.9712
-0.844,-0.348,-0.382,-4.06,-0.09,-1.13,1785097021970.325
-0.839,-0.347,-0.383,-4.06,0.12,-1.5,1785097021983.631
-0.839,-0.344,-0.384,-4.03,0.34,-1.53,1785097021989.2402
-0.838,-0.343,-0.385,-3.97,0.64,-1.53,1785097021999.261
-0.84,-0.341,-0.383,-4.12,0.98,-1.8,1785097022009.656
-0.84,-0.337,-0.381,-4.18,0.85,-1.65,1785097022020.037
-0.835,-0.334,-0.377,-3.91,0.95,-1.53,1785097022030.405
-0.835,-0.334,-0.378,-3.57,1.22,-1.68,1785097022043.664
-0.833,-0.338,-0.383,-3.48,1.62,-1.71,1785097022049.3992
-0.835,-0.34,-0.385,-3.36,1.95,-1.83,1785097022059.298
-0.839,-0.342,-0.383,-3.02,2.2,-1.8,1785097022069.7
-0.843,-0.338,-0.381,-2.66,2.32,-1.59,1785097022080.1868
-0.844,-0.336,-0.381,-2.23,2.44,-1.13,1785097022093.3179
-0.846,-0.335,-0.384,-1.86,2.56,-0.98,1785097022099.086
-0.847,-0.336,-0.382,-1.59,2.66,-1.01,1785097022109.01
-0.848,-0.336,-0.381,-1.5,2.84,-1.16,1785097022119.389
-0.85,-0.336,-0.383,-1.59,2.75,-0.92,1785097022129.869
-0.846,-0.34,-0.381,-1.62,2.56,-0.7,1785097022140.158
-0.844,-0.336,-0.378,-1.5,2.17,-0.73,1785097022153.386
-0.84,-0.329,-0.373,-1.46,1.83,-0.55,1785097022159.029
-0.835,-0.326,-0.375,-1.86,1.62,-0.31,1785097022169.145
-0.834,-0.324,-0.376,-2.38,1.5,-0.43,1785097022179.48
-0.833,-0.326,-0.378,-2.81,1.5,-0.85,1785097022189.813
-0.833,-0.33,-0.372,-3.3,1.59,-1.37,1785097022200.222
-0.835,-0.334,-0.37,-3.2,1.5,-1.31,1785097022213.472
-0.833,-0.335,-0.368,-2.72,1.13,-1.07,1785097022219.0918
-0.834,-0.333,-0.368,-2.04,0.89,-1.07,1785097022229.2
-0.835,-0.329,-0.37,-1.56,0.61,-0.76,1785097022239.5251
-0.833,-0.324,-0.368,-1.65,0.06,-0.46,1785097022249.9321
-0.832,-0.32,-0.366,-1.77,-0.4,-0.03,1785097022260.76
-0.83,-0.32,-0.366,-2.08,-0.82,0.03,1785097022273.6157
-0.829,-0.321,-0.362,-2.17,-1.19,0.46,1785097022279.348
-0.827,-0.325,-0.36,-2.2,-1.62,0.82,1785097022289.2458
-0.829,-0.329,-0.362,-2.17,-1.95,1.34,1785097022299.5952
-0.833,-0.33,-0.363,-1.77,-2.08,1.92,1785097022309.9893
-0.837,-0.331,-0.361,-1.1,-2.26,2.53,1785097022320.328
-0.838,-0.333,-0.362,-0.31,-2.84,3.3,1785097022333.618
-0.835,-0.33,-0.362,0.31,-3.36,4.12,1785097022339.278
-0.831,-0.328,-0.364,0.85,-3.72,4.82,1785097022349.3171
-0.834,-0.327,-0.368,0.76,-4.15,5.07,1785097022359.679
-0.835,-0.332,-0.37,0.34,-4.61,5.37,1785097022370.073
-0.842,-0.339,-0.372,-0.21,-5.01,5.22,1785097022380.448
-0.847,-0.343,-0.371,-0.46,-5.4,5.22,1785097022393.6902
-0.846,-0.345,-0.369,-0.15,-5.65,5.19,1785097022399.294
-0.844,-0.346,-0.372,0.55,-5.98,5.1,1785097022409.3308
-0.84,-0.345,-0.374,1.13,-6.16,4.82,1785097022419.7332
-0.841,-0.345,-0.377,1.1,-6.29,4.36,1785097022430.161
-0.84,-0.347,-0.378,1.04,-6.29,3.94,1785097022443.3333
-0.84,-0.348,-0.383,0.92,-6.26,3.27,1785097022449.1428
-0.843,-0.348,-0.381,0.64,-6.44,2.66,1785097022459.022
-0.841,-0.348,-0.382,0.12,-6.78,2.23,1785097022469.2202
-0.838,-0.348,-0.384,-0.18,-6.99,1.8,1785097022479.733
-0.836,-0.349,-0.382,-0.15,-6.9,1.34,1785097022490.187
-0.833,-0.354,-0.382,0.27,-7.02,0.7,1785097022503.459
-0.834,-0.365,-0.384,0.89,-7.2,-0.15,1785097022509.115
-0.837,-0.382,-0.38,2.53,-7.17,-1.13,1785097022519.173
-0.839,-0.4,-0.376,6.38,-7.05,-2.04,1785097022529.59
-0.842,-0.406,-0.374,11.66,-6.9,-2.11,1785097022539.9602
-0.839,-0.406,-0.378,17.58,-6.56,-1.92,1785097022550.457
-0.832,-0.401,-0.384,23.01,-5.95,-2.23,1785097022563.745
-0.826,-0.4,-0.385,27.8,-5.01,-3.08,1785097022569.545
-0.824,-0.407,-0.383,32.23,-3.97,-4.3,1785097022579.746
-0.818,-0.421,-0.385,36.38,-3.27,-5.74,1785097022590.198
-0.806,-0.438,-0.391,41.08,-2.75,-7.26,1785097022603.369
-0.8,-0.459,-0.395,45.84,-2.17,-8.79,1785097022609.19
-0.796,-0.476,-0.4,50.42,-1.43,-10.1,1785097022619.4
-0.792,-0.493,-0.405,55.02,-0.58,-11.51,1785097022629.992
-0.79,-0.504,-0.411,59.18,0.52,-13.06,1785097022643.2349
-0.789,-0.51,-0.421,62.23,1.92,-14.83,1785097022649.152
-0.78,-0.512,-0.425,64.03,3.42,-17.33,1785097022659.3752
-0.778,-0.509,-0.435,64.67,4.43,-21.55,1785097022669.9487
-0.767,-0.516,-0.449,63.57,5.16,-25.27,1785097022683.299
-0.75,-0.526,-0.459,60.46,5.86,-27.95,1785097022689.1
-0.74,-0.539,-0.469,55.76,6.41,-31.01,1785097022699.425
-0.739,-0.558,-0.473,49.75,6.84,-34.52,1785097022709.967
-0.742,-0.589,-0.474,43.24,7.2,-38.58,1785097022723.32
-0.748,-0.624,-0.469,36.23,7.26,-43.37,1785097022729.296
-0.749,-0.654,-0.468,29.18,7.08,-48.19,1785097022739.378
-0.745,-0.671,-0.48,22.71,7.6,-52.13,1785097022749.929
-0.734,-0.671,-0.483,17.0,8.67,-55.06,1785097022763.379
-0.717,-0.672,-0.482,12.48,9.58,-58.02,1785097022769.149
-0.706,-0.68,-0.478,8.58,9.89,-61.59,1785097022779.431
-0.705,-0.694,-0.464,4.91,10.28,-64.85,1785097022789.84
-0.695,-0.711,-0.447,2.38,10.5,-67.42,1785097022800.4128
-0.681,-0.728,-0.445,1.07,10.53,-69.46,1785097022813.7651
-0.671,-0.742,-0.462,0.46,11.54,-71.6,1785097022819.633
-0.668,-0.752,-0.47,-1.04,12.76,-73.24,1785097022829.9001
-0.666,-0.761,-0.466,-4.0,13.49,-74.62,1785097022840.441
-0.659,-0.756,-0.47,-8.67,13.89,-75.9,1785097022853.6582
-0.649,-0.735,-0.474,-14.28,14.62,-75.87,1785097022859.701
-0.636,-0.72,-0.467,-18.68,15.02,-75.44,1785097022870.067
-0.625,-0.721,-0.46,-21.61,14.8,-76.48,1785097022883.29
-0.617,-0.732,-0.455,-24.45,15.2,-77.58,1785097022889.243
-0.61,-0.739,-0.444,-27.16,16.17,-78.31,1785097022899.7341
-0.605,-0.737,-0.422,-29.63,16.79,-78.1,1785097022910.357
-0.595,-0.746,-0.409,-31.22,16.94,-77.24,1785097022923.63
-0.578,-0.757,-0.41,-32.53,17.06,-77.03,1785097022929.75
-0.568,-0.762,-0.416,-33.63,16.91,-76.54,1785097022940.075
-0.561,-0.755,-0.427,-34.55,16.97,-75.2,1785097022953.342
-0.555,-0.739,-0.439,-35.55,17.49,-73.64,1785097022959.241
-0.562,-0.727,-0.45,-36.68,16.75,-72.36,1785097022969.804
-0.567,-0.707,-0.455,-39.31,15.35,-69.95,1785097022980.4712
-0.551,-0.684,-0.481,-43.64,13.89,-66.59,1785097022993.6672
-0.533,-0.652,-0.5,-51.39,12.94,-63.84,1785097022999.6692
-0.528,-0.63,-0.5,-58.57,12.39,-61.46,1785097023010.221
-0.517,-0.636,-0.49,-62.99,11.17,-57.99,1785097023023.386
-0.489,-0.638,-0.459,-64.61,9.7,-55.85,1785097023029.4521
-0.489,-0.638,-0.459,-63.33,8.51,-53.83,1785097023039.645
-0.481,-0.627,-0.436,-60.82,7.72,-50.08,1785097023050.2122
-0.461,-0.634,-0.445,-61.37,7.51,-47.79,1785097023063.585
-0.454,-0.615,-0.464,-65.37,7.57,-44.71,1785097023069.413
-0.453,-0.582,-0.49,-65.37,7.57,-44.71,1785097023079.757
-0.443,-0.569,-0.512,-71.84,6.93,-41.26,1785097023090.2112
-0.445,-0.565,-0.498,-78.95,6.81,-39.61,1785097023103.5452
-0.439,-0.59,-0.472,-81.79,6.81,-37.63,1785097023109.4192
-0.433,-0.619,-0.459,-78.86,6.56,-36.01,1785097023119.8887
-0.437,-0.614,-0.455,-71.93,7.48,-33.45,1785097023130.313
-0.438,-0.601,-0.453,-61.49,9.13,-29.91,1785097023143.911
-0.437,-0.589,-0.442,-50.2,10.56,-27.38,1785097023149.46
-0.443,-0.587,-0.433,-39.64,11.02,-25.97,1785097023159.97
-0.439,-0.587,-0.449,-31.68,11.47,-24.84,1785097023170.499
-0.434,-0.568,-0.468,-27.74,11.99,-23.65,1785097023183.7927
-0.436,-0.538,-0.486,-27.01,11.99,-21.82,1785097023189.6719
-0.444,-0.514,-0.499,-28.17,12.36,-19.07,1785097023200.219
-0.458,-0.497,-0.492,-29.94,12.94,-16.33,1785097023213.4321
-0.466,-0.49,-0.469,-30.34,13.37,-14.37,1785097023219.3699
-0.468,-0.485,-0.459,-28.26,13.95,-13.79,1785097023229.892
-0.47,-0.476,-0.448,-24.75,15.44,-13.7,1785097023243.156
-0.469,-0.482,-0.432,-20.11,17.58,-12.91,1785097023249.118
-0.473,-0.499,-0.415,-16.27,18.8,-12.09,1785097023259.615
-0.495,-0.511,-0.394,-14.25,18.34,-11.38,1785097023270.2542
-0.523,-0.526,-0.415,-12.57,17.73,-10.47,1785097023283.4949
-0.549,-0.524,-0.46,-12.45,18.43,-10.16,1785097023289.4211
-0.57,-0.516,-0.495,-13.7,19.84,-10.41,1785097023299.956
-0.591,-0.518,-0.503,-16.33,20.72,-9.95,1785097023313.227
-0.602,-0.528,-0.489,-19.26,20.91,-8.55,1785097023319.0952
-0.609,-0.527,-0.453,-20.69,20.36,-6.65,1785097023329.419
-0.611,-0.521,-0.43,-18.46,19.23,-4.36,1785097023339.9092
-0.61,-0.506,-0.409,-14.28,18.43,-2.35,1785097023353.2102
-0.612,-0.486,-0.394,-10.16,17.49,-0.64,1785097023359.102
-0.618,-0.477,-0.382,-6.65,16.57,0.24,1785097023369.3088
-0.646,-0.474,-0.375,-5.22,14.98,0.76,1785097023379.799
-0.676,-0.481,-0.398,-6.87,13.64,1.46,1785097023390.2258
-0.701,-0.499,-0.44,-10.1,13.03,2.11,1785097023403.475
-0.733,-0.513,-0.458,-14.59,13.06,3.02,1785097023409.384
-0.747,-0.519,-0.466,-20.57,12.18,5.71,1785097023419.7039
-0.75,-0.508,-0.49,-29.11,10.53,8.7,1785097023430.399
-0.756,-0.507,-0.478,-37.48,8.91,10.99,1785097023443.478
-0.772,-0.545,-0.459,-41.6,7.48,11.72,1785097023449.516
-0.794,-0.576,-0.43,-42.21,5.4,11.66,1785097023460.079
-0.812,-0.574,-0.402,-37.97,2.84,13.82,1785097023470.041
-0.811,-0.61,-0.36,-24.9,0.98,17.64,1785097023483.3423
-0.816,-0.656,-0.414,-10.77,-1.98,18.59,1785097023489.0518
-0.816,-0.593,-0.512,-11.26,-2.66,19.32,1785097023499.7593
-0.791,-0.524,-0.585,-19.23,-2.11,21.73,1785097023510.2239
-0.775,-0.522,-0.623,-26.55,-1.25,20.72,1785097023523.4858
-0.788,-0.57,-0.606,-32.56,-1.65,16.11,1785097023529.422
-0.799,-0.622,-0.575,-36.62,-3.66,12.27,1785097023539.713
-0.786,-0.653,-0.557,-35.4,-4.24,11.44,1785097023550.23
-0.768,-0.672,-0.534,-26.31,-4.43,12.12,1785097023563.5112
-0.735,-0.682,-0.555,-13.18,-5.52,11.44,1785097023569.3882
-0.703,-0.645,-0.588,-4.18,-5.4,8.85,1785097023579.621
-0.69,-0.601,-0.602,0.0,-4.73,7.08,1785097023589.871
-0.683,-0.601,-0.617,0.31,-4.09,5.65,1785097023600.271
-0.677,-0.6,-0.626,-3.63,-3.78,3.85,1785097023613.591
-0.661,-0.59,-0.641,-7.39,-3.39,2.99,1785097023619.17
-0.652,-0.578,-0.659,-9.77,-2.96,2.81,1785097023629.2942
-0.65,-0.551,-0.683,-13.52,-2.96,2.75,1785097023639.641
-0.636,-0.521,-0.694,-19.99,-3.2,3.57,1785097023650.182
-0.618,-0.507,-0.689,-27.77,-3.3,4.67,1785097023663.449
-0.606,-0.512,-0.678,-34.91,-4.64,5.74,1785097023669.276
-0.605,-0.519,-0.678,-40.68,-6.71,6.68,1785097023679.3977
-0.607,-0.518,-0.661,-42.91,-7.42,8.45,1785097023689.815
-0.618,-0.527,-0.627,-38.85,-7.93,11.14,1785097023700.363
-0.637,-0.521,-0.602,-31.22,-9.89,13.4,1785097023713.7039
-0.666,-0.486,-0.61,-22.95,-13.0,15.75,1785097023719.5159
-0.692,-0.484,-0.634,-14.13,-12.7,16.94,1785097023733.018
-0.739,-0.485,-0.662,-10.65,-11.75,14.98,1785097023743.1272
-0.765,-0.531,-0.661,-9.98,-9.28,12.18,1785097023748.7947
-0.771,-0.596,-0.7,-9.22,-5.8,7.72,1785097023759.001
-0.749,-0.647,-0.693,-3.6,0.64,2.96,1785097023769.5142
-0.732,-0.709,-0.639,13.09,4.21,1.68,1785097023780.0278
-0.748,-0.716,-0.591,32.84,4.58,3.05,1785097023793.212
-0.799,-0.693,-0.601,51.06,6.32,4.39,1785097023798.913
-0.866,-0.695,-0.634,63.88,9.86,2.38,1785097023809.1572
-0.924,-0.746,-0.669,70.16,14.8,-5.22,1785097023819.884
-1.013,-0.777,-0.684,67.84,18.77,-15.41,1785097023830.555
-1.087,-0.793,-0.7,63.6,23.32,-22.83,1785097023843.7341
-1.144,-0.803,-0.717,61.04,30.0,-31.01,1785097023849.823
-1.21,-0.791,-0.704,56.4,36.65,-42.15,1785097023860.207
-1.253,-0.786,-0.729,50.45,42.27,-55.06,1785097023873.458
-1.258,-0.778,-0.752,43.67,48.68,-67.93,1785097023879.497
-1.254,-0.769,-0.819,37.93,54.17,-79.17,1785097023889.9011
-1.208,-0.757,-0.915,30.55,60.21,-89.39,1785097023903.1858
-1.203,-0.768,-0.997,22.64,68.15,-102.15,1785097023909.101
-1.243,-0.791,-0.998,13.34,74.5,-107.91,1785097023919.819
-1.266,-0.786,-0.997,1.92,77.82,-105.44,1785097023930.498
-1.253,-0.697,-1.013,-13.55,78.1,-97.96,1785097023943.691
-1.142,-0.646,-1.016,-26.43,82.86,-90.06,1785097023949.797
-1.026,-0.721,-1.039,-36.01,89.94,-91.77,1785097023960.114
-0.964,-0.883,-1.061,-47.94,97.84,-100.53,1785097023973.3708
-0.936,-1.082,-1.089,-58.81,109.1,-107.64,1785097023979.5159
-0.949,-1.256,-1.086,-65.03,122.23,-106.05,1785097023990.273
-0.91,-1.383,-1.023,-59.51,130.44,-95.68,1785097024003.5269
-0.808,-1.378,-1.007,-44.5,135.9,-83.56,1785097024009.46
-0.707,-1.222,-1.003,-28.08,141.3,-68.0,1785097024020.3
-0.523,-1.084,-1.002,-5.22,143.74,-52.58,1785097024033.519
-0.35,-0.943,-0.993,10.74,143.5,-48.55,1785097024039.3828
-0.203,-0.771,-0.975,14.1,143.71,-48.98,1785097024050.167
-0.076,-0.621,-0.907,9.19,141.94,-51.61,1785097024063.4617
0.034,-0.556,-0.834,0.43,136.6,-58.53,1785097024069.292
0.126,-0.654,-0.786,-8.94,132.42,-70.47,1785097024079.9119
0.146,-0.834,-0.74,-22.0,130.86,-86.61,1785097024093.0837
0.145,-0.962,-0.68,-36.71,130.86,-99.37,1785097024099.0989
0.158,-0.971,-0.603,-43.92,129.09,-103.82,1785097024109.9
0.221,-0.875,-0.566,-40.25,124.52,-98.64,1785097024123.132
0.317,-0.715,-0.548,-29.42,121.4,-91.31,1785097024129.292
0.41,-0.553,-0.536,-15.78,118.87,-86.79,1785097024139.812
0.508,-0.434,-0.495,-5.31,116.73,-84.66,1785097024150.475
0.556,-0.395,-0.478,0.09,114.81,-85.12,1785097024163.834
0.557,-0.401,-0.494,-3.36,113.65,-88.23,1785097024169.688
0.548,-0.363,-0.486,-13.18,111.61,-93.36,1785097024180.324
0.526,-0.276,-0.458,-20.2,109.29,-96.19,1785097024193.518
0.534,-0.208,-0.403,-22.83,106.97,-97.29,1785097024199.478
0.569,-0.166,-0.34,-21.49,105.14,-101.54,1785097024210.3901
0.609,-0.176,-0.282,-13.37,107.3,-109.07,1785097024223.5679
0.641,-0.248,-0.227,1.28,112.77,-119.39,1785097024229.5781
