ax,ay,az,gx,gy,gz,timestamp_ms
0.427,-0.722,-0.363,10.71,-18.62,35.16,1785097213232.6091
0.423,-0.738,-0.36,13.67,-19.87,38.7,1785097213249.832
0.431,-0.749,-0.353,16.79,-20.33,44.04,1785097213250.3738
0.446,-0.752,-0.348,21.06,-18.83,47.4,1785097213250.896
0.452,-0.778,-0.355,24.9,-18.01,50.17,1785097213251.4329
0.461,-0.806,-0.356,26.98,-17.73,52.1,1785097213251.931
0.464,-0.815,-0.344,26.18,-17.03,52.34,1785097213252.3489
0.486,-0.817,-0.34,22.92,-14.31,50.54,1785097213252.762
0.503,-0.837,-0.326,17.98,-10.93,47.82,1785097213253.1729
0.507,-0.884,-0.314,11.44,-11.05,49.53,1785097213253.588
0.511,-0.915,-0.299,6.84,-12.12,51.7,1785097213254.0059
0.514,-0.922,-0.297,5.4,-11.84,51.48,1785097213254.417
0.527,-0.909,-0.307,2.44,-8.58,49.2,1785097213254.8162
0.536,-0.9,-0.311,-3.69,-6.29,46.36,1785097213255.2231
0.544,-0.921,-0.304,-10.16,-5.98,44.43,1785097213255.6191
0.544,-0.955,-0.293,-13.06,-4.94,43.24,1785097213256.0178
0.545,-0.976,-0.288,-12.42,-3.36,43.92,1785097213256.4202
0.555,-0.973,-0.286,-9.86,-1.22,46.02,1785097213256.8262
0.564,-0.954,-0.29,-7.08,0.52,46.36,1785097213257.2449
0.559,-0.923,-0.294,-6.38,1.37,44.04,1785097213257.65
0.562,-0.905,-0.286,-7.23,3.27,41.11,1785097213258.0007
0.563,-0.902,-0.278,-7.42,5.37,37.97,1785097213258.344
0.561,-0.903,-0.272,-6.59,6.84,34.42,1785097213258.816
0.559,-0.908,-0.267,-4.97,8.24,31.28,1785097213259.199
0.558,-0.904,-0.266,-3.72,9.25,28.81,1785097213259.5369
0.562,-0.904,-0.266,-2.9,9.92,26.34,1785097213259.8772
0.562,-0.912,-0.262,-2.23,9.95,24.14,1785097213260.216
0.557,-0.916,-0.26,-2.14,10.01,21.82,1785097213260.579
0.553,-0.909,-0.261,-2.99,9.74,19.56,1785097213260.9321
0.552,-0.901,-0.26,-4.52,9.25,17.55,1785097213261.271
0.552,-0.902,-0.261,-6.1,8.85,15.14,1785097213261.613
0.543,-0.91,-0.269,-7.66,7.97,11.23,1785097213261.954
0.53,-0.917,-0.275,-10.62,7.35,7.39,1785097213262.285
0.526,-0.916,-0.282,-14.37,7.02,4.27,1785097213262.625
0.522,-0.912,-0.284,-17.88,6.32,1.53,1785097213262.961
0.52,-0.907,-0.29,-20.78,5.07,-1.04,1785097213263.316
0.511,-0.902,-0.299,-23.77,3.78,-3.23,1785097213263.644
0.505,-0.901,-0.308,-27.56,2.59,-5.74,1785097213263.972
0.497,-0.892,-0.317,-32.9,1.59,-8.79,1785097213264.301
0.488,-0.88,-0.322,-39.03,0.89,-11.08,1785097213264.6301
0.482,-0.871,-0.329,-43.73,0.12,-12.48,1785097213264.9658
0.473,-0.861,-0.336,-46.91,-1.07,-13.67,1785097213265.313
0.464,-0.851,-0.346,-49.07,-2.08,-14.13,1785097213265.6582
0.462,-0.844,-0.358,-50.11,-2.84,-13.86,1785097213265.9453
0.455,-0.838,-0.37,-50.78,-3.23,-14.1,1785097213266.245
0.448,-0.833,-0.385,-51.09,-3.17,-14.53,1785097213266.5332
0.439,-0.828,-0.399,-51.15,-2.14,-15.17,1785097213266.824
0.432,-0.823,-0.41,-50.66,-1.43,-15.53,1785097213267.117
0.425,-0.819,-0.418,-49.26,-0.95,-15.84,1785097213267.4072
0.423,-0.816,-0.427,-47.67,-0.89,-15.72,1785097213267.6978
0.42,-0.813,-0.433,-47.52,-0.64,-15.53,1785097213267.984
0.41,-0.808,-0.442,-47.76,0.4,-15.5,1785097213268.274
0.406,-0.805,-0.437,-47.67,1.5,-16.02,1785097213268.5671
0.404,-0.806,-0.438,-46.33,2.26,-17.43,1785097213268.872
0.387,-0.821,-0.449,-43.92,2.26,-15.9,1785097213269.155
0.387,-0.81,-0.45,-42.57,1.19,-12.12,1785097213269.445
0.383,-0.785,-0.451,-41.02,0.15,-8.76,1785097213269.7332
0.382,-0.778,-0.46,-38.45,0.92,-6.44,1785097213270.024
0.383,-0.77,-0.476,-36.47,1.68,-5.77,1785097213270.3071
0.38,-0.765,-0.478,-35.34,1.77,-6.38,1785097213270.5972
0.37,-0.762,-0.486,-34.85,1.77,-6.84,1785097213270.888
0.369,-0.747,-0.486,-34.46,1.59,-5.34,1785097213271.1658
0.369,-0.744,-0.49,-31.56,1.34,-3.23,1785097213271.453
0.365,-0.74,-0.479,-28.6,0.12,-2.23,1785097213271.755
0.365,-0.733,-0.506,-27.89,-1.86,-1.86,1785097213272.042
0.364,-0.735,-0.541,-30.34,-1.56,-1.34,1785097213272.322
0.352,-0.728,-0.544,-33.85,0.06,0.03,1785097213272.605
0.335,-0.715,-0.525,-35.0,2.5,1.46,1785097213272.893
0.335,-0.702,-0.507,-31.31,4.3,2.59,1785097213273.174
0.342,-0.694,-0.494,-22.8,5.28,3.02,1785097213273.463
0.346,-0.686,-0.489,-11.84,6.01,3.57,1785097213273.7239
0.353,-0.691,-0.49,-1.89,6.99,5.19,1785097213273.976
0.356,-0.703,-0.489,5.28,8.61,7.2,1785097213274.2231
0.35,-0.712,-0.475,11.63,10.01,9.19,1785097213274.483
0.35,-0.712,-0.475,18.22,10.25,11.51,1785097213274.7449
0.351,-0.716,-0.488,21.18,9.37,13.0,1785097213275.004
0.368,-0.72,-0.509,19.01,8.24,13.95,1785097213275.257
0.377,-0.734,-0.501,15.99,7.93,14.89,1785097213275.532
0.376,-0.766,-0.485,15.99,7.93,14.89,1785097213275.789
0.369,-0.789,-0.477,15.47,8.27,15.78,1785097213276.0388
0.375,-0.804,-0.493,16.63,8.7,16.94,1785097213276.309
0.379,-0.799,-0.489,16.57,8.82,17.82,1785097213276.581
0.384,-0.791,-0.477,16.33,7.63,18.98,1785097213276.8489
0.392,-0.795,-0.471,17.85,6.68,20.14,1785097213277.112
0.399,-0.812,-0.467,21.18,5.37,21.15,1785097213277.376
0.393,-0.816,-0.471,24.2,4.15,22.28,1785097213277.6438
0.396,-0.813,-0.481,26.12,3.27,24.66,1785097213277.902
0.405,-0.801,-0.498,24.84,1.59,27.13,1785097213278.161
0.419,-0.801,-0.509,21.15,0.79,29.63,1785097213278.4177
0.414,-0.796,-0.509,18.92,1.43,31.71,1785097213278.6829
0.418,-0.789,-0.512,17.43,1.77,33.72,1785097213278.9531
0.427,-0.784,-0.52,14.71,1.77,33.94,1785097213279.223
0.425,-0.775,-0.504,10.74,1.46,32.62,1785097213279.4858
0.426,-0.778,-0.484,8.18,0.76,31.56,1785097213279.731
0.432,-0.786,-0.478,6.53,-0.37,30.03,1785097213279.968
0.428,-0.784,-0.469,3.63,-1.46,27.62,1785097213280.243
0.435,-0.784,-0.452,-0.7,-3.14,26.0,1785097213280.52
0.43,-0.794,-0.452,-4.06,-5.4,23.99,1785097213280.759
0.431,-0.818,-0.462,-6.38,-6.74,23.71,1785097213281.0
0.435,-0.841,-0.466,-7.6,-6.71,23.77,1785097213281.24
0.435,-0.861,-0.481,-8.27,-6.62,23.01,1785097213281.476
0.428,-0.863,-0.482,-9.34,-6.35,21.67,1785097213281.708
0.431,-0.85,-0.475,-8.27,-4.7,20.05,1785097213281.9463
0.435,-0.842,-0.485,-4.82,-2.56,17.7,1785097213282.1902
0.428,-0.829,-0.496,-2.23,-0.18,15.38,1785097213282.43
0.429,-0.816,-0.479,-3.36,0.7,13.73,1785097213282.675
0.426,-0.827,-0.457,-5.74,1.07,11.41,1785097213282.918
0.423,-0.845,-0.429,-7.29,1.95,9.43,1785097213283.1572
0.423,-0.863,-0.411,-6.2,2.72,7.57,1785097213283.3972
0.417,-0.873,-0.416,-3.63,3.17,5.34,1785097213283.629
0.41,-0.855,-0.419,-2.93,3.91,4.0,1785097213283.8662
0.412,-0.838,-0.432,-2.23,4.36,3.81,1785097213284.101
0.414,-0.842,-0.438,-0.31,5.74,2.44,1785097213284.3271
0.409,-0.853,-0.437,-0.73,6.1,0.09,1785097213284.56
0.406,-0.86,-0.416,-3.08,5.52,-2.53,1785097213284.795
0.409,-0.864,-0.402,-2.78,5.16,-4.97,1785097213285.0308
0.4,-0.865,-0.415,0.37,5.55,-5.8,1785097213285.2632
0.386,-0.849,-0.426,1.46,5.8,-5.74,1785097213285.497
0.385,-0.825,-0.428,1.01,5.46,-5.83,1785097213285.731
0.385,-0.809,-0.432,1.43,5.13,-6.29,1785097213285.962
0.381,-0.803,-0.426,3.48,5.28,-7.42,1785097213286.197
0.37,-0.799,-0.432,6.68,4.97,-8.82,1785097213286.439
0.365,-0.79,-0.441,8.51,4.18,-9.95,1785097213286.674
0.369,-0.782,-0.432,8.48,3.66,-10.59,1785097213286.905
0.376,-0.798,-0.437,8.82,3.36,-11.26,1785097213287.138
0.379,-0.823,-0.446,10.16,3.78,-11.99,1785097213287.368
0.377,-0.834,-0.448,12.91,4.39,-12.02,1785097213287.596
0.373,-0.833,-0.452,16.75,4.58,-11.05,1785097213287.817
0.372,-0.83,-0.453,20.42,3.97,-9.13,1785097213288.0361
0.375,-0.809,-0.453,22.43,3.45,-7.6,1785097213288.2559
0.378,-0.8,-0.465,22.8,3.17,-6.2,1785097213288.4722
0.375,-0.799,-0.468,20.48,2.35,-5.19,1785097213288.692
0.369,-0.796,-0.465,15.93,1.1,-3.85,1785097213288.913
0.366,-0.801,-0.449,12.27,0.0,-2.72,1785097213289.13
0.365,-0.795,-0.434,10.56,-1.37,-2.69,1785097213289.346
0.366,-0.788,-0.425,9.06,-3.66,-2.93,1785097213289.5623
0.371,-0.799,-0.428,6.65,-6.13,-2.81,1785097213289.778
0.369,-0.815,-0.427,4.0,-8.09,-2.14,1785097213289.991
0.372,-0.821,-0.425,3.05,-9.89,-0.15,1785097213290.208
0.373,-0.813,-0.427,4.03,-11.6,1.28,1785097213290.432
0.375,-0.807,-0.429,5.89,-13.79,3.17,1785097213290.6519
0.384,-0.804,-0.43,8.21,-15.69,4.36,1785097213290.867
0.379,-0.813,-0.435,10.93,-17.24,4.7,1785097213291.0872
0.388,-0.83,-0.433,13.98,-18.31,5.65,1785097213291.31
0.383,-0.838,-0.435,17.4,-20.02,3.51,1785097213291.5251
0.376,-0.848,-0.452,18.31,-22.13,2.56,1785097213291.743
0.375,-0.85,-0.437,16.69,-22.74,3.57,1785097213291.963
0.37,-0.857,-0.421,16.21,-23.22,4.33,1785097213292.186
0.37,-0.86,-0.418,16.42,-23.53,4.82,1785097213292.4048
0.37,-0.856,-0.412,17.73,-24.45,5.22,1785097213292.623
0.361,-0.852,-0.397,20.6,-25.88,4.27,1785097213292.843
0.359,-0.862,-0.413,23.53,-27.13,3.54,1785097213293.084
0.382,-0.892,-0.427,23.74,-26.64,3.02,1785097213293.292
0.388,-0.903,-0.404,23.38,-25.54,1.22,1785097213293.498
0.385,-0.907,-0.395,27.47,-24.29,-0.67,1785097213293.71
0.385,-0.902,-0.405,34.73,-22.71,-1.53,1785097213293.918
0.383,-0.876,-0.401,40.89,-21.76,-1.59,1785097213294.132
0.382,-0.848,-0.403,45.93,-21.21,-1.43,1785097213294.343
0.381,-0.841,-0.397,50.2,-20.29,-1.77,1785097213294.557
0.381,-0.858,-0.398,52.13,-19.47,-2.78,1785097213294.767
0.367,-0.883,-0.381,49.9,-19.32,-3.78,1785097213294.978
0.359,-0.896,-0.347,45.87,-19.35,-3.88,1785097213295.1902
0.357,-0.899,-0.331,43.34,-18.65,-3.57,1785097213295.401
0.358,-0.886,-0.342,40.41,-17.49,-3.05,1785097213295.606
0.358,-0.869,-0.349,35.07,-16.51,-2.69,1785097213295.813
0.355,-0.864,-0.334,27.59,-16.85,-3.2,1785097213296.0178
0.357,-0.874,-0.331,20.72,-18.19,-4.46,1785097213296.222
0.363,-0.901,-0.338,16.6,-18.52,-5.62,1785097213296.4312
0.36,-0.924,-0.349,15.32,-18.1,-5.86,1785097213296.6367
0.346,-0.917,-0.356,14.77,-17.03,-5.58,1785097213296.8398
0.343,-0.895,-0.362,14.13,-16.14,-4.67,1785097213297.045
0.338,-0.879,-0.349,6.07,-15.78,-6.13,1785097213297.65
0.339,-0.897,-0.358,3.6,-15.35,-6.81,1785097213297.8562
-0.698,-0.877,-0.665,-21.39,-0.09,-5.71,1785097213298.099
-0.788,-0.93,-0.626,-31.37,3.94,-12.09,1785097213298.3071
-0.851,-1.025,-0.551,-41.17,5.74,-16.75,1785097213298.5642
-0.929,-1.104,-0.505,-50.11,7.11,-23.68,1785097213303.211
-1.047,-1.085,-0.436,-55.88,10.47,-31.74,1785097213316.384
-1.138,-1.019,-0.374,-46.33,15.56,-37.35,1785097213322.075
-1.214,-0.979,-0.374,-16.42,20.75,-46.24,1785097213332.8572
-1.253,-0.948,-0.432,18.56,22.52,-55.7,1785097213343.497
-1.216,-0.914,-0.545,50.33,24.02,-63.11,1785097213356.7622
-1.17,-0.897,-0.685,73.92,25.76,-70.8,1785097213362.449
-1.176,-0.842,-0.758,74.43,25.39,-77.55,1785097213373.2322
-1.187,-0.753,-0.76,55.79,21.94,-78.19,1785097213386.4893
-1.149,-0.719,-0.737,32.53,19.71,-74.04,1785097213392.1821
-1.114,-0.741,-0.679,8.3,18.4,-70.1,1785097213402.909
-1.086,-0.763,-0.596,-17.0,15.02,-68.21,1785097213413.57
-1.015,-0.802,-0.547,-38.39,8.09,-67.29,1785097213426.822
-0.935,-0.854,-0.555,-54.99,-0.24,-66.56,1785097213432.571
-0.863,-0.89,-0.598,-68.91,-7.05,-63.23,1785097213443.012
-0.806,-0.882,-0.632,-79.96,-11.05,-55.76,1785097213456.253
-0.75,-0.903,-0.591,-80.78,-12.91,-45.66,1785097213462.026
-0.701,-0.973,-0.561,-69.12,-15.93,-39.31,1785097213472.95
-0.661,-0.988,-0.531,-53.93,-18.62,-33.57,1785097213483.384
-0.631,-0.979,-0.529,-38.3,-21.82,-23.53,1785097213496.892
-0.594,-0.958,-0.55,-26.34,-24.75,-10.5,1785097213502.8071
-0.573,-0.935,-0.577,-20.69,-31.07,1.22,1785097213513.1562
-0.554,-0.873,-0.603,-25.51,-40.62,9.64,1785097213523.4502
-0.48,-0.848,-0.611,-33.14,-47.55,15.84,1785097213536.964
-0.402,-0.847,-0.575,-37.17,-52.86,17.85,1785097213542.896
-0.334,-0.858,-0.565,-33.85,-56.98,19.1,1785097213553.427
-0.279,-0.86,-0.58,-25.09,-58.47,22.71,1785097213566.6868
-0.23,-0.881,-0.601,-11.99,-59.6,27.41,1785097213572.625
-0.186,-0.914,-0.66,1.59,-61.56,29.57,1785097213583.061
-0.165,-0.915,-0.696,9.8,-62.5,29.42,1785097213593.591
-0.142,-0.877,-0.731,11.66,-62.29,30.18,1785097213606.83
-0.083,-0.823,-0.779,10.53,-59.48,31.13,1785097213612.943
-0.015,-0.738,-0.796,7.72,-55.42,29.45,1785097213623.169
0.065,-0.63,-0.811,6.53,-50.78,26.06,1785097213633.7932
0.138,-0.541,-0.808,8.91,-44.34,21.61,1785097213647.1401
0.181,-0.464,-0.773,10.71,-37.45,17.12,1785097213652.927
0.231,-0.422,-0.734,13.34,-29.6,15.56,1785097213663.393
0.255,-0.458,-0.689,18.37,-22.25,14.56,1785097213676.6292
0.238,-0.502,-0.662,20.66,-18.59,10.25,1785097213682.58
0.231,-0.523,-0.684,22.03,-17.82,7.14,1785097213692.967
0.243,-0.527,-0.762,26.43,-16.97,4.79,1785097213703.5378
0.249,-0.506,-0.847,32.01,-13.67,2.81,1785097213716.803
0.244,-0.473,-0.908,35.74,-10.19,1.89,1785097213722.7222
0.327,-0.42,-0.933,36.5,-6.96,-0.34,1785097213732.88
0.493,-0.341,-0.933,38.7,8.42,-15.93,1785097213743.4648
1.103,0.486,-1.052,39.16,7.6,-43.46,1785097213756.667
1.301,0.893,-1.158,78.68,-22.22,-29.48,1785097213762.382
0.499,-0.531,-1.605,114.38,-92.9,13.03,1785097213773.1562
-0.483,-1.035,-2.004,71.08,-103.92,-22.71,1785097213786.403
-0.322,-0.817,-1.792,5.8,7.17,-36.07,1785097213792.325
0.165,-0.577,-1.332,-42.02,88.99,-39.64,1785097213802.779
0.326,-0.571,-1.0,-72.36,118.47,-58.69,1785097213813.5469
0.275,-0.901,-0.809,-91.43,131.72,-70.62,1785097213826.7698
0.194,-1.042,-0.864,-96.93,123.45,-84.14,1785097213832.758
0.253,-1.056,-0.841,-104.1,112.25,-83.74,1785097213843.572
0.188,-1.049,-0.83,-104.59,103.37,-82.77,1785097213856.802
0.116,-1.032,-0.862,-85.51,94.21,-79.17,1785097213862.897
0.082,-1.03,-0.91,-45.05,96.77,-79.26,1785097213873.447
0.12,-1.017,-0.957,4.82,121.4,-85.79,1785097213886.709
0.103,-0.876,-0.973,50.78,148.08,-94.45,1785097213892.6357
0.067,-0.787,-0.945,81.45,156.13,-95.86,1785097213903.3643
0.133,-0.762,-0.944,86.92,143.56,-93.48,1785097213916.62
0.234,-0.779,-0.931,70.96,136.2,-105.2,1785097213922.584
0.279,-0.782,-0.903,38.3,143.62,-125.1,1785097213933.5251
0.319,-0.809,-0.887,1.74,150.76,-138.62,1785097213946.815
0.386,-0.87,-0.874,-26.28,155.13,-147.74,1785097213952.6921
0.472,-0.909,-0.86,-43.58,161.14,-155.03,1785097213963.6272
0.548,-0.925,-0.869,-50.72,167.76,-163.21,1785097213976.866
0.619,-0.889,-0.86,-51.97,173.1,-171.24,1785097213982.841
0.709,-0.823,-0.851,-50.72,175.08,-175.54,1785097213996.366
0.799,-0.751,-0.841,-47.91,173.8,-178.84,1785097214002.25
0.849,-0.698,-0.814,-42.33,170.69,-183.42,1785097214013.257
0.901,-0.702,-0.845,-34.97,167.0,-191.63,1785097214026.6108
1.011,-0.743,-0.947,-29.97,166.23,-206.92,1785097214032.5198
1.142,-0.74,-0.994,-29.02,169.59,-226.51,1785097214043.488
1.245,-0.749,-0.966,-26.95,172.09,-241.8,1785097214056.706
1.261,-0.732,-0.874,-30.09,167.61,-250.31,1785097214062.9011
1.224,-0.672,-0.719,-37.26,159.22,-249.52,1785097214073.707
1.24,-0.663,-0.617,-41.02,145.76,-238.69,1785097214086.977
1.244,-0.595,-0.533,-47.73,127.72,-228.64,1785097214092.907
1.213,-0.459,-0.438,-59.69,109.38,-217.11,1785097214106.398
1.22,-0.333,-0.356,-71.44,94.49,-200.99,1785097214112.359
1.206,-0.256,-0.273,-78.4,80.75,-180.94,1785097214123.157
1.117,-0.239,-0.206,-81.42,64.67,-156.53,1785097214136.3872
0.981,-0.25,-0.178,-78.49,48.31,-129.31,1785097214142.517
0.956,-0.282,-0.219,-68.09,34.61,-100.28,1785097214153.179
0.925,-0.266,-0.258,-56.12,20.17,-70.99,1785097214163.778
0.914,-0.263,-0.308,-40.31,4.55,-40.31,1785097214177.0789
0.784,-0.209,-0.361,-27.95,-13.43,-13.0,1785097214182.938
0.605,-0.137,-0.358,-25.51,-31.28,19.32,1785097214193.4358
0.483,-0.093,-0.326,-26.49,-48.4,53.99,1785097214206.623
0.399,-0.079,-0.308,-23.74,-62.96,84.51,1785097214212.59
0.253,-0.109,-0.284,-18.19,-72.6,111.91,1785097214223.165
0.121,-0.123,-0.254,-15.59,-79.29,137.97,1785097214236.406
-0.041,-0.128,-0.214,-16.66,-87.47,162.82,1785097214242.389
-0.282,-0.137,-0.156,-23.65,-100.77,187.2,1785097214253.264
-0.512,-0.125,-0.098,-36.41,-119.94,208.93,1785097214266.57
-0.72,-0.104,-0.082,-44.31,-140.48,222.33,1785097214272.448
-0.919,-0.118,-0.095,-48.37,-157.9,228.89,1785097214283.521
-1.128,-0.19,-0.181,-54.87,-171.36,230.6,1785097214296.712
-1.319,-0.319,-0.373,-65.28,-176.43,229.77,1785097214302.691
-1.482,-0.479,-0.686,-81.39,-168.1,229.8,1785097214313.7522
-1.553,-0.625,-1.169,-108.49,-144.41,227.39,1785097214327.026
-1.463,-0.697,-1.766,-150.73,-106.42,217.35,1785097214332.9338
-1.18,-0.675,-2.164,-203.77,-57.71,196.17,1785097214346.517
-0.683,-0.678,-2.052,-250.04,-12.09,167.79,1785097214352.459
-0.189,-0.789,-1.328,-262.55,20.54,126.44,1785097214363.5042
0.109,-1.064,-0.665,-234.38,29.73,74.01,1785097214376.7358
0.307,-1.161,-0.395,-209.45,18.92,24.45,1785097214382.6829
0.307,-1.161,-0.395,-194.37,3.69,-6.53,1785097214393.2312
0.396,-0.778,-0.051,-133.24,-6.81,-20.51,1785097214406.482
0.429,-0.293,0.024,-35.34,3.69,-40.62,1785097214412.4219
0.4,0.069,-0.247,58.53,28.87,-81.82,1785097214422.881
0.23,0.237,-0.514,58.53,28.87,-81.82,1785097214433.534
-0.018,0.247,-0.799,122.47,47.98,-136.17,1785097214446.888
-0.218,0.128,-0.948,146.06,69.83,-182.13,1785097214452.821
-0.348,-0.115,-0.855,147.5,93.66,-212.84,1785097214463.7927
-0.491,-0.498,-0.823,140.9,104.98,-232.34,1785097214477.0159
-0.7,-0.719,-0.883,119.54,110.57,-250.89,1785097214482.998
-0.933,-0.67,-0.874,90.91,116.18,-259.04,1785097214496.7307
-1.027,-0.514,-0.843,65.8,118.53,-251.72,1785097214502.572
-0.892,-0.41,-0.928,39.03,121.43,-244.42,1785097214513.642
-0.756,-0.321,-0.977,1.71,128.94,-248.82,1785097214526.8918
-0.69,-0.294,-0.954,-38.3,137.39,-253.7,1785097214532.9302
-0.55,-0.354,-0.916,-68.33,146.95,-252.78,1785097214543.731
-0.393,-0.384,-0.833,-82.28,155.4,-248.85,1785097214557.047
-0.239,-0.35,-0.772,-75.17,159.61,-235.57,1785097214563.078
-0.038,-0.333,-0.709,-48.68,163.15,-214.06,1785097214576.4858
0.132,-0.335,-0.632,-10.86,163.43,-192.75,1785097214582.377
0.236,-0.359,-0.569,29.76,158.15,-171.58,1785097214593.391
0.275,-0.366,-0.527,66.84,147.92,-149.88,1785097214606.522
0.306,-0.306,-0.522,96.65,139.04,-129.15,1785097214612.551
0.416,-0.189,-0.569,115.88,133.0,-108.83,1785097214623.662
0.639,-0.021,-0.595,123.05,130.13,-87.47,1785097214636.971
0.932,0.095,-0.556,125.0,129.43,-64.52,1785097214642.89
1.157,0.135,-0.491,123.48,127.9,-45.01,1785097214656.321
1.286,0.164,-0.409,115.51,125.25,-24.54,1785097214662.398
1.355,0.194,-0.282,109.07,122.32,2.26,1785097214673.223
1.406,0.25,-0.163,109.62,115.76,32.69,1785097214686.46
1.471,0.295,-0.044,113.9,105.35,62.78,1785097214692.4958
1.563,0.28,0.064,119.82,90.88,83.53,1785097214703.391
1.744,0.353,0.13,127.17,77.94,88.26,1785097214716.647
2.003,0.517,0.164,142.25,72.05,92.07,1785097214722.562
2.247,0.739,0.143,162.27,67.45,98.73,1785097214733.377
2.286,1.017,0.136,182.44,59.24,101.05,1785097214746.659
2.212,1.216,0.147,203.31,50.42,94.97,1785097214752.554
2.159,1.262,0.153,221.08,42.05,82.13,1785097214763.4138
2.19,1.104,0.087,238.47,30.64,69.0,1785097214776.619
2.218,0.781,-0.086,251.2,15.66,48.1,1785097214782.587
2.263,0.537,-0.296,244.27,1.1,20.11,1785097214793.307
2.249,0.358,-0.462,210.39,-10.74,-3.57,1785097214806.528
2.216,0.249,-0.576,159.79,-23.93,-28.47,1785097214812.5469
2.245,0.251,-0.658,110.11,-39.28,-52.8,1785097214823.1191
2.196,0.184,-0.684,66.13,-55.12,-56.86,1785097214833.782
2.041,0.113,-0.632,30.49,-67.54,-54.84,1785097214847.1821
1.983,0.16,-0.603,5.65,-75.14,-55.02,1785097214853.3162
1.892,0.217,-0.522,-14.16,-79.38,-55.33,1785097214863.4087
1.811,0.206,-0.437,-27.13,-83.04,-58.08,1785097214876.687
1.765,0.15,-0.367,-34.67,-82.89,-62.07,1785097214882.5732
1.699,0.067,-0.327,-35.62,-80.32,-62.5,1785097214893.103
1.644,0.035,-0.321,-34.52,-77.97,-57.28,1785097214903.737
1.577,0.022,-0.304,-31.19,-73.27,-44.13,1785097214916.9878
1.463,0.042,-0.296,-24.05,-68.88,-26.22,1785097214922.934
1.297,0.085,-0.337,-18.71,-70.89,-8.61,1785097214933.367
1.188,0.097,-0.351,-20.33,-71.29,9.25,1785097214946.667
1.169,0.065,-0.357,-26.18,-67.57,28.96,1785097214952.506
1.101,0.018,-0.355,-33.05,-68.33,52.61,1785097214962.978
0.958,-0.073,-0.369,-36.32,-72.7,80.36,1785097214973.584
0.771,-0.197,-0.352,-37.29,-68.88,103.27,1785097214986.8857
0.596,-0.281,-0.368,-45.35,-64.09,120.09,1785097214992.8188
0.459,-0.261,-0.374,-64.12,-63.42,134.56,1785097215003.572
0.345,-0.224,-0.366,-84.14,-68.82,151.55,1785097215016.845
0.231,-0.17,-0.365,-100.59,-78.95,170.87,1785097215022.804
0.086,-0.135,-0.336,-110.2,-90.46,192.08,1785097215033.854
-0.098,-0.11,-0.333,-112.95,-103.34,211.8,1785097215047.091
-0.292,-0.13,-0.306,-114.69,-116.06,231.97,1785097215053.049
-0.56,-0.241,-0.241,-115.82,-127.51,249.03,1785097215066.58
-0.899,-0.4,-0.149,-119.48,-141.42,261.3,1785097215072.583
-1.205,-0.527,-0.119,-129.73,-163.09,270.79,1785097215083.8132
-1.352,-0.619,-0.302,-141.79,-184.91,277.6,1785097215097.134
-1.34,-0.7,-0.556,-159.37,-196.02,282.36,1785097215103.049
-1.295,-0.754,-0.891,-185.06,-194.22,278.79,1785097215116.668
-1.341,-0.786,-1.333,-217.6,-174.35,260.63,1785097215122.622
-1.38,-0.78,-1.812,-258.52,-141.79,230.72,1785097215136.2861
-1.194,-0.703,-2.154,-308.21,-99.22,198.46,1785097215142.32
-0.719,-0.564,-2.159,-359.48,-59.66,167.52,1785097215153.31
-0.359,-0.377,-1.61,-392.38,-27.56,127.45,1785097215166.537
-0.223,-0.226,-0.714,-382.31,-7.26,90.49,1785097215172.5151
-0.019,-0.36,-0.049,-323.74,-6.5,62.44,1785097215183.616
0.277,-0.636,0.146,-247.38,-15.56,24.32,1785097215196.563
0.466,-0.733,0.192,-156.16,-8.55,-24.2,1785097215202.374
0.452,-0.795,0.194,-11.05,15.69,-68.21,1785097215212.9678
0.185,-0.884,-0.151,169.84,41.08,-117.16,1785097215223.784
-0.236,-0.831,-0.6,309.64,63.45,-161.29,1785097215237.112
-0.552,-0.669,-0.868,375.93,70.41,-188.48,1785097215242.986
-0.772,-0.498,-1.143,380.87,57.22,-210.03,1785097215256.4412
-0.905,-0.365,-1.349,334.54,46.88,-226.72,1785097215262.4277
-1.034,-0.235,-1.374,250.56,42.27,-237.19,1785097215273.4028
-1.084,-0.179,-1.288,162.36,44.4,-239.91,1785097215286.653
-0.998,-0.316,-1.242,100.47,54.02,-243.87,1785097215292.569
-0.849,-0.502,-1.258,69.03,70.41,-256.6,1785097215303.5322
-0.689,-0.65,-1.216,62.75,93.81,-264.66,1785097215316.7578
-0.52,-0.795,-1.129,71.66,114.57,-257.48,1785097215322.8071
-0.408,-0.88,-1.057,86.06,129.09,-237.95,1785097215333.683
-0.284,-0.834,-1.073,102.91,142.0,-208.23,1785097215346.9692
-0.021,-0.689,-1.105,122.26,158.45,-176.76,1785097215352.9338
0.204,-0.5,-1.097,140.96,171.64,-155.0,1785097215366.543
0.408,-0.349,-1.153,151.01,178.44,-135.44,1785097215372.572
0.601,-0.144,-1.109,133.98,183.78,-114.32,1785097215383.779
0.751,0.125,-0.95,101.11,184.3,-85.73,1785097215396.9888
0.767,0.244,-0.661,74.8,179.69,-51.85,1785097215402.952
0.562,0.023,-0.236,67.81,167.15,-28.63,1785097215413.769
0.599,-0.33,0.06,88.75,147.86,-42.57,1785097215427.0762
1.113,-0.368,0.133,143.47,155.92,-75.38,1785097215432.996
1.278,-0.204,-0.03,191.56,185.64,-81.12,1785097215446.423
1.387,0.202,-0.061,182.93,208.72,-69.22,1785097215452.3872
1.791,0.315,0.134,150.98,160.47,-10.44,1785097215463.382
1.869,0.115,0.184,162.02,110.63,48.19,1785097215476.638
2.095,0.367,0.054,183.97,119.36,36.99,1785097215482.347
2.253,0.438,-0.134,171.51,123.57,9.58,1785097215493.325
2.185,0.374,-0.246,135.47,115.48,-19.65,1785097215506.86
2.184,0.302,-0.351,106.2,106.91,-22.71,1785097215512.5818
2.211,0.274,-0.416,92.32,100.65,-12.18,1785097215523.766
2.338,0.523,-0.592,85.3,94.94,-14.89,1785097215536.907
2.269,0.671,-0.652,68.06,84.6,-11.17,1785097215542.853
2.16,0.756,-0.575,44.74,70.59,-15.38,1785097215553.405
2.081,0.683,-0.486,21.03,48.28,-19.81,1785097215566.588
1.969,0.647,-0.401,-2.23,17.94,-21.0,1785097215572.4832
1.85,0.651,-0.365,-27.74,-9.34,-36.9,1785097215582.8481
1.765,0.557,-0.291,-58.08,-16.24,-50.78,1785097215593.58
1.677,0.495,-0.248,-85.88,-17.94,-56.15,1785097215606.583
1.624,0.445,-0.248,-101.87,-23.93,-53.8,1785097215612.391
1.58,0.396,-0.267,-109.84,-31.43,-46.39,1785097215623.426
1.551,0.346,-0.264,-114.17,-34.55,-36.04,1785097215636.655
1.523,0.324,-0.25,-117.77,-34.52,-29.97,1785097215642.308
1.494,0.29,-0.233,-123.63,-34.21,-27.5,1785097215653.495
1.505,0.197,-0.187,-133.85,-37.2,-18.95,1785097215666.6711
1.505,0.197,-0.187,-138.16,-54.48,-1.01,1785097215672.5728
1.495,0.157,-0.18,-133.79,-72.66,14.37,1785097215683.26
1.438,0.22,-0.214,-130.38,-69.03,22.49,1785097215696.5498
1.441,0.249,-0.191,-126.19,-57.56,31.74,1785097215702.418
1.391,0.164,-0.184,-120.27,-46.39,38.48,1785097215713.2148
1.354,0.104,-0.193,-120.27,-46.39,38.48,1785097215726.443
1.287,0.083,-0.203,-116.49,-43.12,45.41,1785097215732.488
1.204,0.07,-0.178,-114.14,-42.39,56.09,1785097215743.192
1.167,0.044,-0.183,-111.42,-45.53,69.12,1785097215756.387
1.152,0.028,-0.189,-107.7,-54.63,95.43,1785097215762.8901
1.063,-0.012,-0.217,-103.52,-69.28,134.16,1785097215773.254
0.928,-0.005,-0.226,-97.45,-73.85,163.67,1785097215786.5042
0.784,-0.052,-0.191,-86.92,-71.32,186.1,1785097215792.471
0.566,-0.113,-0.165,-84.26,-76.51,205.27,1785097215803.284
0.332,-0.151,-0.138,-89.39,-89.63,220.65,1785097215816.4412
0.111,-0.171,-0.089,-90.27,-107.39,230.69,1785097215822.407
-0.116,-0.155,-0.028,-85.02,-131.81,235.94,1785097215833.449
-0.379,-0.141,0.051,-73.95,-160.34,240.03,1785097215846.653
-0.619,-0.208,-0.011,-60.37,-190.92,248.27,1785097215852.557
-0.857,-0.399,-0.285,-58.84,-216.93,251.96,1785097215863.586
-1.16,-0.6,-0.589,-81.97,-235.33,247.57,1785097215876.858
-1.451,-0.729,-0.869,-123.66,-246.71,255.5,1785097215882.883
-1.636,-0.785,-1.232,-156.13,-240.18,277.96,1785097215896.3862
-1.714,-0.925,-1.892,-162.42,-204.78,286.02,1785097215902.336
-1.697,-0.943,-2.62,-181.92,-146.58,259.93,1785097215913.577
-1.334,-0.67,-2.833,-248.21,-85.15,228.22,1785097215926.784
-0.723,-0.385,-2.284,-317.64,-35.58,202.89,1785097215932.827
-0.332,-0.362,-1.39,-338.08,-4.27,168.1,1785097215943.676
-0.093,-0.545,-0.513,-318.25,4.36,126.83,1785097215956.877
0.186,-0.769,-0.062,-278.39,-5.37,77.88,1785097215963.0178
0.492,-0.948,0.001,-219.03,-6.62,31.13,1785097215973.4358
0.652,-0.973,-0.028,-130.19,6.5,-12.48,1785097215986.691
0.544,-0.808,-0.212,-8.64,20.84,-52.31,1785097215992.6348
0.198,-0.535,-0.546,124.06,38.82,-88.66,1785097216003.188
-0.157,-0.294,-0.884,233.77,58.6,-118.84,1785097216016.427
-0.396,-0.183,-1.104,291.73,71.05,-142.22,1785097216022.4011
-0.553,-0.268,-1.157,292.58,77.0,-164.25,1785097216033.4622
-0.681,-0.413,-1.154,242.96,79.81,-189.92,1785097216047.179
-0.773,-0.48,-1.103,169.71,88.26,-216.56,1785097216052.643
-0.867,-0.477,-0.955,106.91,100.34,-237.22,1785097216063.782
-0.917,-0.531,-0.879,74.28,109.32,-248.21,1785097216077.099
-0.921,-0.669,-0.884,63.3,120.15,-253.79,1785097216082.976
-0.932,-0.796,-0.876,57.83,132.97,-252.36,1785097216096.477
-0.908,-0.857,-0.843,54.99,144.2,-237.74,1785097216102.3801
-0.74,-0.808,-0.839,61.65,151.98,-212.93,1785097216113.3
-0.468,-0.693,-0.845,83.1,158.09,-190.86,1785097216126.6838
-0.22,-0.604,-0.854,112.61,162.11,-177.89,1785097216132.6511
-0.021,-0.55,-0.871,132.3,165.78,-167.52,1785097216143.788
0.1,-0.49,-0.876,131.5,169.19,-154.76,1785097216157.0088
0.171,-0.38,-0.787,110.51,169.38,-138.04,1785097216163.1
0.268,-0.273,-0.684,82.0,167.97,-121.37,1785097216176.5918
0.442,-0.282,-0.49,67.69,169.99,-111.27,1785097216182.604
0.747,-0.455,-0.369,85.33,173.89,-115.18,1785097216193.533
1.032,-0.565,-0.282,111.36,181.07,-124.64,1785097216206.788
1.276,-0.491,-0.161,116.79,173.28,-110.6,1785097216212.8691
1.46,-0.318,-0.089,115.18,138.92,-65.74,1785097216226.3857
1.395,-0.189,-0.066,118.08,109.9,-11.26,1785097216232.333
1.382,-0.06,-0.006,112.8,114.08,16.02,1785097216243.3547
1.709,0.163,0.134,101.14,124.42,15.47,1785097216256.644
2.048,0.339,0.273,89.88,120.43,7.84,1785097216262.6309
2.188,0.458,0.321,74.25,109.99,0.06,1785097216273.207
2.295,0.559,0.295,59.42,98.12,1.28,1785097216283.7651
2.373,0.735,0.24,55.64,85.27,-1.37,1785097216296.982
2.43,1.081,0.063,69.49,68.18,-2.78,1785097216302.936
2.409,1.323,-0.027,90.0,48.46,11.41,1785097216313.3728
2.385,1.652,-0.115,128.21,28.69,16.02,1785097216326.566
2.383,1.687,-0.195,177.8,15.23,21.45,1785097216332.4958
2.359,1.232,-0.282,200.51,4.52,14.77,1785097216343.1921
2.4,0.787,-0.322,161.78,-3.51,-12.36,1785097216353.822
2.485,0.539,-0.294,80.02,-10.22,-37.84,1785097216367.141
2.418,0.447,-0.209,-7.66,-16.69,-52.49,1785097216373.038
2.268,0.413,-0.162,-83.9,-24.32,-60.43,1785097216383.49
2.074,0.415,-0.131,-143.86,-31.53,-62.75,1785097216396.718
1.902,0.423,-0.104,-181.16,-36.59,-58.66,1785097216402.752
1.791,0.44,-0.076,-198.89,-37.48,-54.32,1785097216413.5051
1.718,0.452,-0.026,-199.53,-32.26,-50.72,1785097216426.699
1.654,0.424,-0.029,-186.25,-22.95,-45.75,1785097216432.621
1.562,0.401,-0.027,-167.49,-15.11,-38.18,1785097216443.402
1.498,0.369,-0.029,-144.17,-11.81,-24.87,1785097216456.681
1.413,0.333,-0.02,-119.66,-12.48,-8.85,1785097216462.7422
1.285,0.285,-0.016,-97.38,-18.49,10.83,1785097216473.2239
1.17,0.237,-0.012,-78.16,-26.18,32.75,1785097216483.906
1.038,0.185,0.018,-58.2,-33.97,56.49,1785097216497.181
0.887,0.118,0.005,-38.67,-44.43,82.49,1785097216503.056
0.726,0.063,-0.009,-25.21,-55.91,108.68,1785097216513.655
0.647,0.02,0.003,-11.78,-66.13,132.3,1785097216526.841
0.583,-0.096,0.007,9.55,-74.74,149.24,1785097216532.814
0.429,-0.241,-0.039,30.88,-83.71,157.72,1785097216543.831
0.253,-0.329,-0.119,32.62,-94.42,166.84,1785097216556.774
0.109,-0.296,-0.12,11.2,-105.26,180.36,1785097216562.819
-0.025,-0.249,-0.08,-12.33,-122.41,199.38,1785097216573.665
-0.165,-0.288,-0.116,-24.81,-146.76,219.49,1785097216586.905
-0.313,-0.338,-0.153,-38.88,-177.22,240.88,1785097216592.8098
-0.503,-0.324,-0.235,-57.74,-208.62,262.92,1785097216606.2878
-0.726,-0.327,-0.289,-74.56,-231.12,285.07,1785097216612.3362
-0.921,-0.484,-0.391,-92.14,-247.9,300.33,1785097216623.281
-1.092,-0.674,-0.619,-116.64,-252.02,292.43,1785097216636.5417
-1.301,-0.742,-0.96,-137.42,-242.26,269.11,1785097216642.477
-1.465,-0.792,-1.43,-147.89,-221.41,256.17,1785097216653.884
-1.412,-0.835,-1.905,-161.44,-186.96,244.33,1785097216667.1182
-1.18,-0.726,-2.318,-194.92,-143.53,219.89,1785097216673.076
-0.812,-0.513,-2.456,-255.32,-97.84,196.02,1785097216686.666
-0.42,-0.386,-2.347,-320.66,-59.02,169.53,1785097216692.6301
-0.107,-0.464,-1.886,-370.22,-28.78,138.25,1785097216703.656
0.082,-0.64,-0.984,-398.11,-16.48,101.17,1785097216716.7812
0.292,-0.933,-0.299,-380.84,-22.46,48.19,1785097216722.468
0.474,-1.236,-0.118,-319.74,-26.83,-11.75,1785097216733.6587
0.512,-1.2,-0.14,-226.39,-12.24,-46.57,1785097216747.0222
0.442,-0.949,-0.234,-84.29,18.8,-51.91,1785097216752.842
0.189,-0.713,-0.498,90.06,49.81,-70.56,1785097216763.437
-0.104,-0.559,-0.835,234.02,70.96,-106.42,1785097216776.688
-0.334,-0.429,-1.086,308.51,76.57,-142.22,1785097216782.6738
-0.495,-0.331,-1.196,317.91,73.21,-167.15,1785097216793.68
-0.588,-0.369,-1.249,282.85,70.93,-181.92,1785097216806.878
-0.624,-0.474,-1.257,223.82,79.1,-197.7,1785097216812.9348
-0.641,-0.528,-1.162,165.04,95.46,-213.78,1785097216826.323
-0.608,-0.587,-1.124,127.9,112.77,-223.4,1785097216832.315
-0.557,-0.66,-1.085,107.61,126.99,-225.38,1785097216843.513
-0.51,-0.711,-1.024,86.18,134.4,-218.85,1785097216856.735
-0.462,-0.688,-0.905,52.83,136.88,-207.37,1785097216862.813
-0.368,-0.69,-0.786,17.3,134.37,-196.42,1785097216873.7222
-0.32,-0.684,-0.718,-16.14,129.67,-191.14,1785097216886.938
-0.271,-0.63,-0.632,-43.03,126.26,-183.2,1785097216892.904
-0.178,-0.61,-0.605,-57.99,127.48,-174.5,1785097216906.425
-0.088,-0.571,-0.631,-74.8,135.5,-169.93,1785097216912.404
0.011,-0.511,-0.613,-98.36,146.24,-165.01,1785097216923.41
0.155,-0.456,-0.476,-125.28,153.11,-156.1,1785097216936.613
0.303,-0.438,-0.331,-144.87,154.21,-142.46,1785097216942.601
0.401,-0.443,-0.247,-151.07,150.91,-121.74,1785097216953.835
0.401,-0.443,-0.247,-142.22,143.1,-91.53,1785097216967.1528
0.433,-0.414,-0.202,-120.55,130.86,-56.7,1785097216973.068
0.543,-0.319,-0.214,-90.33,118.2,-25.06,1785097216986.502
0.752,-0.158,-0.231,-51.24,111.85,2.93,1785097216993.0889
0.994,-0.049,-0.217,-51.24,111.85,2.93,1785097217002.998
1.178,-0.004,-0.182,-10.83,110.93,26.49,1785097217013.757
1.276,0.064,-0.133,20.94,107.46,48.01,1785097217027.06
1.391,0.098,-0.061,51.12,98.06,70.35,1785097217032.9302
1.605,0.127,0.009,87.77,80.72,84.08,1785097217043.544
1.814,0.263,0.058,120.3,58.11,89.97,1785097217056.7998
1.926,0.387,0.077,148.9,38.76,94.45,1785097217063.0012
1.969,0.468,0.083,175.08,30.76,94.73,1785097217073.526
2.088,0.565,0.109,197.82,34.39,91.34,1785097217086.731
2.241,0.725,0.153,214.58,34.79,83.41,1785097217092.694
2.288,0.862,0.165,236.06,24.81,73.79,1785097217103.4639
2.308,0.851,0.057,261.21,11.51,59.6,1785097217116.75
2.32,0.739,-0.066,272.62,2.44,42.42,1785097217122.634
2.285,0.477,-0.209,271.8,-0.73,27.5,1785097217133.2732
2.207,0.325,-0.398,250.62,-5.46,-0.58,1785097217143.83
2.151,0.246,-0.539,205.11,-12.88,-24.78,1785097217157.0251
2.045,0.039,-0.602,139.35,-22.46,-36.32,1785097217163.1128
1.939,0.063,-0.639,69.83,-36.29,-49.59,1785097217173.648
1.832,0.141,-0.599,16.75,-37.97,-63.51,1785097217186.924
1.794,0.087,-0.509,-25.61,-31.04,-70.56,1785097217192.8552
1.717,0.05,-0.451,-58.63,-29.88,-76.91,1785097217203.36
1.643,0.035,-0.414,-79.44,-32.87,-82.55,1785097217216.594
1.625,0.026,-0.351,-89.51,-26.22,-85.76,1785097217222.549
1.602,0.072,-0.271,-94.76,-19.56,-86.03,1785097217233.0771
1.58,0.114,-0.231,-91.62,-19.29,-85.48,1785097217243.758
1.559,0.143,-0.211,-83.83,-19.04,-81.51,1785097217256.8462
1.583,0.172,-0.163,-74.4,-17.58,-70.28,1785097217262.693
1.562,0.193,-0.139,-62.75,-21.06,-57.41,1785097217273.4148
1.472,0.197,-0.13,-55.33,-26.15,-47.43,1785097217286.664
1.378,0.185,-0.106,-55.88,-28.5,-37.57,1785097217292.581
1.324,0.159,-0.1,-58.72,-31.37,-26.52,1785097217303.173
1.246,0.145,-0.102,-61.8,-36.96,-13.61,1785097217313.7578
1.144,0.117,-0.093,-67.11,-43.06,4.18,1785097217326.999
1.079,0.11,-0.108,-73.43,-48.16,22.13,1785097217332.9312
1.027,0.137,-0.115,-81.21,-56.03,39.77,1785097217343.3752
0.969,0.15,-0.131,-87.41,-68.48,59.05,1785097217356.632
0.879,0.153,-0.147,-90.73,-82.37,79.23,1785097217362.657
0.771,0.152,-0.137,-90.33,-96.56,101.23,1785097217373.2031
0.651,0.16,-0.123,-85.97,-110.6,121.25,1785097217386.4429
0.515,0.154,-0.092,-78.8,-122.93,140.63,1785097217392.428
0.324,0.122,-0.063,-70.77,-138.92,161.05,1785097217403.435
0.116,0.053,-0.064,-60.85,-157.23,180.73,1785097217416.6348
-0.092,-0.047,-0.083,-50.17,-177.07,198.13,1785097217422.6292
-0.334,-0.162,-0.113,-41.9,-197.79,214.36,1785097217433.7048
-0.586,-0.264,-0.158,-41.2,-214.55,231.45,1785097217446.869
-0.841,-0.31,-0.242,-48.68,-227.3,247.78,1785097217452.835
-0.997,-0.356,-0.459,-51.85,-235.79,262.31,1785097217466.055
-1.071,-0.516,-0.845,-43.95,-233.56,268.35,1785097217472.363
-1.225,-0.749,-1.292,-38.85,-214.0,259.68,1785097217483.4
-1.413,-0.85,-1.761,-55.42,-179.82,242.1,1785097217496.675
-1.474,-0.752,-2.152,-97.2,-133.85,231.18,1785097217502.5288
-1.217,-0.575,-2.296,-161.32,-87.86,235.57,1785097217513.545
-0.772,-0.357,-1.942,-224.4,-52.06,233.34,1785097217526.792
-0.431,-0.185,-1.24,-253.64,-32.01,215.8,1785097217532.8628
-0.165,-0.182,-0.566,-235.72,-22.43,190.1,1785097217543.8132
0.124,-0.288,-0.156,-181.92,-20.36,155.89,1785097217557.011
0.406,-0.558,-0.111,-106.97,-21.7,121.68,1785097217563.21
0.602,-0.741,-0.258,-13.03,-8.58,63.84,1785097217573.682
0.522,-0.698,-0.508,83.59,3.05,5.71,1785097217586.9382
0.259,-0.573,-0.729,171.21,17.79,-29.36,1785097217592.863
0.046,-0.483,-0.902,235.21,29.57,-50.54,1785097217603.425
-0.065,-0.387,-1.032,261.82,32.59,-68.67,1785097217616.7441
-0.112,-0.304,-1.056,261.7,39.03,-83.59,1785097217622.607
-0.17,-0.324,-0.958,252.24,50.29,-97.29,1785097217633.3872
-0.247,-0.43,-0.805,239.11,56.18,-119.05,1785097217646.827
-0.348,-0.498,-0.728,219.03,51.67,-148.9,1785097217652.745
-0.397,-0.529,-0.742,193.03,44.86,-172.46,1785097217663.684
-0.392,-0.598,-0.68,164.22,45.01,-188.33,1785097217676.8901
-0.399,-0.72,-0.606,135.56,43.21,-196.91,1785097217682.9177
-0.417,-0.893,-0.605,111.27,34.94,-188.7,1785097217693.8838
-0.369,-1.022,-0.587,94.61,26.06,-177.8,1785097217707.0562
-0.366,-0.988,-0.509,98.79,32.01,-187.93,1785097217713.137
-0.361,-0.915,-0.5,125.64,45.84,-196.87,1785097217723.8882
-0.233,-0.89,-0.581,156.25,54.08,-189.98,1785097217737.126
-0.086,-0.827,-0.661,171.88,56.06,-182.81,1785097217743.159
-0.002,-0.722,-0.684,167.03,56.92,-174.54,1785097217756.562
0.066,-0.66,-0.646,146.7,59.33,-158.24,1785097217762.6372
0.105,-0.628,-0.597,116.79,60.85,-142.34,1785097217773.539
0.159,-0.579,-0.605,85.94,63.48,-132.85,1785097217786.799
0.266,-0.484,-0.603,57.95,70.59,-126.5,1785097217792.674
0.44,-0.392,-0.552,40.13,80.14,-118.5,1785097217803.505
0.6,-0.355,-0.542,35.19,87.53,-106.23,1785097217816.748
0.77,-0.398,-0.527,36.38,93.36,-68.36,1785097217822.706
0.974,-0.461,-0.387,46.45,105.14,-20.02,1785097217833.392
1.015,-0.422,-0.258,68.7,110.42,3.66,1785097217846.664
0.89,-0.379,-0.219,92.04,104.37,40.65,1785097217852.553
0.82,-0.344,-0.12,113.71,108.01,82.58,1785097217863.376
0.803,-0.304,-0.063,127.48,109.47,108.16,1785097217876.605
0.959,-0.285,-0.102,124.03,102.73,125.28,1785097217882.596
1.133,-0.179,-0.071,108.62,100.25,121.22,1785097217893.9011
1.256,-0.158,-0.017,95.43,97.54,116.18,1785097217907.035
1.313,-0.295,0.008,92.41,98.18,113.59,1785097217913.1
1.329,-0.486,0.024,97.45,101.87,109.41,1785097217923.865
1.356,-0.646,-0.047,104.37,101.32,108.49,1785097217937.203
1.404,-0.692,-0.107,103.31,99.4,110.78,1785097217943.1191
1.375,-0.76,-0.112,94.97,92.35,121.52,1785097217957.587
1.371,-0.872,-0.106,86.49,82.64,136.08,1785097217962.812
1.384,-0.926,-0.103,79.84,74.25,145.94,1785097217974.648
1.424,-0.97,-0.069,78.31,67.69,149.72,1785097217986.6501
1.472,-1.015,-0.062,79.2,57.77,147.77,1785097217992.5288
1.509,-1.028,-0.08,75.35,46.66,140.96,1785097218003.415
1.515,-1.097,-0.1,67.02,36.29,127.51,1785097218016.5498
1.565,-1.129,-0.143,54.96,25.7,107.67,1785097218022.482
1.534,-1.174,-0.172,34.82,13.64,89.36,1785097218033.207
1.554,-1.125,-0.218,11.96,3.08,65.37,1785097218043.758
1.593,-1.027,-0.231,-9.03,-6.56,40.28,1785097218056.978
1.598,-0.997,-0.191,-23.1,-14.44,14.34,1785097218062.9548
1.599,-0.98,-0.171,-29.73,-21.39,-14.89,1785097218073.2998
1.579,-0.954,-0.17,-33.17,-26.4,-42.79,1785097218086.487
1.562,-0.866,-0.164,-36.23,-27.8,-68.7,1785097218092.5288
1.577,-0.765,-0.154,-39.52,-28.78,-92.38,1785097218102.984
1.528,-0.705,-0.144,-42.42,-30.67,-116.0,1785097218113.6902
1.455,-0.66,-0.14,-45.72,-32.84,-134.22,1785097218126.946
1.42,-0.573,-0.121,-48.07,-29.54,-150.36,1785097218132.8809
1.369,-0.482,-0.12,-53.38,-25.18,-167.15,1785097218143.692
1.343,-0.432,-0.111,-63.69,-22.19,-179.6,1785097218156.925
1.319,-0.361,-0.113,-74.62,-21.15,-187.26,1785097218162.98
1.323,-0.273,-0.098,-83.68,-19.23,-191.53,1785097218173.618
1.333,-0.217,-0.055,-91.59,-18.46,-194.1,1785097218186.857
1.333,-0.189,-0.02,-100.96,-18.95,-194.95,1785097218192.7969
1.314,-0.153,0.013,-112.74,-20.02,-191.87,1785097218203.739
1.315,-0.119,0.05,-121.07,-20.26,-186.07,1785097218217.0408
1.342,-0.103,0.066,-123.97,-21.27,-178.84,1785097218223.3237
1.343,-0.101,0.069,-125.46,-25.7,-167.33,1785097218236.512
