ax,ay,az,gx,gy,gz,timestamp_ms
-0.591,-0.774,-0.471,41.54,8.61,-16.05,1785096957900.6602
-0.604,-0.81,-0.457,36.71,7.75,-18.07,1785096957901.155
-0.6,-0.849,-0.433,34.94,6.96,-20.02,1785096957901.602
-0.592,-0.886,-0.401,37.81,6.04,-21.42,1785096957902.035
-0.582,-0.909,-0.377,45.5,4.3,-21.64,1785096957902.453
-0.578,-0.915,-0.375,56.12,2.23,-20.91,1785096957902.8909
-0.564,-0.907,-0.384,66.65,-0.27,-19.78,1785096957903.5088
-0.553,-0.889,-0.392,74.68,-2.87,-19.84,1785096957903.942
-0.547,-0.875,-0.403,79.29,-5.46,-20.81,1785096957904.363
-0.544,-0.875,-0.395,81.06,-7.26,-22.34,1785096957904.772
-0.541,-0.887,-0.394,81.45,-10.65,-21.76,1785096957905.185
-0.505,-0.895,-0.393,80.78,-14.31,-19.75,1785096957905.579
-0.489,-0.886,-0.382,79.81,-16.97,-19.62,1785096957905.935
-0.482,-0.888,-0.369,79.32,-19.35,-18.86,1785096957906.288
-0.47,-0.897,-0.362,77.36,-22.0,-18.13,1785096957906.6392
-0.459,-0.911,-0.352,74.01,-25.61,-18.13,1785096957906.985
-0.459,-0.911,-0.352,71.29,-27.53,-18.34,1785096957907.3333
-0.441,-0.932,-0.331,70.62,-27.89,-19.35,1785096957907.691
-0.419,-0.964,-0.314,71.26,-30.09,-20.94,1785096957908.076
-0.412,-0.997,-0.306,71.84,-32.99,-21.67,1785096957908.4192
-0.405,-1.025,-0.288,73.18,-35.25,-21.58,1785096957908.8792
-0.392,-1.043,-0.276,73.18,-35.25,-21.58,1785096957909.3198
-0.387,-1.047,-0.268,75.26,-37.66,-21.45,1785096957909.6638
-0.375,-1.052,-0.274,77.0,-40.07,-20.29,1785096957910.046
-0.357,-1.049,-0.286,77.82,-41.51,-19.99,1785096957910.4067
-0.348,-1.037,-0.297,76.94,-43.37,-21.0,1785096957910.761
-0.33,-1.014,-0.303,73.73,-45.17,-20.97,1785096957911.1062
-0.304,-0.987,-0.299,68.06,-46.6,-20.48,1785096957911.451
-0.282,-0.977,-0.292,61.98,-47.73,-20.78,1785096957911.805
-0.259,-0.986,-0.278,55.39,-48.4,-21.82,1785096957912.159
-0.24,-0.993,-0.27,49.26,-49.23,-23.59,1785096957912.508
-0.219,-1.007,-0.281,44.83,-49.78,-25.33,1785096957912.864
-0.202,-1.016,-0.287,41.29,-49.23,-27.71,1785096957913.212
-0.201,-1.013,-0.287,37.63,-48.62,-29.97,1785096957913.558
-0.193,-1.015,-0.277,34.3,-47.91,-29.76,1785096957913.8591
-0.177,-1.018,-0.255,32.5,-46.72,-29.69,1785096957914.165
-0.159,-1.019,-0.238,33.05,-45.14,-31.13,1785096957914.471
-0.138,-1.022,-0.233,34.27,-44.01,-32.32,1785096957914.7751
-0.123,-1.027,-0.24,34.94,-42.6,-33.66,1785096957915.075
-0.114,-1.024,-0.245,35.71,-40.13,-35.8,1785096957915.378
-0.108,-1.017,-0.245,37.35,-37.45,-38.42,1785096957915.6968
-0.099,-1.004,-0.244,38.36,-35.34,-39.95,1785096957916.023
-0.126,-1.016,-0.222,39.19,-32.07,-38.48,1785096957916.336
0.002,-1.085,-0.219,39.12,-31.71,-38.54,1785096957916.6711
-0.071,-1.003,-0.194,37.93,-31.71,-57.04,1785096957916.966
-0.117,-1.003,-0.207,38.54,-27.99,-61.28,1785096957917.2559
-0.099,-1.063,-0.208,34.39,-25.48,-56.67,1785096957917.549
-0.083,-1.039,-0.175,28.23,-23.56,-55.57,1785096957917.854
-0.091,-0.982,-0.132,29.39,-19.87,-51.85,1785096957918.153
-0.059,-0.965,-0.116,36.93,-14.56,-44.65,1785096957918.442
-0.057,-0.929,-0.108,39.83,-14.56,-42.09,1785096957918.756
-0.025,-0.903,-0.06,40.35,-13.82,-43.0,1785096957919.067
-0.014,-0.92,-0.038,42.09,-11.75,-49.44,1785096957919.363
-0.037,-0.941,-0.023,40.99,-12.24,-57.5,1785096957919.672
-0.044,-0.971,-0.004,39.19,-13.31,-62.56,1785096957919.967
-0.031,-0.999,0.002,39.77,-12.48,-67.08,1785096957920.264
-0.039,-0.993,0.005,43.34,-10.68,-71.78,1785096957920.583
-0.067,-0.984,0.006,48.83,-8.85,-70.22,1785096957920.8691
-0.04,-0.967,0.017,54.11,-6.29,-63.51,1785096957921.1687
-0.021,-0.928,0.015,59.36,-3.91,-61.65,1785096957921.454
-0.026,-0.879,0.01,61.53,-2.44,-62.11,1785096957921.7139
-0.022,-0.866,0.027,60.09,-1.46,-60.82,1785096957921.984
-0.015,-0.893,0.055,56.4,-1.19,-59.27,1785096957922.26
-0.015,-0.892,0.097,50.97,-1.68,-58.14,1785096957922.53
-0.007,-0.863,0.131,48.74,-1.5,-56.98,1785096957922.783
0.014,-0.845,0.152,51.12,-0.98,-55.42,1785096957923.06
0.04,-0.844,0.165,54.05,-0.64,-54.84,1785096957923.323
0.059,-0.85,0.179,55.42,-0.95,-56.15,1785096957923.5781
0.07,-0.86,0.18,55.15,-1.83,-58.47,1785096957923.852
0.068,-0.857,0.169,51.12,-2.56,-59.82,1785096957924.127
0.071,-0.84,0.164,43.31,-3.14,-57.59,1785096957924.3892
0.092,-0.82,0.156,35.28,-3.2,-53.13,1785096957924.643
0.123,-0.804,0.159,28.78,-2.78,-48.46,1785096957924.907
0.153,-0.805,0.168,23.29,-2.78,-45.14,1785096957925.178
0.185,-0.817,0.16,16.51,-3.78,-44.83,1785096957925.433
0.186,-0.807,0.165,5.1,-6.78,-47.33,1785096957925.689
0.183,-0.809,0.183,-6.47,-8.24,-47.43,1785096957925.958
0.203,-0.845,0.192,-14.44,-8.3,-45.17,1785096957926.251
0.208,-0.875,0.198,-20.54,-9.25,-44.13,1785096957926.534
0.218,-0.889,0.204,-24.96,-10.01,-42.76,1785096957926.801
0.231,-0.908,0.194,-27.5,-9.98,-41.51,1785096957927.0642
0.226,-0.92,0.168,-30.0,-9.92,-40.96,1785096957927.3137
0.213,-0.924,0.157,-34.09,-9.77,-39.03,1785096957927.5542
0.199,-0.935,0.141,-38.7,-9.77,-35.62,1785096957927.7903
0.189,-0.945,0.133,-42.88,-9.25,-32.11,1785096957928.03
0.187,-0.948,0.133,-45.14,-8.42,-28.84,1785096957928.26
0.194,-0.956,0.13,-44.34,-7.14,-26.15,1785096957928.4968
0.19,-0.985,0.128,-40.99,-5.55,-24.26,1785096957928.797
0.188,-1.03,0.127,-35.98,-3.48,-21.88,1785096957929.062
0.201,-1.072,0.138,-28.69,-1.43,-20.11,1785096957929.2988
0.215,-1.077,0.138,-18.83,0.43,-20.63,1785096957929.543
0.21,-1.052,0.133,-9.46,1.59,-22.19,1785096957929.781
0.198,-1.025,0.12,-2.2,2.38,-21.85,1785096957930.027
0.197,-1.02,0.125,1.8,3.14,-20.29,1785096957930.264
0.195,-1.022,0.137,4.3,3.48,-19.44,1785096957930.5151
0.188,-1.01,0.148,6.2,3.45,-19.47,1785096957930.772
0.192,-1.008,0.145,9.77,4.0,-19.47,1785096957931.0059
0.186,-0.983,0.152,12.54,4.55,-19.41,1785096957931.257
0.191,-0.97,0.158,16.17,4.97,-17.46,1785096957931.5068
0.205,-0.973,0.167,20.05,5.16,-16.21,1785096957931.7397
0.213,-0.987,0.188,23.13,5.34,-16.05,1785096957932.024
0.205,-1.002,0.185,26.76,4.49,-16.48,1785096957932.273
0.195,-1.032,0.185,28.53,3.36,-16.02,1785096957932.528
0.186,-1.059,0.185,29.57,3.57,-11.63,1785096957932.78
0.173,-1.064,0.175,31.25,3.36,-8.33,1785096957933.0293
0.18,-1.072,0.168,34.36,4.27,-4.79,1785096957933.279
0.179,-1.058,0.152,38.12,5.13,-3.51,1785096957933.512
0.169,-1.009,0.138,40.16,5.34,-3.27,1785096957933.7512
0.157,-0.943,0.134,40.07,4.73,-2.5,1785096957933.993
0.153,-0.9,0.133,38.06,2.87,-0.89,1785096957934.2341
0.161,-0.873,0.148,32.81,1.22,0.12,1785096957934.466
0.173,-0.867,0.162,28.29,-0.03,-1.04,1785096957934.7048
0.175,-0.882,0.178,24.63,-1.59,-2.78,1785096957934.945
0.174,-0.886,0.187,20.36,-3.27,-3.85,1785096957935.172
0.178,-0.882,0.191,16.08,-4.73,-4.27,1785096957935.401
0.19,-0.881,0.197,11.32,-5.55,-3.75,1785096957935.627
0.205,-0.89,0.202,6.29,-6.71,-3.6,1785096957935.858
0.22,-0.917,0.202,3.2,-7.05,-3.81,1785096957936.086
0.219,-0.948,0.203,2.56,-6.84,-3.48,1785096957936.3242
0.206,-0.957,0.211,2.47,-6.56,-1.74,1785096957936.547
0.196,-0.949,0.213,1.62,-6.38,0.61,1785096957936.765
0.202,-0.961,0.213,1.31,-5.68,2.38,1785096957936.99
0.198,-0.991,0.212,0.95,-5.34,2.01,1785096957937.216
0.189,-1.007,0.216,-0.15,-5.1,1.22,1785096957937.43
0.186,-1.024,0.221,0.43,-4.43,0.76,1785096957937.669
0.183,-1.027,0.212,1.4,-3.57,0.46,1785096957937.891
0.18,-1.002,0.209,2.53,-2.75,0.49,1785096957938.13
0.19,-0.98,0.195,5.62,-1.89,0.61,1785096957938.345
0.193,-0.957,0.169,10.22,-0.46,-0.61,1785096957938.5679
0.169,-0.914,0.142,13.86,1.43,-0.82,1785096957938.7908
0.177,-0.892,0.13,16.54,3.72,2.53,1785096957939.008
0.156,-0.871,0.123,18.13,5.07,1.4,1785096957939.2322
0.147,-0.852,0.151,15.63,4.97,0.15,1785096957939.4539
0.172,-0.847,0.173,8.51,4.36,-0.46,1785096957939.673
0.19,-0.872,0.196,-0.24,4.03,-2.2,1785096957939.89
0.195,-0.925,0.228,-7.6,3.33,-4.0,1785096957940.111
0.194,-0.98,0.249,-9.89,2.35,-5.74,1785096957940.331
0.185,-1.004,0.26,-7.87,1.4,-6.41,1785096957940.5461
0.18,-0.988,0.264,-4.21,0.55,-5.37,1785096957940.763
0.177,-0.953,0.245,-0.76,0.27,-3.54,1785096957940.98
0.179,-0.909,0.226,0.4,0.58,-1.22,1785096957941.191
0.177,-0.887,0.206,-0.92,0.43,-0.7,1785096957941.3938
0.168,-0.892,0.185,-5.43,-0.12,-1.46,1785096957941.622
0.16,-0.889,0.173,-13.06,-0.89,-1.83,1785096957941.839
0.163,-0.88,0.169,-21.45,-1.92,-1.19,1785096957942.045
0.163,-0.88,0.169,-30.64,-2.69,-0.67,1785096957942.2542
0.17,-0.865,0.143,-40.31,-3.14,-0.95,1785096957942.4683
0.169,-0.863,0.123,-48.07,-3.45,-1.53,1785096957942.6912
0.171,-0.882,0.105,-52.92,-3.2,-3.14,1785096957942.9077
0.179,-0.901,0.079,-52.92,-3.2,-3.14,1785096957943.1172
0.183,-0.902,0.056,-58.47,-3.23,-4.43,1785096957943.339
0.189,-0.896,0.047,-65.86,-3.42,-3.85,1785096957943.541
0.191,-0.901,0.049,-73.43,-3.88,-2.72,1785096957943.75
0.195,-0.918,0.057,-78.98,-3.88,-0.95,1785096957943.959
0.204,-0.952,0.06,-80.63,-3.36,-0.27,1785096957944.161
0.212,-1.002,0.053,-76.63,-2.29,-1.28,1785096957944.3672
0.215,-1.05,0.039,-68.82,-1.19,-2.35,1785096957944.574
0.213,-1.067,0.022,-61.62,-0.12,-2.87,1785096957944.7788
0.212,-1.066,0.008,-55.88,1.04,-1.53,1785096957945.008
0.207,-1.07,-0.004,-50.17,2.01,0.49,1785096957945.255
0.195,-1.07,-0.021,-44.31,3.81,1.95,1785096957945.486
0.189,-1.074,-0.029,-38.03,4.97,2.2,1785096957945.696
0.204,-1.058,-0.04,-36.53,3.33,1.28,1785096957945.899
0.207,-1.023,-0.037,-38.0,3.08,1.56,1785096957946.104
0.209,-1.032,-0.046,-35.1,3.85,3.97,1785096957946.313
0.21,-1.042,-0.051,-31.59,3.88,5.07,1785096957946.521
0.202,-1.016,-0.054,-28.69,3.66,4.06,1785096957946.7312
0.206,-1.016,-0.063,-25.36,3.66,4.49,1785096957946.943
0.216,-1.045,-0.071,-23.1,3.02,5.77,1785096957947.1482
0.219,-1.071,-0.066,-20.69,2.66,6.13,1785096957947.353
0.221,-1.088,-0.059,-17.33,1.8,5.68,1785096957947.5552
0.234,-1.064,-0.047,-10.68,0.34,5.37,1785096957947.9922
0.237,-1.061,-0.047,-5.16,0.06,6.65,1785096957948.214
-0.748,-0.635,-0.589,-16.27,4.85,9.98,1785096957948.577
-0.8,-0.714,-0.606,-12.73,9.25,4.79,1785096957948.833
-0.855,-0.776,-0.585,-11.05,14.83,-4.24,1785096957949.069
-0.917,-0.814,-0.557,-8.12,18.22,-13.0,1785096957949.2842
-0.996,-0.819,-0.546,-6.47,20.54,-20.29,1785096957958.918
-1.065,-0.774,-0.525,-7.08,22.83,-26.31,1785096957972.164
-1.086,-0.752,-0.525,-4.76,24.51,-33.2,1785096957977.8079
-1.089,-0.739,-0.526,-3.3,26.4,-43.43,1785096957988.323
-1.072,-0.738,-0.564,-0.55,30.18,-53.07,1785096957998.935
-1.066,-0.724,-0.608,2.01,34.42,-62.23,1785096958012.3022
-1.078,-0.706,-0.62,3.33,35.68,-72.21,1785096958017.8572
-1.092,-0.688,-0.615,-0.55,33.94,-79.65,1785096958028.387
-1.082,-0.679,-0.611,-7.2,32.56,-83.44,1785096958038.973
-1.069,-0.676,-0.608,-12.45,31.98,-86.52,1785096958052.216
-1.058,-0.647,-0.556,-19.14,29.91,-88.11,1785096958057.9253
-1.024,-0.635,-0.531,-27.74,26.03,-88.2,1785096958068.7659
-0.968,-0.647,-0.502,-41.32,22.71,-88.23,1785096958082.081
-0.909,-0.708,-0.443,-54.96,16.24,-89.82,1785096958087.777
-0.862,-0.778,-0.429,-66.87,5.37,-91.56,1785096958098.404
-0.817,-0.801,-0.45,-79.2,-4.3,-88.72,1785096958108.8179
-0.777,-0.777,-0.475,-88.26,-12.39,-82.52,1785096958122.21
-0.74,-0.736,-0.52,-92.56,-20.33,-77.09,1785096958128.271
-0.697,-0.687,-0.57,-93.69,-26.25,-73.27,1785096958138.772
-0.648,-0.641,-0.569,-90.79,-29.94,-69.86,1785096958152.076
-0.594,-0.612,-0.544,-83.77,-34.18,-66.5,1785096958158.007
-0.539,-0.594,-0.529,-75.5,-38.21,-62.65,1785096958168.591
-0.493,-0.599,-0.514,-66.47,-40.65,-57.99,1785096958179.1602
-0.47,-0.634,-0.524,-58.66,-42.54,-53.9,1785096958192.375
-0.464,-0.671,-0.54,-57.41,-45.84,-49.71,1785096958198.4102
-0.447,-0.695,-0.589,-60.21,-50.78,-47.33,1785096958208.823
-0.399,-0.646,-0.664,-64.73,-55.24,-45.5,1785096958222.101
-0.332,-0.582,-0.717,-66.01,-56.06,-41.63,1785096958228.0251
-0.291,-0.542,-0.726,-65.71,-55.6,-39.28,1785096958238.416
-0.277,-0.502,-0.696,-66.16,-55.3,-38.82,1785096958249.295
-0.272,-0.481,-0.659,-64.15,-55.02,-38.12,1785096958262.458
-0.267,-0.499,-0.67,-60.43,-54.57,-38.09,1785096958268.5352
-0.269,-0.529,-0.729,-58.14,-52.55,-38.67,1785096958279.016
-0.275,-0.52,-0.815,-59.79,-48.43,-37.48,1785096958292.126
-0.266,-0.473,-0.871,-62.14,-41.57,-32.53,1785096958298.155
-0.239,-0.428,-0.897,-61.19,-34.09,-25.21,1785096958308.623
-0.198,-0.415,-0.912,-58.57,-26.83,-19.07,1785096958319.278
-0.175,-0.435,-0.885,-54.96,-19.96,-15.9,1785096958332.567
-0.171,-0.468,-0.814,-47.94,-14.04,-13.55,1785096958338.41
-0.171,-0.501,-0.766,-36.1,-9.49,-11.35,1785096958348.927
-0.183,-0.498,-0.731,-25.39,-5.71,-10.19,1785096958362.0898
-0.189,-0.452,-0.749,-16.27,-3.2,-9.09,1785096958368.114
-0.174,-0.357,-0.819,-9.52,0.79,-6.26,1785096958377.966
-0.136,-0.257,-0.889,-6.59,6.1,-1.92,1785096958389.043
-0.104,-0.204,-0.951,-8.06,11.26,0.55,1785096958398.9001
-0.096,-0.2,-0.976,-13.76,16.3,1.8,1785096958412.2861
-0.113,-0.224,-0.967,-22.55,20.23,3.23,1785096958418.046
-0.128,-0.272,-0.926,-30.58,23.26,4.76,1785096958428.316
-0.142,-0.34,-0.888,-32.59,24.66,4.97,1785096958438.852
-0.161,-0.384,-0.85,-29.3,24.78,4.24,1785096958452.132
-0.182,-0.38,-0.831,-22.16,23.26,3.94,1785096958458.008
-0.186,-0.344,-0.867,-13.31,21.64,4.94,1785096958468.117
-0.183,-0.295,-0.938,-6.62,21.73,6.01,1785096958478.812
-0.183,-0.232,-0.985,-4.15,22.58,6.9,1785096958489.4888
-0.179,-0.202,-1.013,-3.75,24.48,7.93,1785096958502.572
-0.179,-0.226,-1.013,-6.1,25.76,7.63,1785096958508.353
-0.195,-0.266,-1.015,-11.87,26.15,5.8,1785096958518.544
-0.223,-0.294,-1.011,-20.11,26.03,4.0,1785096958529.278
-0.239,-0.319,-1.016,-26.58,24.81,2.17,1785096958542.34
-0.241,-0.346,-1.022,-30.3,25.97,0.34,1785096958548.3389
-0.223,-0.348,-1.028,-33.05,25.76,-5.25,1785096958558.493
-0.296,-0.268,-1.018,-34.42,23.1,-16.45,1785096958569.33
-0.317,-0.241,-0.986,-31.34,23.38,-16.91,1785096958582.499
-0.254,-0.281,-0.996,-27.77,22.8,-15.2,1785096958588.438
-0.242,-0.259,-0.994,-27.22,22.8,-24.17,1785096958598.945
-0.165,-0.259,-0.988,-23.87,25.73,-29.69,1785096958612.395
0.174,-0.314,-1.071,-17.03,31.59,-31.22,1785096958618.1318
0.541,-0.351,-1.146,-9.37,44.74,-33.63,1785096958628.574
0.64,-0.428,-1.128,-4.3,54.75,-24.45,1785096958639.076
0.4,-0.512,-1.149,-10.04,50.36,-11.96,1785096958652.489
-0.062,-0.424,-1.194,-27.1,44.53,-17.76,1785096958658.2861
-0.415,-0.202,-1.216,-47.82,43.95,-32.35,1785096958668.8188
-0.371,0.01,-1.187,-66.35,50.54,-46.85,1785096958682.122
-0.206,0.056,-1.076,-75.23,61.89,-60.12,1785096958687.9932
-0.154,-0.059,-0.974,-73.31,67.45,-57.04,1785096958698.582
-0.187,-0.188,-0.891,-58.63,68.7,-44.4,1785096958709.248
-0.246,-0.258,-0.863,-31.65,65.1,-34.27,1785096958722.409
-0.298,-0.27,-0.932,-5.16,57.86,-25.18,1785096958728.333
-0.319,-0.239,-1.04,6.74,53.74,-17.18,1785096958738.6382
-0.319,-0.185,-1.138,3.42,56.58,-13.21,1785096958749.36
-0.309,-0.223,-1.225,-6.96,62.84,-11.99,1785096958762.808
-0.296,-0.341,-1.287,-19.23,68.85,-12.94,1785096958768.424
-0.309,-0.444,-1.286,-29.6,76.97,-11.99,1785096958778.978
-0.286,-0.52,-1.225,-30.55,88.38,-5.28,1785096958789.434
-0.265,-0.566,-1.145,-20.11,96.35,-2.75,1785096958802.625
-0.248,-0.632,-1.077,-2.53,99.77,-2.62,1785096958808.548
-0.2,-0.72,-1.024,15.69,110.57,-4.03,1785096958818.872
-0.156,-0.763,-1.056,27.19,123.17,-7.48,1785096958832.149
-0.161,-0.689,-1.1,27.16,132.15,-14.37,1785096958838.019
-0.161,-0.689,-1.1,19.53,131.96,-20.39,1785096958848.7493
-0.198,-0.581,-1.147,8.39,130.5,-23.65,1785096958859.3591
-0.129,-0.49,-1.159,3.08,140.26,-31.77,1785096958872.59
0.015,-0.412,-1.08,9.0,151.31,-43.95,1785096958878.7388
0.103,-0.392,-1.017,18.4,157.75,-57.68,1785096958889.2998
0.194,-0.397,-1.039,18.4,157.75,-57.68,1785096958902.431
0.288,-0.375,-1.061,21.64,158.48,-69.83,1785096958908.3728
0.377,-0.366,-1.048,17.91,156.35,-75.26,1785096958919.143
0.441,-0.342,-0.976,13.61,155.92,-76.3,1785096958932.54
0.498,-0.295,-0.913,15.41,153.94,-77.55,1785096958938.1099
0.573,-0.215,-0.899,19.96,151.46,-79.29,1785096958948.933
0.662,-0.13,-0.917,22.16,150.73,-81.39,1785096958962.6528
0.722,-0.076,-0.948,22.37,150.76,-85.94,1785096958968.3188
0.771,-0.052,-0.951,22.22,150.49,-92.1,1785096958979.229
0.866,-0.039,-0.95,21.27,149.39,-99.61,1785096958992.3542
0.943,-0.025,-0.957,18.4,146.52,-107.46,1785096958998.368
0.989,-0.022,-0.942,9.16,143.99,-112.77,1785096959009.2622
1.038,-0.041,-0.903,-7.08,143.83,-115.27,1785096959022.351
1.1,-0.054,-0.819,-26.34,144.9,-118.08,1785096959028.404
1.147,-0.02,-0.671,-44.04,143.01,-119.21,1785096959039.215
1.175,0.049,-0.542,-54.72,135.9,-114.2,1785096959052.578
1.186,0.081,-0.465,-53.96,126.29,-104.77,1785096959058.414
1.16,0.062,-0.45,-41.38,117.62,-97.05,1785096959069.4988
1.186,0.046,-0.484,-28.17,109.32,-89.85,1785096959082.7498
1.208,0.041,-0.524,-24.75,98.45,-84.32,1785096959088.5298
1.186,-0.004,-0.547,-29.76,88.2,-79.99,1785096959099.18
1.125,-0.055,-0.53,-42.6,75.2,-71.05,1785096959112.552
1.002,-0.107,-0.499,-56.4,54.84,-58.66,1785096959118.388
0.868,-0.11,-0.479,-63.54,34.21,-44.13,1785096959129.06
0.779,-0.129,-0.484,-61.65,15.99,-26.22,1785096959142.133
0.689,-0.104,-0.475,-57.37,-0.95,-8.76,1785096959147.651
0.583,-0.047,-0.464,-53.16,-19.75,9.55,1785096959158.262
0.46,-0.048,-0.479,-44.8,-37.84,28.23,1785096959168.771
0.314,-0.101,-0.506,-34.61,-51.33,45.53,1785096959182.109
0.193,-0.161,-0.564,-25.27,-61.31,61.31,1785096959188.1543
0.073,-0.211,-0.652,-19.53,-70.83,75.23,1785096959198.693
-0.057,-0.239,-0.714,-21.76,-80.63,86.34,1785096959209.414
-0.208,-0.227,-0.713,-30.82,-93.87,94.76,1785096959222.531
-0.355,-0.182,-0.709,-43.28,-107.15,103.7,1785096959228.706
-0.478,-0.149,-0.716,-56.0,-118.2,115.79,1785096959239.361
-0.582,-0.249,-0.752,-58.17,-124.7,124.64,1785096959252.59
-0.703,-0.435,-0.827,-53.68,-125.8,126.5,1785096959258.534
-0.788,-0.585,-0.885,-47.85,-117.83,125.25,1785096959272.017
-0.841,-0.655,-0.957,-38.21,-103.43,122.14,1785096959277.9993
-0.881,-0.711,-1.109,-24.84,-85.39,118.78,1785096959288.9421
-0.898,-0.791,-1.299,-15.44,-66.84,112.22,1785096959302.175
-0.864,-0.863,-1.441,-13.15,-45.72,97.29,1785096959308.096
-0.795,-0.848,-1.438,-15.96,-21.58,77.24,1785096959318.675
-0.73,-0.754,-1.323,-17.82,3.39,55.91,1785096959329.5842
-0.714,-0.654,-1.211,-13.21,28.96,28.08,1785096959342.531
-0.703,-0.603,-1.162,-6.96,55.39,-3.88,1785096959348.553
-0.71,-0.605,-1.111,-4.85,81.06,-37.57,1785096959358.664
-0.782,-0.593,-1.043,-6.99,101.9,-70.71,1785096959369.454
-0.875,-0.563,-0.967,-7.9,121.19,-97.11,1785096959382.6921
-0.911,-0.567,-0.94,-6.96,139.26,-115.24,1785096959388.6057
-0.829,-0.551,-0.955,-12.3,154.97,-127.6,1785096959399.345
-0.717,-0.493,-0.944,-23.22,167.7,-138.62,1785096959412.6028
-0.62,-0.473,-0.93,-31.31,177.68,-146.82,1785096959418.528
-0.509,-0.418,-0.91,-39.8,182.93,-148.96,1785096959432.062
-0.348,-0.329,-0.867,-45.32,185.49,-143.96,1785096959437.992
-0.142,-0.228,-0.814,-42.79,185.83,-138.13,1785096959449.123
0.039,-0.147,-0.737,-32.99,185.06,-132.33,1785096959462.186
0.272,-0.104,-0.645,-17.27,184.76,-125.34,1785096959467.957
0.5,-0.03,-0.563,-3.81,180.36,-117.37,1785096959479.1208
0.684,0.079,-0.486,6.07,172.98,-106.48,1785096959492.359
0.86,0.168,-0.408,14.83,165.2,-93.57,1785096959498.3198
1.046,0.231,-0.347,20.75,157.23,-82.09,1785096959509.2349
1.19,0.293,-0.276,23.8,148.63,-74.07,1785096959522.298
1.288,0.362,-0.206,23.04,137.06,-65.89,1785096959528.2878
1.356,0.442,-0.108,21.7,126.01,-55.6,1785096959538.999
1.413,0.498,-0.017,27.22,115.21,-44.71,1785096959552.2969
1.475,0.562,0.002,38.88,106.17,-38.24,1785096959558.16
1.568,0.628,0.017,52.03,99.89,-34.73,1785096959568.943
1.675,0.667,0.032,62.44,93.84,-31.86,1785096959582.203
1.767,0.724,0.07,71.63,88.72,-28.9,1785096959588.0862
1.846,0.755,0.077,81.97,81.73,-24.93,1785096959598.635
1.88,0.804,0.087,84.72,73.58,-23.56,1785096959609.395
1.902,0.816,0.125,78.13,64.88,-21.85,1785096959622.55
1.877,0.811,0.149,66.74,55.21,-21.15,1785096959628.664
1.877,0.773,0.163,49.5,46.02,-18.52,1785096959638.926
1.801,0.758,0.185,29.6,37.17,-18.07,1785096959652.2932
1.721,0.725,0.171,11.84,30.98,-16.75,1785096959658.076
1.643,0.684,0.157,-7.69,25.09,-15.38,1785096959668.303
1.579,0.636,0.145,-28.2,16.75,-14.5,1785096959679.229
1.487,0.61,0.142,-44.8,7.54,-11.72,1785096959692.42
1.443,0.581,0.111,-54.38,-2.62,-5.65,1785096959698.408
1.402,0.556,0.07,-60.52,-14.25,1.62,1785096959708.531
1.369,0.518,0.051,-63.36,-26.31,11.54,1785096959719.147
1.34,0.486,0.041,-62.72,-39.58,23.68,1785096959732.507
1.301,0.469,0.033,-60.3,-53.41,37.39,1785096959738.3628
1.248,0.449,0.017,-56.89,-66.71,51.27,1785096959748.914
1.168,0.43,-0.005,-56.25,-81.0,64.39,1785096959762.244
1.085,0.405,-0.028,-59.85,-95.07,75.93,1785096959768.158
1.013,0.398,-0.039,-65.77,-109.35,85.15,1785096959778.7688
0.942,0.39,-0.059,-69.83,-123.75,93.69,1785096959791.925
0.857,0.359,-0.098,-68.12,-136.54,101.96,1785096959797.9783
0.728,0.312,-0.128,-61.71,-149.08,109.13,1785096959809.017
0.57,0.263,-0.152,-53.47,-164.4,117.34,1785096959822.3071
0.386,0.199,-0.154,-41.2,-182.68,130.19,1785096959828.1448
0.183,0.137,-0.16,-22.19,-205.51,145.39,1785096959839.118
-0.026,0.076,-0.234,0.82,-228.58,159.4,1785096959852.366
-0.257,0.045,-0.288,23.13,-249.58,173.31,1785096959858.345
-0.489,0.023,-0.415,44.13,-273.05,185.77,1785096959869.024
-0.651,-0.11,-0.737,57.77,-287.36,192.66,1785096959882.6858
-0.868,-0.24,-1.016,48.43,-287.21,190.19,1785096959888.6677
-1.072,-0.325,-1.218,18.28,-277.54,194.01,1785096959901.945
-1.211,-0.445,-1.392,-14.95,-256.14,199.38,1785096959907.864
-1.298,-0.561,-1.633,-40.47,-226.87,192.39,1785096959918.814
-1.29,-0.654,-1.956,-57.5,-192.48,171.54,1785096959932.148
-1.116,-0.73,-2.17,-67.72,-149.14,139.96,1785096959938.028
-0.802,-0.809,-2.073,-71.81,-100.8,104.53,1785096959949.2412
-0.445,-0.856,-1.734,-68.61,-53.53,68.54,1785096959962.4487
-0.194,-0.819,-1.341,-57.31,-12.54,32.23,1785096959968.2441
-0.09,-0.721,-1.005,-37.97,16.42,-3.6,1785096959978.7441
-0.101,-0.598,-0.832,-13.73,33.05,-41.32,1785096959989.4553
-0.216,-0.471,-0.859,9.4,48.62,-81.97,1785096960002.598
-0.413,-0.405,-1.0,24.66,72.6,-120.76,1785096960008.168
-0.635,-0.424,-1.164,23.68,100.16,-149.97,1785096960019.113
-0.776,-0.505,-1.285,8.85,129.37,-166.78,1785096960032.608
-0.799,-0.582,-1.372,-8.64,157.54,-175.79,1785096960038.398
-0.711,-0.636,-1.41,-20.87,181.19,-181.28,1785096960049.4668
-0.58,-0.639,-1.413,-24.72,194.86,-184.24,1785096960062.842
-0.43,-0.573,-1.368,-24.11,204.69,-184.82,1785096960068.5398
-0.31,-0.45,-1.259,-22.74,216.32,-179.27,1785096960082.0059
-0.188,-0.348,-1.137,-18.8,224.65,-166.75,1785096960087.986
-0.078,-0.287,-0.991,-10.83,224.37,-156.65,1785096960098.92
0.046,-0.224,-0.862,-2.08,216.1,-151.8,1785096960112.1863
0.225,-0.139,-0.768,5.13,205.85,-143.35,1785096960118.165
0.407,-0.067,-0.694,15.17,198.74,-130.01,1785096960129.029
0.407,-0.067,-0.694,26.64,195.93,-116.09,1785096960142.361
0.648,0.024,-0.6,33.14,190.1,-104.16,1785096960148.342
0.817,0.178,-0.466,35.49,180.67,-88.87,1785096960158.968
0.933,0.276,-0.373,31.56,168.43,-79.17,1785096960172.071
1.075,0.324,-0.292,31.56,168.43,-79.17,1785096960177.8828
1.129,0.38,-0.203,21.67,154.55,-77.79,1785096960189.0503
1.184,0.415,-0.128,12.09,145.18,-75.29,1785096960202.293
1.241,0.464,-0.055,4.24,138.74,-69.58,1785096960208.261
1.297,0.519,0.026,2.96,133.7,-61.43,1785096960218.8318
1.355,0.57,0.064,9.19,129.8,-56.4,1785096960232.1238
1.385,0.589,0.093,16.6,128.82,-52.1,1785096960238.0002
1.471,0.606,0.139,21.73,128.48,-47.15,1785096960248.728
1.555,0.661,0.206,27.31,126.1,-42.27,1785096960262.0261
1.594,0.728,0.294,35.74,122.62,-36.32,1785096960267.96
1.647,0.764,0.363,46.11,116.67,-29.36,1785096960278.745
1.702,0.753,0.411,54.45,102.27,-21.42,1785096960289.5269
1.664,0.752,0.413,59.94,78.07,-11.69,1785096960302.639
1.644,0.751,0.388,63.88,62.9,-5.01,1785096960308.63
1.632,0.731,0.372,58.08,55.48,-2.99,1785096960318.918
1.598,0.69,0.362,43.52,47.49,-2.87,1785096960332.203
1.58,0.651,0.353,25.3,37.11,-2.47,1785096960338.051
1.546,0.623,0.321,5.95,25.03,-1.83,1785096960348.2827
1.49,0.612,0.298,-13.37,13.76,-0.46,1785096960358.84
1.446,0.597,0.296,-29.66,3.85,2.9,1785096960369.355
1.392,0.575,0.288,-40.25,-6.16,7.97,1785096960382.536
1.352,0.551,0.27,-44.13,-15.66,13.86,1785096960388.574
1.336,0.528,0.236,-43.7,-24.99,19.5,1785096960398.8809
1.312,0.506,0.207,-42.27,-35.89,26.31,1785096960412.1458
1.293,0.489,0.178,-40.56,-48.28,33.72,1785096960418.035
1.267,0.467,0.124,-38.61,-60.15,39.89,1785096960428.599
1.231,0.436,0.078,-37.42,-70.04,45.41,1785096960439.2852
1.191,0.41,0.036,-37.48,-80.57,52.8,1785096960452.5981
1.145,0.395,-0.005,-36.44,-91.1,61.46,1785096960458.544
1.062,0.381,-0.042,-34.12,-103.49,71.66,1785096960468.8499
0.968,0.363,-0.072,-30.85,-115.7,82.98,1785096960482.076
0.877,0.352,-0.092,-27.16,-127.41,94.12,1785096960488.321
0.79,0.355,-0.114,-23.26,-141.36,104.59,1785096960499.088
0.695,0.351,-0.156,-18.46,-157.44,113.9,1785096960512.393
0.569,0.308,-0.186,-11.51,-170.9,123.11,1785096960518.2898
0.415,0.246,-0.202,-3.02,-182.93,134.1,1785096960529.554
0.253,0.179,-0.223,6.44,-197.39,146.98,1785096960542.398
0.088,0.117,-0.277,18.52,-213.9,159.7,1785096960548.522
-0.052,0.052,-0.352,31.53,-231.82,169.13,1785096960559.229
-0.191,-0.025,-0.449,40.19,-250.74,171.48,1785096960572.601
-0.345,-0.091,-0.571,38.42,-270.21,168.74,1785096960578.486
-0.479,-0.158,-0.756,30.4,-287.21,167.33,1785096960592.036
-0.613,-0.306,-0.947,24.35,-293.44,169.47,1785096960598.0698
-0.816,-0.46,-1.101,22.4,-286.84,169.62,1785096960609.069
-1.001,-0.544,-1.292,24.96,-270.15,169.35,1785096960622.229
-1.065,-0.59,-1.527,32.65,-242.16,166.17,1785096960628.267
-1.024,-0.619,-1.751,40.65,-209.45,153.32,1785096960639.257
-0.841,-0.591,-1.89,36.56,-175.3,136.42,1785096960652.4531
-0.548,-0.538,-1.845,19.04,-139.01,119.82,1785096960658.3838
-0.264,-0.498,-1.625,-5.62,-105.29,102.94,1785096960669.4631
-0.046,-0.504,-1.366,-28.23,-77.46,85.79,1785096960682.594
0.107,-0.593,-1.178,-41.02,-52.67,64.58,1785096960688.541
0.181,-0.694,-1.066,-43.7,-26.8,34.09,1785096960699.05
0.147,-0.713,-0.959,-38.36,1.31,-3.23,1785096960712.3489
0.041,-0.674,-0.963,-22.43,28.14,-42.36,1785096960718.163
-0.074,-0.647,-1.075,0.06,55.24,-81.42,1785096960728.529
-0.214,-0.658,-1.179,19.23,79.07,-118.02,1785096960739.183
-0.341,-0.648,-1.25,25.85,97.14,-146.09,1785096960752.543
-0.415,-0.613,-1.233,21.15,113.16,-162.08,1785096960758.473
-0.482,-0.584,-1.174,13.86,126.65,-170.14,1785096960769.7249
-0.544,-0.553,-1.174,1.19,136.94,-174.17,1785096960782.708
-0.528,-0.491,-1.115,-20.11,149.39,-175.7,1785096960788.616
-0.505,-0.45,-1.064,-34.94,159.67,-180.64,1785096960801.964
-0.465,-0.464,-1.08,-39.77,167.3,-187.54,1785096960807.936
-0.405,-0.503,-1.122,-37.42,176.03,-191.32,1785096960818.958
-0.272,-0.514,-1.16,-28.47,185.95,-190.74,1785096960832.264
-0.124,-0.492,-1.158,-10.25,195.1,-187.81,1785096960838.1199
-0.003,-0.449,-1.093,13.49,202.0,-179.3,1785096960849.374
0.118,-0.368,-0.972,32.75,203.99,-161.23,1785096960862.53
0.239,-0.263,-0.862,43.09,200.93,-138.31,1785096960868.491
0.257,-0.168,-0.768,47.43,196.42,-117.28,1785096960879.513
0.309,-0.101,-0.697,44.8,191.93,-97.9,1785096960892.6047
0.533,-0.083,-0.628,33.94,189.61,-86.55,1785096960898.6099
0.665,-0.003,-0.477,12.57,184.0,-83.56,1785096960909.44
0.808,0.09,-0.333,-9.8,174.54,-77.3,1785096960922.553
0.897,0.175,-0.179,-24.02,165.29,-72.21,1785096960928.666
0.95,0.218,-0.055,-27.92,155.67,-66.01,1785096960939.188
0.99,0.211,0.012,-21.33,148.59,-62.07,1785096960952.512
1.009,0.223,0.064,-9.43,142.06,-58.9,1785096960958.365
1.06,0.254,0.108,4.76,135.38,-51.48,1785096960969.191
1.182,0.308,0.126,20.05,131.2,-41.51,1785096960982.339
1.327,0.408,0.156,30.61,124.42,-31.37,1785096960988.153
1.401,0.432,0.202,44.37,116.4,-23.62,1785096960998.972
1.449,0.453,0.245,57.68,107.49,-20.14,1785096961012.3079
1.514,0.479,0.263,67.23,97.63,-11.08,1785096961018.11
1.586,0.618,0.29,73.55,87.13,-1.19,1785096961028.9878
1.621,0.792,0.339,85.6,72.24,14.04,1785096961039.338
1.655,0.876,0.348,100.89,56.86,25.51,1785096961052.58
1.651,0.956,0.406,108.65,44.01,27.5,1785096961059.399
1.669,0.994,0.418,109.44,32.14,29.39,1785096961069.509
1.67,1.054,0.455,103.49,21.88,25.3,1785096961082.607
1.694,1.075,0.41,99.12,11.63,23.47,1785096961088.608
1.668,0.91,0.338,85.27,2.69,24.81,1785096961099.02
1.648,0.765,0.293,59.36,-4.88,14.92,1785096961112.7778
1.614,0.635,0.278,26.43,-12.7,8.64,1785096961118.2917
1.591,0.552,0.248,-3.23,-21.85,7.11,1785096961128.347
1.549,0.48,0.219,-24.29,-31.31,9.7,1785096961138.896
1.513,0.407,0.18,-36.38,-39.25,13.43,1785096961152.116
1.482,0.356,0.136,-41.51,-45.38,16.94,1785096961158.022
1.465,0.299,0.096,-42.73,-50.05,22.61,1785096961168.612
1.449,0.261,0.051,-44.04,-55.18,27.22,1785096961179.279
1.443,0.244,0.022,-44.86,-60.18,29.73,1785096961192.558
1.43,0.238,0.016,-44.47,-65.28,31.34,1785096961198.491
1.398,0.245,0.016,-44.34,-70.68,34.39,1785096961209.006
1.342,0.241,0.008,-42.97,-74.19,38.88,1785096961222.162
1.276,0.238,-0.016,-40.74,-77.0,44.92,1785096961228.138
1.194,0.219,-0.054,-37.84,-79.87,50.87,1785096961238.61
1.108,0.167,-0.083,-33.88,-83.83,56.46,1785096961249.326
1.047,0.108,-0.148,-30.95,-88.56,60.88,1785096961262.5479
0.986,0.056,-0.206,-31.37,-91.98,65.68,1785096961268.461
0.923,0.01,-0.234,-33.6,-97.29,73.06,1785096961279.031
0.87,-0.009,-0.263,-35.43,-106.08,82.03,1785096961292.236
0.807,0.003,-0.285,-36.26,-117.28,92.26,1785096961298.217
0.727,0.017,-0.283,-33.57,-131.23,102.88,1785096961309.175
0.627,0.029,-0.286,-28.05,-147.71,114.11,1785096961322.28
0.507,0.023,-0.294,-19.04,-164.74,126.5,1785096961328.359
0.352,-0.022,-0.294,-4.73,-181.37,137.82,1785096961339.221
0.158,-0.111,-0.357,13.82,-197.49,147.86,1785096961352.4438
-0.035,-0.234,-0.489,27.44,-208.08,157.26,1785096961358.382
-0.227,-0.312,-0.591,25.79,-214.76,165.29,1785096961369.4202
-0.391,-0.303,-0.653,10.96,-224.22,172.55,1785096961382.6968
-0.502,-0.301,-0.741,-7.02,-236.43,179.14,1785096961388.715
-0.549,-0.374,-0.907,-26.52,-245.0,178.9,1785096961402.0159
-0.61,-0.444,-1.053,-52.19,-245.64,169.5,1785096961407.9949
-0.61,-0.444,-1.053,-78.22,-241.49,161.69,1785096961418.981
-0.744,-0.423,-1.256,-93.36,-222.75,163.46,1785096961432.251
-0.873,-0.378,-1.472,-99.31,-194.92,165.23,1785096961438.151
-0.922,-0.4,-1.633,-104.5,-167.15,154.61,1785096961449.3298
-0.86,-0.444,-1.738,-109.07,-138.46,129.31,1785096961462.655
-0.718,-0.45,-1.688,-109.07,-138.46,129.31,1785096961468.458
-0.489,-0.477,-1.513,-106.3,-111.94,103.09,1785096961481.942
-0.228,-0.568,-1.317,-96.68,-87.74,82.4,1785096961488.197
-0.002,-0.652,-1.164,-84.57,-64.85,59.14,1785096961498.882
0.141,-0.631,-1.108,-70.38,-44.77,29.42,1785096961512.0571
0.187,-0.518,-1.136,-53.19,-23.62,-3.39,1785096961517.9697
0.132,-0.396,-1.171,-35.92,1.43,-34.21,1785096961528.3342
0.02,-0.346,-1.168,-20.05,28.57,-60.73,1785096961538.967
-0.084,-0.403,-1.214,-2.5,54.35,-86.83,1785096961552.212
-0.177,-0.501,-1.266,12.09,78.01,-112.19,1785096961558.277
-0.274,-0.552,-1.222,19.38,98.7,-131.2,1785096961568.8052
-0.342,-0.553,-1.155,24.93,114.75,-142.43,1785096961582.113
-0.393,-0.516,-1.147,32.87,125.83,-149.36,1785096961588.0908
-0.384,-0.487,-1.226,39.12,136.05,-154.79,1785096961599.0159
-0.388,-0.459,-1.229,34.61,147.53,-162.97,1785096961612.3352
-0.427,-0.461,-1.189,23.71,159.15,-168.92,1785096961618.218
-0.475,-0.552,-1.146,16.14,169.77,-175.63,1785096961629.453
-0.511,-0.588,-1.093,8.55,175.08,-187.35,1785096961642.512
-0.37,-0.576,-1.086,6.01,179.82,-193.88,1785096961648.608
-0.157,-0.553,-1.032,8.51,186.71,-194.89,1785096961659.201
-0.05,-0.467,-0.927,10.1,189.76,-190.04,1785096961672.5278
0.008,-0.42,-0.866,18.1,193.37,-179.42,1785096961678.439
0.065,-0.375,-0.809,28.29,196.78,-168.61,1785096961689.898
0.25,-0.279,-0.759,30.7,195.41,-158.97,1785096961702.7021
0.43,-0.095,-0.678,22.0,187.63,-155.52,1785096961708.696
0.584,0.07,-0.62,8.09,176.43,-150.61,1785096961722.056
0.675,0.154,-0.556,-4.36,168.0,-144.02,1785096961728.053
0.849,0.19,-0.488,-14.83,163.24,-137.15,1785096961738.8867
0.935,0.254,-0.36,-23.62,159.15,-133.61,1785096961752.156
0.953,0.322,-0.201,-23.07,152.87,-125.4,1785096961758.059
0.997,0.335,-0.103,-12.33,144.63,-113.22,1785096961769.3372
1.002,0.37,-0.025,0.73,134.59,-103.82,1785096961782.405
1.018,0.414,0.009,15.53,126.62,-96.26,1785096961788.328
1.04,0.464,0.005,29.33,123.39,-93.26,1785096961799.1401
1.155,0.548,0.002,37.2,121.04,-91.59,1785096961812.5251
1.198,0.626,0.029,44.31,116.0,-85.97,1785096961818.3523
1.248,0.67,0.03,53.74,109.53,-79.17,1785096961829.376
1.272,0.752,0.074,66.65,102.82,-71.57,1785096961842.273
1.34,0.777,0.079,83.71,95.07,-57.83,1785096961848.4048
1.344,0.861,0.099,95.37,86.49,-50.45,1785096961858.8108
1.358,0.953,0.171,101.69,78.07,-44.37,1785096961872.126
1.405,1.021,0.178,106.05,68.06,-36.13,1785096961878.03
1.395,1.092,0.208,100.22,57.31,-27.65,1785096961888.824
1.406,1.174,0.231,92.75,44.47,-21.91,1785096961899.4949
1.389,1.201,0.226,85.45,32.32,-16.08,1785096961912.8298
1.361,1.177,0.214,73.92,22.4,-9.06,1785096961918.6711
1.342,1.094,0.169,58.9,14.98,-2.11,1785096961929.2249
1.311,0.965,0.109,39.28,11.32,2.44,1785096961942.1921
1.267,0.842,0.077,11.93,8.67,6.13,1785096961948.323
1.234,0.765,0.07,-17.94,3.3,11.47,1785096961958.32
1.205,0.718,0.067,-41.57,-3.57,19.01,1785096961968.987
1.177,0.675,0.062,-56.37,-10.65,28.87,1785096961982.249
1.162,0.645,0.059,-64.39,-17.4,39.43,1785096961988.1338
1.142,0.623,0.064,-65.92,-25.15,50.66,1785096961998.595
1.144,0.589,0.047,-60.7,-33.3,61.37,1785096962009.3599
1.134,0.56,0.02,-52.64,-40.07,70.13,1785096962022.5068
1.144,0.515,-0.007,-44.77,-45.14,78.65,1785096962028.622
1.137,0.478,-0.037,-38.67,-50.81,86.4,1785096962038.942
1.114,0.434,-0.064,-35.22,-56.73,93.69,1785096962052.194
1.078,0.399,-0.088,-34.7,-63.33,99.98,1785096962058.186
1.05,0.361,-0.128,-36.47,-70.44,106.36,1785096962068.809
1.027,0.341,-0.162,-40.53,-78.1,111.85,1785096962082.1208
0.997,0.328,-0.189,-45.96,-86.55,117.34,1785096962087.9639
0.96,0.317,-0.21,-52.37,-95.74,122.96,1785096962098.731
0.908,0.304,-0.221,-57.37,-105.47,128.33,1785096962111.9978
0.845,0.288,-0.225,-59.05,-115.3,133.98,1785096962117.9478
0.777,0.262,-0.234,-56.22,-125.13,139.56,1785096962129.359
0.679,0.233,-0.253,-50.02,-134.89,144.84,1785096962142.151
0.574,0.2,-0.27,-42.33,-143.83,152.04,1785096962148.216
0.472,0.172,-0.283,-34.15,-153.69,161.32,1785096962159.136
0.359,0.152,-0.294,-25.48,-166.14,171.09,1785096962172.404
0.234,0.127,-0.318,-15.53,-181.62,180.55,1785096962178.435
0.119,0.087,-0.387,-4.85,-199.13,188.94,1785096962189.343
-0.002,0.012,-0.479,5.01,-213.51,194.07,1785096962202.529
-0.138,-0.107,-0.56,10.71,-226.42,196.66,1785096962208.531
-0.334,-0.209,-0.626,9.37,-240.91,198.71,1785096962219.334
-0.534,-0.277,-0.734,2.32,-256.57,208.5,1785096962232.591
-0.672,-0.369,-0.9,-3.17,-266.4,222.39,1785096962238.515
-0.75,-0.508,-1.132,-1.92,-264.11,224.92,1785096962249.522
-0.787,-0.655,-1.396,1.34,-248.88,209.91,1785096962262.6008
-0.838,-0.679,-1.639,-3.27,-226.48,186.74,1785096962268.5142
-0.85,-0.635,-1.824,-14.74,-199.53,171.7,1785096962279.382
-0.728,-0.685,-1.895,-25.57,-167.58,165.72,1785096962292.659
-0.518,-0.784,-1.774,-34.79,-134.83,152.01,1785096962298.701
-0.285,-0.847,-1.603,-34.88,-106.23,125.92,1785096962312.0762
-0.077,-0.825,-1.424,-31.46,-76.82,96.96,1785096962317.962
0.074,-0.738,-1.207,-30.64,-47.15,71.11,1785096962328.732
0.17,-0.696,-1.076,-27.41,-22.06,42.94,1785096962339.252
0.177,-0.676,-1.037,-25.54,-0.76,7.6,1785096962352.5022
0.104,-0.619,-1.001,-23.99,18.34,-28.99,1785096962358.418
0.006,-0.586,-0.98,-12.05,33.88,-61.46,1785096962368.996
-0.087,-0.631,-1.042,9.86,45.99,-91.22,1785096962379.394
-0.182,-0.657,-1.047,28.72,58.87,-118.05,1785096962392.662
-0.296,-0.665,-1.068,47.18,70.38,-137.76,1785096962398.5999
-0.362,-0.672,-1.16,62.38,83.53,-150.82,1785096962409.3262
-0.412,-0.622,-1.156,61.95,97.6,-157.84,1785096962422.572
-0.391,-0.559,-1.142,50.14,108.98,-159.25,1785096962428.698
-0.307,-0.524,-1.11,35.1,118.59,-161.75,1785096962441.933
-0.222,-0.487,-1.101,20.05,124.58,-166.78,1785096962447.9822
-0.176,-0.424,-1.082,2.29,129.46,-168.95,1785096962458.789
-0.171,-0.406,-1.052,-12.67,136.23,-164.01,1785096962472.095
-0.145,-0.46,-1.025,-20.29,143.71,-158.7,1785096962477.9849
-0.13,-0.487,-0.95,-21.0,149.88,-158.94,1785096962489.265
-0.052,-0.479,-0.896,-9.92,152.75,-158.42,1785096962502.29
0.071,-0.454,-0.889,9.52,157.05,-154.06,1785096962508.278
0.23,-0.436,-0.859,27.83,163.73,-144.17,1785096962519.114
0.305,-0.381,-0.801,35.31,163.82,-133.37,1785096962532.4092
0.314,-0.305,-0.732,32.44,155.89,-121.52,1785096962538.334
0.354,-0.229,-0.625,28.05,143.22,-112.61,1785096962549.3381
0.389,-0.224,-0.561,29.05,132.21,-108.77,1785096962562.687
0.487,-0.225,-0.536,31.1,130.22,-106.85,1785096962568.542
0.65,-0.173,-0.501,32.35,134.31,-101.78,1785096962582.05
0.799,-0.075,-0.406,36.01,134.98,-94.82,1785096962587.934
0.962,-0.016,-0.392,42.85,131.84,-90.43,1785096962598.816
1.002,0.035,-0.33,41.93,126.99,-88.29,1785096962612.171
1.04,0.094,-0.261,32.53,118.38,-82.55,1785096962617.97
1.041,0.149,-0.194,24.05,108.71,-74.92,1785096962629.118
1.061,0.167,-0.146,25.18,102.08,-68.76,1785096962642.005
1.117,0.174,-0.153,29.82,96.62,-67.35,1785096962648.01
1.21,0.323,-0.099,34.06,92.62,-67.78,1785096962658.504
1.284,0.327,-0.151,41.69,84.96,-56.79,1785096962669.292
1.297,0.386,-0.141,40.5,80.81,-53.93,1785096962682.509
1.342,0.435,-0.122,39.12,74.5,-47.91,1785096962688.449
1.342,0.435,-0.122,43.49,65.65,-40.47,1785096962698.923
1.351,0.48,-0.102,52.19,55.06,-33.05,1785096962712.278
1.376,0.521,-0.082,60.58,44.83,-25.97,1785096962718.0933
1.387,0.551,-0.066,65.13,37.84,-19.07,1785096962728.628
1.396,0.562,-0.05,65.98,31.56,-16.97,1785096962739.248
1.419,0.583,-0.05,65.98,31.56,-16.97,1785096962752.4978
1.425,0.632,-0.059,63.72,24.6,-13.76,1785096962758.391
1.381,0.582,-0.067,55.51,18.71,-5.16,1785096962768.9888
1.374,0.57,-0.076,47.94,15.53,-1.74,1785096962779.444
1.38,0.557,-0.104,42.97,13.37,0.85,1785096962792.621
1.389,0.531,-0.117,31.86,10.77,3.6,1785096962798.605
1.394,0.521,-0.108,17.67,5.55,6.5,1785096962808.7139
1.381,0.519,-0.097,6.1,-0.46,9.09,1785096962819.0862
1.358,0.503,-0.1,-2.59,-5.46,12.39,1785096962832.295
1.326,0.463,-0.122,-10.04,-8.0,16.21,1785096962838.1172
1.293,0.42,-0.14,-17.55,-9.34,21.12,1785096962848.4878
1.255,0.392,-0.135,-23.13,-10.38,27.65,1785096962859.107
1.245,0.359,-0.134,-23.96,-13.49,34.61,1785096962872.3918
1.227,0.313,-0.137,-20.75,-17.03,40.99,1785096962878.372
1.216,0.264,-0.154,-18.31,-21.03,48.95,1785096962889.457
