ax,ay,az,gx,gy,gz,timestamp_ms
0.225,-0.987,-0.246,47.4,-12.6,4.76,1785097050347.6929
0.204,-0.967,-0.295,41.29,-11.38,5.1,1785097050366.9062
0.207,-0.941,-0.341,31.65,-8.73,5.04,1785097050367.379
0.223,-0.923,-0.343,19.9,-6.87,3.88,1785097050367.808
0.252,-0.949,-0.302,10.47,-3.75,2.81,1785097050368.2307
0.258,-0.991,-0.232,2.78,-1.89,1.07,1785097050368.661
0.25,-1.015,-0.185,-3.27,-1.22,0.03,1785097050369.101
0.252,-1.021,-0.177,-5.74,0.03,-0.55,1785097050369.511
0.241,-1.003,-0.162,-5.55,0.52,-2.01,1785097050369.927
0.232,-0.977,-0.166,-2.78,0.37,-2.08,1785097050370.2761
0.227,-0.975,-0.194,2.41,1.04,-0.89,1785097050370.6108
0.204,-0.965,-0.203,5.04,1.86,-0.15,1785097050370.965
0.196,-0.955,-0.19,4.94,2.04,0.73,1785097050371.3323
0.195,-0.953,-0.184,3.75,2.01,0.55,1785097050371.673
0.2,-0.96,-0.185,0.52,2.59,0.98,1785097050372.0142
0.206,-0.974,-0.18,-3.85,2.9,1.83,1785097050372.368
0.193,-0.978,-0.172,-8.55,2.84,1.68,1785097050372.713
0.193,-0.994,-0.152,-11.29,3.17,2.04,1785097050373.06
0.199,-1.012,-0.138,-12.24,3.51,2.53,1785097050373.417
0.194,-0.973,-0.102,-17.21,3.2,3.05,1785097050373.8171
0.196,-0.923,-0.091,-23.62,2.9,5.62,1785097050374.1628
0.203,-0.916,-0.068,-27.56,3.05,7.57,1785097050374.5
0.201,-0.948,-0.02,-25.7,0.79,6.84,1785097050374.8691
0.211,-1.006,-0.02,-11.41,-0.67,6.32,1785097050375.217
0.2,-1.009,0.004,9.31,-1.56,5.4,1785097050375.5698
0.192,-0.95,0.002,28.17,-3.94,4.97,1785097050375.9282
0.219,-0.944,-0.104,46.51,-1.16,6.47,1785097050376.2751
0.229,-1.006,-0.233,62.78,6.23,6.1,1785097050376.631
0.204,-1.032,-0.303,69.95,12.02,2.99,1785097050376.971
0.17,-0.976,-0.275,66.84,12.63,2.35,1785097050377.3171
0.182,-0.935,-0.245,59.45,12.51,4.33,1785097050377.6582
0.202,-0.957,-0.232,48.25,13.95,5.43,1785097050377.968
0.204,-0.966,-0.229,30.52,14.31,6.26,1785097050378.2651
0.184,-0.939,-0.237,8.79,12.85,8.73,1785097050378.578
0.171,-0.908,-0.262,-13.25,13.15,12.67,1785097050378.898
0.168,-0.916,-0.19,-35.4,9.92,14.83,1785097050379.1921
0.194,-0.957,-0.141,-51.91,5.19,12.33,1785097050379.4958
0.216,-1.043,-0.158,-52.77,6.26,7.84,1785097050379.799
0.185,-1.094,-0.15,-44.86,6.07,3.48,1785097050380.1082
0.151,-1.075,-0.129,-35.22,4.15,3.3,1785097050380.427
0.154,-1.042,-0.091,-24.17,3.66,6.9,1785097050380.757
0.176,-1.014,-0.074,-14.01,2.56,9.83,1785097050381.073
0.172,-0.979,-0.097,-8.36,1.1,9.09,1785097050381.3892
0.153,-0.946,-0.118,-9.83,-0.73,8.51,1785097050381.686
0.153,-0.946,-0.118,-14.19,-2.44,8.91,1785097050381.9932
0.152,-0.949,-0.138,-16.72,-3.27,8.67,1785097050382.2998
0.155,-0.983,-0.147,-16.51,-3.05,7.45,1785097050382.5833
0.165,-1.002,-0.153,-14.13,-1.86,6.2,1785097050382.897
0.169,-0.992,-0.16,-12.97,-0.85,7.51,1785097050383.189
0.174,-0.974,-0.181,-12.97,-0.85,7.51,1785097050383.469
0.178,-0.948,-0.193,-15.11,0.95,8.67,1785097050383.757
0.152,-0.938,-0.163,-18.19,2.11,9.22,1785097050384.043
0.127,-0.942,-0.08,-19.62,0.49,9.86,1785097050384.334
0.174,-0.984,-0.109,-11.02,0.7,10.28,1785097050384.6199
0.189,-0.998,-0.116,-5.4,1.86,8.79,1785097050385.043
0.18,-0.982,-0.108,-5.43,1.37,8.36,1785097050385.37
0.177,-0.983,-0.11,-3.85,0.46,9.49,1785097050385.653
0.173,-0.982,-0.119,-4.49,-1.19,10.44,1785097050385.933
0.175,-0.967,-0.125,-7.23,-2.62,10.56,1785097050386.198
0.182,-0.972,-0.127,-8.0,-4.36,10.62,1785097050386.4697
0.181,-1.029,-0.166,-2.08,-3.42,8.55,1785097050386.718
0.142,-1.04,-0.162,1.5,-3.17,5.98,1785097050386.981
0.147,-1.011,-0.167,1.34,-4.46,5.95,1785097050387.241
0.179,-1.012,-0.177,4.06,-3.36,6.68,1785097050387.4932
0.186,-1.021,-0.166,9.43,-3.08,5.46,1785097050387.7593
0.184,-1.021,-0.174,14.92,-3.11,3.94,1785097050388.0278
0.177,-1.016,-0.182,17.21,-2.9,2.14,1785097050388.284
0.167,-1.004,-0.208,15.17,-2.87,0.79,1785097050388.548
0.166,-0.964,-0.244,7.97,-2.53,1.62,1785097050388.807
0.171,-0.92,-0.275,-1.37,-1.46,3.91,1785097050389.0947
0.17,-0.903,-0.264,-10.44,-0.58,6.68,1785097050389.3481
0.169,-0.926,-0.232,-15.66,-0.58,9.16,1785097050389.633
0.165,-0.952,-0.198,-16.33,-0.34,10.9,1785097050389.977
0.16,-0.974,-0.163,-14.34,-0.89,10.86,1785097050390.2322
0.153,-0.994,-0.129,-11.14,-2.56,8.91,1785097050390.487
0.14,-0.989,-0.13,-6.07,-4.36,7.14,1785097050390.7478
0.138,-0.978,-0.153,-0.27,-4.91,8.27,1785097050391.0051
0.138,-0.969,-0.172,2.72,-5.19,9.28,1785097050391.254
0.141,-0.957,-0.178,2.66,-6.04,9.86,1785097050391.511
0.151,-0.965,-0.181,2.96,-6.35,9.83,1785097050391.767
0.143,-0.975,-0.182,2.99,-6.47,8.21,1785097050392.025
0.138,-0.984,-0.179,1.95,-6.47,7.97,1785097050392.278
0.137,-0.979,-0.177,0.64,-5.98,8.3,1785097050392.5388
0.127,-0.975,-0.176,0.18,-5.52,9.19,1785097050392.8098
0.134,-0.975,-0.164,0.46,-5.34,10.8,1785097050393.065
0.131,-0.966,-0.151,1.77,-5.52,10.53,1785097050393.321
0.13,-0.966,-0.145,3.54,-5.68,10.99,1785097050393.5781
0.132,-0.98,-0.137,5.62,-5.77,11.66,1785097050393.8071
0.127,-0.99,-0.139,6.99,-6.13,11.6,1785097050394.043
0.119,-0.982,-0.145,7.42,-6.5,11.23,1785097050394.285
0.098,-0.969,-0.157,5.65,-6.9,11.9,1785097050394.5269
0.106,-0.982,-0.17,2.59,-7.26,13.58,1785097050394.76
0.111,-0.99,-0.171,-0.27,-7.69,13.52,1785097050395.005
0.115,-0.98,-0.168,-1.71,-7.75,12.45,1785097050395.2698
0.114,-0.972,-0.164,-1.28,-7.26,11.38,1785097050395.503
0.115,-0.975,-0.164,-0.21,-6.78,10.59,1785097050395.7397
0.104,-0.982,-0.169,0.03,-6.56,10.25,1785097050395.988
0.096,-0.98,-0.162,-0.37,-6.07,11.57,1785097050396.222
0.09,-0.966,-0.162,0.18,-5.8,12.51,1785097050396.461
0.081,-0.941,-0.156,1.25,-5.65,12.33,1785097050396.7148
0.079,-0.924,-0.148,2.5,-5.71,11.81,1785097050396.9578
0.078,-0.909,-0.146,2.66,-6.13,11.14,1785097050397.192
0.079,-0.891,-0.158,2.59,-6.1,10.96,1785097050397.4458
0.073,-0.873,-0.168,3.27,-5.55,10.86,1785097050397.705
0.072,-0.864,-0.176,3.72,-4.85,10.71,1785097050397.934
0.073,-0.865,-0.183,2.69,-4.03,9.74,1785097050398.1782
0.07,-0.869,-0.196,-0.24,-3.72,8.12,1785097050398.414
0.085,-0.879,-0.222,-2.87,-2.72,7.14,1785097050398.647
0.091,-0.887,-0.233,-3.17,-0.61,6.41,1785097050398.877
0.097,-0.905,-0.248,-2.2,1.5,6.35,1785097050399.1191
0.097,-0.921,-0.266,-2.62,4.27,6.13,1785097050399.361
0.094,-0.923,-0.256,-4.21,6.59,6.87,1785097050399.5898
0.096,-0.931,-0.245,-5.52,8.21,8.67,1785097050399.811
0.103,-0.957,-0.231,-6.32,10.22,10.74,1785097050400.043
0.109,-0.991,-0.229,-5.62,12.63,12.36,1785097050400.267
0.103,-1.035,-0.241,1.89,16.48,13.28,1785097050400.506
0.082,-1.069,-0.253,11.66,19.78,16.42,1785097050400.744
0.086,-1.084,-0.274,18.43,23.44,20.91,1785097050400.9888
0.081,-1.094,-0.29,22.4,26.46,22.68,1785097050401.2192
0.076,-1.093,-0.3,24.99,28.75,23.38,1785097050401.445
0.067,-1.094,-0.322,31.5,32.14,24.23,1785097050401.678
0.046,-1.089,-0.355,38.51,35.89,26.34,1785097050401.9048
0.028,-1.047,-0.368,37.05,37.84,30.18,1785097050402.126
0.03,-0.994,-0.351,29.79,38.97,32.78,1785097050402.354
0.044,-0.974,-0.329,22.06,38.58,32.75,1785097050402.585
0.063,-0.983,-0.302,15.32,37.17,30.64,1785097050402.8108
0.068,-1.004,-0.288,10.22,35.19,27.83,1785097050403.038
0.069,-1.017,-0.289,5.4,33.57,26.49,1785097050403.267
0.072,-1.002,-0.276,0.06,31.86,27.83,1785097050403.488
0.076,-0.977,-0.269,-2.93,29.76,30.61,1785097050403.706
0.085,-0.962,-0.287,-4.76,27.56,32.99,1785097050403.948
0.086,-0.928,-0.306,-8.76,25.57,34.46,1785097050404.179
0.091,-0.89,-0.321,-11.17,25.18,37.17,1785097050404.4038
0.095,-0.885,-0.333,-12.18,25.09,39.49,1785097050404.632
0.086,-0.881,-0.327,-16.24,23.65,39.09,1785097050404.8838
0.075,-0.889,-0.31,-21.73,22.55,37.6,1785097050405.1477
0.067,-0.92,-0.291,-25.57,21.76,36.19,1785097050405.402
0.061,-0.948,-0.264,-27.25,20.91,35.68,1785097050405.623
0.057,-0.96,-0.246,-26.89,20.63,36.62,1785097050405.8462
0.049,-0.953,-0.254,-25.12,21.49,38.09,1785097050406.059
0.037,-0.942,-0.25,-23.59,23.1,39.43,1785097050406.277
0.034,-0.943,-0.223,-24.23,21.09,39.58,1785097050406.493
0.045,-0.948,-0.22,-26.89,18.74,37.63,1785097050406.7148
0.045,-0.962,-0.222,-28.57,18.8,36.38,1785097050406.92
0.038,-0.976,-0.238,-28.6,19.75,36.26,1785097050407.137
0.014,-0.958,-0.251,-29.45,19.71,36.1,1785097050407.3547
-0.002,-0.911,-0.239,-33.23,18.28,38.33,1785097050407.5652
0.009,-0.874,-0.233,-38.21,17.21,40.77,1785097050407.784
0.016,-0.871,-0.235,-43.06,16.72,39.92,1785097050408.03
0.005,-0.867,-0.24,-49.68,15.35,37.17,1785097050408.246
-0.007,-0.847,-0.237,-57.86,13.55,36.35,1785097050408.4531
-0.005,-0.842,-0.224,-64.36,11.78,36.99,1785097050408.67
0.005,-0.877,-0.219,-67.14,9.58,37.08,1785097050408.8909
0.006,-0.95,-0.23,-66.68,7.42,34.73,1785097050409.101
-0.015,-1.02,-0.241,-64.88,5.68,31.4,1785097050409.333
-0.04,-1.055,-0.242,-61.49,4.43,30.06,1785097050409.545
-0.059,-1.054,-0.246,-56.34,2.84,31.62,1785097050409.755
-0.065,-1.031,-0.264,-51.06,1.25,34.73,1785097050409.958
-0.079,-0.98,-0.271,-48.71,-0.15,37.81,1785097050410.167
-0.083,-0.937,-0.275,-46.85,-1.62,40.93,1785097050410.3757
-0.089,-0.926,-0.298,-44.28,-3.05,42.21,1785097050410.583
-0.105,-0.929,-0.316,-44.43,-4.43,40.59,1785097050410.793
-0.126,-0.939,-0.332,-46.75,-5.4,37.2,1785097050411.025
-0.147,-0.952,-0.338,-49.01,-6.13,33.27,1785097050411.235
-0.165,-0.957,-0.329,-49.04,-6.62,29.88,1785097050411.442
-0.172,-0.949,-0.327,-45.5,-6.93,28.57,1785097050411.658
-0.166,-0.936,-0.335,-39.49,-6.93,28.69,1785097050411.8772
-0.166,-0.931,-0.357,-32.35,-6.9,27.99,1785097050412.084
-0.186,-0.915,-0.371,-28.99,-7.42,26.7,1785097050412.3032
-0.211,-0.878,-0.369,-31.1,-8.88,25.67,1785097050412.5178
-0.223,-0.86,-0.371,-34.39,-10.62,25.03,1785097050412.722
-0.237,-0.865,-0.363,-41.38,-14.22,23.35,1785097050413.134
-0.237,-0.865,-0.363,-42.42,-15.87,23.13,1785097050413.341
-0.647,-0.65,-0.576,27.41,8.67,7.11,1785097050413.8271
-0.689,-0.655,-0.632,31.92,9.43,8.06,1785097050414.037
-0.763,-0.628,-0.721,22.77,15.5,10.38,1785097050414.2341
-0.86,-0.669,-0.707,7.48,19.93,9.06,1785097050419.4329
-0.983,-0.778,-0.637,-5.58,20.26,2.41,1785097050429.9463
-1.095,-0.863,-0.574,-15.47,21.09,-6.62,1785097050440.5068
-1.158,-0.893,-0.507,-23.59,22.98,-14.53,1785097050453.755
-1.172,-0.884,-0.463,-24.81,25.24,-23.65,1785097050459.4163
-1.155,-0.868,-0.459,-15.9,30.64,-36.01,1785097050470.218
-1.191,-0.837,-0.462,-1.4,38.88,-50.6,1785097050483.4758
-1.242,-0.799,-0.515,12.76,46.82,-62.99,1785097050489.114
-1.29,-0.752,-0.598,18.65,54.69,-73.4,1785097050499.87
-1.349,-0.713,-0.648,6.38,57.99,-86.31,1785097050510.387
-1.393,-0.695,-0.697,-21.09,58.81,-98.73,1785097050523.67
-1.382,-0.704,-0.688,-51.97,60.37,-104.28,1785097050529.511
-1.322,-0.743,-0.67,-73.55,60.55,-107.15,1785097050540.368
-1.268,-0.763,-0.641,-84.78,60.95,-109.32,1785097050553.613
-1.204,-0.762,-0.616,-88.41,60.4,-108.04,1785097050559.315
-1.125,-0.778,-0.604,-89.24,57.62,-103.92,1785097050570.3162
-1.065,-0.805,-0.62,-92.2,53.01,-98.67,1785097050583.5898
-1.002,-0.833,-0.645,-97.9,48.98,-91.34,1785097050589.47
-0.932,-0.858,-0.654,-101.93,45.63,-83.77,1785097050600.301
-0.849,-0.877,-0.657,-100.04,41.96,-76.63,1785097050613.638
-0.756,-0.86,-0.678,-93.33,38.48,-68.27,1785097050619.5789
-0.65,-0.846,-0.686,-79.32,35.19,-58.29,1785097050630.2222
-0.548,-0.814,-0.683,-60.64,30.88,-50.97,1785097050640.8499
-0.448,-0.729,-0.73,-44.43,26.43,-43.92,1785097050653.989
-0.329,-0.659,-0.829,-34.33,24.66,-36.13,1785097050659.9429
-0.247,-0.657,-0.938,-32.87,25.24,-32.04,1785097050670.408
-0.201,-0.713,-1.01,-39.22,28.5,-30.95,1785097050683.753
-0.17,-0.79,-0.998,-46.88,33.88,-29.3,1785097050689.589
-0.126,-0.841,-0.939,-47.33,37.39,-24.84,1785097050700.163
-0.055,-0.826,-0.892,-39.43,39.19,-17.85,1785097050710.764
0.001,-0.715,-0.807,-26.8,39.61,-9.03,1785097050723.9731
0.063,-0.587,-0.778,-9.58,39.22,1.43,1785097050730.039
0.126,-0.521,-0.777,5.77,43.15,8.97,1785097050739.9822
0.157,-0.481,-0.782,11.14,48.25,9.61,1785097050750.634
0.191,-0.453,-0.8,9.8,53.56,7.97,1785097050763.9658
0.21,-0.461,-0.803,7.26,58.38,7.54,1785097050769.747
0.226,-0.426,-0.808,2.01,60.49,7.26,1785097050779.829
0.261,-0.387,-0.806,0.12,64.06,10.83,1785097050790.34
0.294,-0.35,-0.761,2.14,67.54,14.89,1785097050800.9897
0.318,-0.308,-0.737,7.9,69.31,16.88,1785097050814.1902
0.338,-0.26,-0.72,14.53,71.96,18.65,1785097050820.064
0.355,-0.247,-0.767,19.93,75.56,20.51,1785097050830.6338
0.358,-0.265,-0.798,19.99,81.42,19.38,1785097050843.769
0.346,-0.304,-0.794,18.25,86.4,15.08,1785097050849.7688
0.361,-0.366,-0.831,16.97,90.88,9.46,1785097050860.1921
0.374,-0.391,-0.838,14.22,95.03,3.42,1785097050870.7122
0.409,-0.381,-0.891,14.25,98.33,-0.49,1785097050883.768
0.438,-0.357,-0.914,17.4,104.19,-5.25,1785097050889.708
0.441,-0.314,-0.866,19.65,110.93,-11.66,1785097050900.464
0.423,-0.289,-0.855,21.03,114.14,-13.37,1785097050913.77
0.479,-0.333,-0.88,15.17,105.2,-9.74,1785097050919.5928
0.473,-0.265,-0.862,3.23,100.38,-20.14,1785097050930.3733
0.48,-0.276,-0.896,1.5,116.73,-32.84,1785097050940.792
0.442,-0.385,-0.98,-0.06,131.93,-49.65,1785097050954.1309
0.349,-0.437,-1.005,-17.85,126.9,-61.46,1785097050960.1409
0.383,-0.498,-0.969,-33.23,125.86,-62.93,1785097050970.722
0.423,-0.544,-0.954,-38.12,125.92,-65.07,1785097050983.9712
0.468,-0.566,-0.957,-30.52,127.51,-65.98,1785097050989.9312
0.493,-0.571,-0.914,-11.96,135.87,-72.54,1785097051000.6677
0.497,-0.557,-0.908,6.2,137.24,-80.9,1785097051014.0857
0.549,-0.528,-0.893,17.58,133.92,-83.99,1785097051019.8518
0.625,-0.505,-0.834,23.56,129.55,-85.18,1785097051030.564
0.719,-0.516,-0.785,27.5,128.64,-91.98,1785097051043.826
0.799,-0.52,-0.737,24.72,129.0,-103.37,1785097051049.4512
0.896,-0.496,-0.712,17.58,129.64,-114.84,1785097051060.7769
1.001,-0.412,-0.681,9.64,131.6,-127.32,1785097051073.944
1.094,-0.276,-0.677,4.36,132.11,-142.16,1785097051080.074
1.164,-0.167,-0.713,1.92,133.88,-157.75,1785097051090.6182
1.232,-0.106,-0.735,-0.24,140.39,-174.99,1785097051103.929
1.335,-0.063,-0.751,-2.26,150.76,-193.21,1785097051109.937
1.463,-0.016,-0.705,-6.9,160.8,-208.01,1785097051120.675
1.565,0.074,-0.562,-14.92,164.22,-213.08,1785097051134.063
1.609,0.147,-0.408,-21.24,160.19,-201.91,1785097051139.8232
1.572,0.135,-0.311,-23.62,151.01,-180.24,1785097051150.8633
1.537,0.083,-0.233,-25.42,141.7,-160.5,1785097051164.345
1.564,0.12,-0.151,-27.41,131.02,-147.07,1785097051170.0898
1.597,0.167,-0.104,-26.49,116.7,-133.76,1785097051183.5159
1.544,0.128,-0.105,-21.15,101.32,-119.82,1785097051189.504
1.44,0.01,-0.134,-15.5,84.93,-104.46,1785097051200.373
1.32,-0.086,-0.165,-11.96,62.38,-87.59,1785097051213.6309
1.21,-0.101,-0.184,-9.64,35.28,-66.13,1785097051219.527
1.086,-0.062,-0.169,-8.45,10.1,-41.05,1785097051229.889
0.945,0.0,-0.135,-8.64,-12.24,-12.79,1785097051240.449
0.844,0.012,-0.129,-8.61,-40.35,20.87,1785097051253.657
0.613,-0.016,-0.162,-6.56,-76.24,53.1,1785097051259.593
0.308,-0.025,-0.187,-3.33,-103.49,84.9,1785097051269.9849
0.308,-0.025,-0.187,-1.25,-123.57,114.17,1785097051280.702
0.091,-0.056,-0.251,-1.95,-140.08,133.24,1785097051293.982
-0.104,-0.101,-0.361,-8.21,-150.18,139.53,1785097051299.905
-0.282,-0.188,-0.492,-26.83,-158.21,136.81,1785097051310.823
-0.508,-0.244,-0.626,-54.81,-169.74,143.89,1785097051324.028
-0.708,-0.264,-0.764,-54.81,-169.74,143.89,1785097051329.97
-0.826,-0.304,-0.882,-78.25,-179.45,158.91,1785097051343.453
-0.959,-0.364,-0.985,-92.2,-182.99,171.15,1785097051349.469
-1.119,-0.426,-1.07,-97.05,-178.35,177.65,1785097051360.425
-1.248,-0.533,-1.187,-87.77,-164.34,176.43,1785097051373.657
-1.321,-0.742,-1.388,-64.24,-139.41,165.44,1785097051379.6558
-1.328,-1.007,-1.617,-34.46,-103.52,146.24,1785097051390.6638
-1.236,-1.224,-1.7,-5.16,-60.12,121.68,1785097051403.981
-1.031,-1.268,-1.564,16.27,-16.3,96.77,1785097051409.8152
-0.779,-1.15,-1.281,34.7,21.76,75.9,1785097051420.342
-0.569,-0.955,-0.978,54.35,49.75,56.31,1785097051430.983
-0.416,-0.742,-0.778,74.19,67.38,24.32,1785097051444.4082
-0.423,-0.424,-0.691,88.56,77.91,-26.0,1785097051450.245
-0.586,-0.115,-0.694,99.52,91.56,-78.16,1785097051460.6929
-0.772,-0.071,-0.813,102.88,109.59,-123.6,1785097051473.855
-0.862,-0.24,-0.842,87.31,132.66,-170.32,1785097051479.8237
-0.93,-0.392,-0.791,65.98,155.0,-212.38,1785097051493.505
-0.867,-0.588,-0.805,51.58,171.58,-227.0,1785097051499.561
-0.739,-0.765,-0.798,36.1,180.55,-226.72,1785097051510.4429
-0.626,-0.855,-0.803,18.98,180.82,-222.48,1785097051523.7031
-0.523,-0.753,-0.861,7.57,176.92,-220.13,1785097051529.805
-0.479,-0.539,-0.968,7.84,176.76,-216.53,1785097051540.4502
-0.382,-0.408,-0.988,7.35,179.72,-206.34,1785097051553.699
-0.226,-0.371,-0.955,0.73,182.32,-195.29,1785097051559.701
0.007,-0.438,-0.868,0.55,187.05,-183.6,1785097051570.445
0.268,-0.511,-0.794,9.89,186.77,-170.17,1785097051583.751
0.54,-0.492,-0.625,21.09,189.12,-152.99,1785097051589.299
0.862,-0.387,-0.42,26.7,185.8,-134.65,1785097051600.618
1.113,-0.285,-0.177,25.48,176.34,-115.18,1785097051613.9321
1.334,-0.133,0.038,25.61,161.93,-103.27,1785097051619.802
1.395,0.023,0.202,28.32,131.17,-83.38,1785097051630.756
1.377,0.161,0.285,44.47,122.47,-70.86,1785097051644.0188
1.561,0.263,0.355,64.03,129.28,-67.23,1785097051649.673
1.743,0.315,0.43,69.03,123.05,-61.07,1785097051660.682
1.963,0.501,0.569,68.7,115.7,-63.97,1785097051673.971
2.086,0.829,0.73,79.2,112.64,-70.25,1785097051680.0261
2.214,1.264,0.928,102.6,102.15,-64.67,1785097051690.735
2.293,1.998,1.201,145.85,78.34,-46.6,1785097051703.9922
2.363,2.772,1.392,223.58,35.16,-11.29,1785097051710.082
2.362,2.69,1.159,330.91,-7.6,28.41,1785097051720.635
2.186,1.781,0.752,385.82,-24.08,29.24,1785097051733.87
2.0,0.858,0.409,326.91,-28.66,-7.54,1785097051739.767
1.931,0.444,0.167,192.42,-34.33,-42.57,1785097051750.48
1.847,0.299,0.125,46.42,-44.65,-43.43,1785097051763.805
1.799,0.283,0.169,-68.73,-63.05,-25.85,1785097051769.7449
1.748,0.347,0.204,-141.91,-81.45,-6.1,1785097051780.242
1.668,0.401,0.241,-179.2,-92.56,9.09,1785097051790.798
1.613,0.437,0.251,-186.83,-95.98,15.5,1785097051804.165
1.548,0.451,0.252,-173.92,-94.33,18.16,1785097051810.055
1.487,0.412,0.192,-149.11,-90.98,19.47,1785097051820.9011
1.469,0.356,0.11,-124.97,-84.51,20.63,1785097051834.147
1.487,0.297,0.063,-103.24,-79.5,24.93,1785097051839.9849
1.474,0.236,0.038,-82.4,-79.26,35.4,1785097051850.71
1.412,0.189,0.044,-67.08,-80.97,55.85,1785097051864.0142
1.29,0.134,0.05,-56.31,-86.46,85.02,1785097051869.853
1.086,0.094,0.043,-51.7,-100.34,116.7,1785097051880.9722
0.878,0.08,0.005,-56.92,-122.93,144.69,1785097051893.855
0.688,0.086,-0.054,-68.79,-149.08,163.37,1785097051899.8962
0.463,0.045,-0.129,-79.84,-174.75,172.12,1785097051910.8127
0.282,0.007,-0.198,-90.21,-194.86,173.01,1785097051924.0269
0.089,-0.016,-0.244,-99.83,-216.19,174.72,1785097051930.1719
-0.135,-0.017,-0.304,-108.4,-242.26,176.64,1785097051943.703
-0.346,0.034,-0.311,-112.61,-272.8,176.52,1785097051949.633
-0.688,0.03,-0.44,-98.67,-306.56,176.55,1785097051960.683
-1.091,-0.062,-0.664,-73.89,-331.22,175.57,1785097051973.8613
-1.473,-0.232,-0.984,-58.2,-345.38,172.06,1785097051979.9402
-1.776,-0.408,-1.526,-67.9,-345.74,170.66,1785097051990.844
-1.985,-0.514,-2.274,-96.93,-312.69,172.92,1785097052004.1963
-2.078,-0.664,-2.941,-115.85,-236.55,166.11,1785097052010.139
-1.824,-0.856,-3.191,-116.06,-144.69,139.65,1785097052023.594
-1.244,-1.003,-2.774,-95.83,-63.94,103.27,1785097052029.6487
-0.655,-1.18,-1.935,-55.6,-4.43,74.74,1785097052040.2578
-0.441,-1.183,-1.126,-14.71,26.49,47.43,1785097052050.9583
-0.443,-0.938,-0.74,21.94,38.54,28.5,1785097052064.281
-0.442,-0.667,-0.697,62.41,54.41,9.0,1785097052070.07
-0.566,-0.363,-0.847,91.56,69.89,-35.86,1785097052080.574
-0.904,-0.227,-0.954,99.55,86.79,-93.02,1785097052093.7532
-1.093,-0.301,-1.031,102.27,117.44,-159.79,1785097052099.78
-1.049,-0.526,-1.054,97.75,159.89,-214.24,1785097052110.76
-1.061,-0.693,-1.061,76.36,191.66,-248.91,1785097052123.9512
-0.849,-0.867,-1.099,47.24,202.86,-268.99,1785097052130.029
-0.816,-0.877,-1.295,24.66,200.42,-291.54,1785097052140.9202
-0.79,-0.771,-1.334,9.13,204.5,-288.61,1785097052154.166
-0.55,-0.629,-1.265,0.06,203.99,-262.06,1785097052160.147
-0.312,-0.442,-1.121,-1.1,205.66,-231.6,1785097052170.8801
-0.127,-0.298,-0.907,2.56,207.8,-204.93,1785097052184.12
0.09,-0.176,-0.734,8.82,200.96,-190.98,1785097052190.0571
0.369,-0.045,-0.593,12.42,192.21,-186.44,1785097052200.9128
0.701,0.097,-0.424,11.96,185.86,-177.53,1785097052214.185
1.07,0.215,-0.298,19.23,183.14,-159.09,1785097052220.115
1.21,0.384,-0.119,35.8,173.99,-135.78,1785097052233.559
1.253,0.473,-0.009,58.72,157.48,-109.07,1785097052239.505
1.314,0.551,0.065,80.72,143.68,-91.1,1785097052250.4692
1.346,0.589,0.12,93.2,134.34,-80.11,1785097052263.7551
1.561,0.657,0.201,93.02,134.83,-83.41,1785097052269.6882
1.737,0.731,0.339,85.97,138.31,-88.81,1785097052280.4612
1.845,0.776,0.459,79.04,137.76,-86.98,1785097052293.664
1.923,0.877,0.591,77.33,134.19,-81.73,1785097052299.603
1.964,1.127,0.673,81.67,119.36,-64.73,1785097052310.4473
1.946,1.456,0.756,87.04,95.16,-39.43,1785097052323.623
1.962,1.782,0.841,105.11,66.1,-12.54,1785097052329.854
1.939,1.992,0.814,147.01,36.74,18.37,1785097052340.28
1.866,1.824,0.619,197.76,17.61,39.12,1785097052351.0662
1.744,1.354,0.394,206.92,10.04,31.89,1785097052364.371
1.638,0.948,0.255,155.52,7.02,8.33,1785097052370.2048
1.573,0.708,0.21,72.85,0.31,-6.13,1785097052380.581
1.528,0.587,0.183,-4.94,-10.13,-5.4,1785097052390.947
1.514,0.574,0.174,-63.26,-21.33,6.81,1785097052404.2493
1.5,0.599,0.16,-97.35,-31.04,21.21,1785097052410.177
1.464,0.6,0.16,-111.33,-39.55,32.87,1785097052420.749
1.422,0.574,0.157,-110.51,-46.94,41.38,1785097052433.941
1.371,0.535,0.157,-103.03,-54.02,48.62,1785097052439.927
1.359,0.484,0.126,-92.75,-61.68,55.21,1785097052450.5972
1.355,0.432,0.11,-81.09,-67.54,60.79,1785097052463.9758
1.349,0.375,0.099,-70.62,-73.95,67.45,1785097052469.3718
1.27,0.317,0.089,-64.76,-83.68,77.06,1785097052480.094
1.142,0.275,0.067,-62.23,-96.5,91.37,1785097052490.951
1.037,0.256,-0.01,-62.23,-110.54,107.43,1785097052504.2878
0.942,0.28,-0.082,-69.46,-126.29,123.63,1785097052510.242
0.866,0.301,-0.125,-78.74,-142.31,140.05,1785097052523.637
0.771,0.333,-0.166,-84.66,-159.28,154.0,1785097052529.792
0.641,0.372,-0.18,-87.28,-179.14,168.0,1785097052540.601
0.427,0.391,-0.163,-81.51,-201.64,181.19,1785097052553.876
0.139,0.332,-0.147,-65.37,-227.76,193.52,1785097052560.305
0.139,0.332,-0.147,-45.75,-254.77,205.54,1785097052570.871
-0.23,0.2,-0.159,-26.18,-277.57,215.98,1785097052584.178
-0.593,0.064,-0.19,-10.99,-299.08,224.04,1785097052590.042
-0.911,-0.053,-0.395,-15.17,-315.35,228.0,1785097052603.476
-1.187,-0.172,-0.783,-15.17,-315.35,228.0,1785097052610.372
-1.452,-0.376,-1.425,-45.75,-322.79,231.67,1785097052620.539
-1.799,-0.612,-2.264,-97.96,-308.45,238.29,1785097052633.723
-2.102,-1.015,-3.061,-146.15,-261.97,237.59,1785097052639.6501
-2.187,-1.391,-3.495,-171.88,-191.35,198.74,1785097052650.905
-1.78,-1.51,-3.281,-160.83,-110.57,139.47,1785097052664.263
-1.041,-1.537,-2.449,-112.52,-37.72,92.35,1785097052670.115
-0.685,-1.348,-1.492,-59.63,10.68,41.99,1785097052680.997
-0.64,-0.941,-0.821,-18.8,40.5,-0.03,1785097052694.1912
-0.552,-0.746,-0.448,24.54,71.23,-34.7,1785097052700.143
-0.553,-0.735,-0.344,72.66,97.63,-105.56,1785097052710.6272
-0.666,-0.648,-0.462,106.2,120.94,-189.73,1785097052723.85
-0.884,-0.611,-0.626,102.73,140.81,-237.65,1785097052730.001
-1.095,-0.618,-0.841,68.51,160.01,-258.13,1785097052741.003
-1.355,-0.657,-0.983,30.0,177.34,-263.86,1785097052754.2998
-1.386,-0.748,-1.077,5.86,194.34,-254.49,1785097052760.231
-0.937,-0.858,-1.134,-6.74,211.65,-239.2,1785097052773.6099
-0.259,-0.953,-1.267,-6.93,217.29,-247.72,1785097052779.6538
-0.445,-0.664,-1.59,22.19,226.54,-265.79,1785097052790.3809
-0.309,-0.419,-1.389,51.27,243.51,-222.97,1785097052803.668
0.091,-0.229,-1.063,57.59,233.13,-174.87,1785097052809.346
0.412,0.004,-0.755,54.32,224.98,-145.42,1785097052820.685
0.719,0.16,-0.539,56.58,211.22,-125.34,1785097052833.904
1.022,0.286,-0.409,51.91,197.3,-112.55,1785097052839.793
1.338,0.395,-0.282,38.33,185.67,-93.33,1785097052850.7632
1.556,0.466,-0.124,34.0,177.8,-66.96,1785097052864.12
1.596,0.5,0.036,51.0,167.39,-40.28,1785097052869.955
1.703,0.622,0.121,81.51,148.5,-18.37,1785097052880.769
1.932,0.841,0.093,106.08,128.39,-5.43,1785097052893.977
2.026,1.047,0.199,107.79,121.43,-2.93,1785097052899.9739
2.088,1.104,0.343,97.75,129.25,-11.9,1785097052910.67
2.227,1.296,0.497,91.89,138.71,-27.44,1785097052923.9941
2.279,1.625,0.627,98.45,128.97,-27.13,1785097052930.032
2.353,1.922,0.821,118.96,112.13,-21.73,1785097052940.779
2.387,2.159,0.87,148.87,89.91,-18.59,1785097052954.012
2.328,2.055,0.693,170.11,65.98,-8.0,1785097052959.999
2.052,1.563,0.389,158.6,47.7,-9.06,1785097052970.5999
1.848,1.068,0.114,92.96,40.59,-34.3,1785097052983.81
1.671,0.795,-0.051,-19.96,27.59,-58.23,1785097052989.728
1.573,0.611,-0.046,-132.97,13.03,-47.55,1785097053000.329
1.465,0.577,-0.022,-208.44,-1.53,-19.53,1785097053010.973
1.249,0.729,0.036,-244.88,-6.9,0.21,1785097053024.186
1.619,0.823,0.289,-254.1,10.1,4.64,1785097053030.187
1.85,0.712,0.356,-243.05,-51.55,16.88,1785097053040.666
1.172,0.479,0.267,-196.69,-119.42,54.48,1785097053053.961
1.145,0.47,0.231,-140.32,-102.18,73.55,1785097053059.9238
1.172,0.558,0.159,-112.25,-90.33,85.09,1785097053070.822
1.039,0.479,0.13,-95.37,-88.99,96.99,1785097053084.168
0.975,0.39,0.085,-85.88,-92.99,98.48,1785097053090.0522
0.924,0.336,0.041,-87.22,-110.6,102.66,1785097053100.7
0.785,0.298,0.001,-90.4,-135.38,110.02,1785097053114.048
0.647,0.271,-0.012,-93.57,-152.23,120.4,1785097053119.885
0.516,0.254,-0.02,-95.65,-170.93,135.04,1785097053130.966
0.322,0.258,-0.038,-92.62,-196.75,149.63,1785097053144.1592
0.117,0.275,-0.036,-84.99,-222.82,165.96,1785097053150.1729
-0.103,0.259,-0.034,-72.73,-249.37,184.42,1785097053163.647
-0.378,0.203,-0.108,-56.06,-275.34,197.82,1785097053169.587
-0.64,0.111,-0.227,-37.29,-293.89,204.75,1785097053180.564
-0.865,-0.011,-0.4,-18.46,-304.76,204.47,1785097053193.7852
-1.003,-0.261,-0.661,-4.0,-309.34,200.84,1785097053199.741
-1.191,-0.507,-0.988,-6.65,-310.59,195.29,1785097053210.625
-1.385,-0.657,-1.413,-18.22,-303.42,198.64,1785097053223.8618
-1.454,-0.83,-2.03,-22.28,-280.25,206.0,1785097053229.9001
-1.473,-1.028,-2.684,-24.72,-230.23,193.73,1785097053240.824
-1.436,-1.113,-2.949,-40.8,-160.44,162.45,1785097053254.144
-1.153,-1.12,-2.571,-55.21,-97.75,130.19,1785097053259.9849
-0.658,-1.146,-1.859,-44.92,-52.49,97.63,1785097053270.857
-0.328,-1.079,-1.139,-17.91,-16.24,58.87,1785097053284.3342
-0.243,-0.896,-0.651,17.21,14.04,23.38,1785097053290.371
-0.179,-0.757,-0.554,63.97,44.04,-15.47,1785097053300.478
-0.203,-0.698,-0.71,109.13,73.46,-77.64,1785097053313.7268
-0.395,-0.659,-0.943,129.25,98.73,-148.38,1785097053319.689
-0.651,-0.638,-1.181,116.15,121.07,-197.03,1785097053330.74
-0.853,-0.695,-1.391,78.34,142.22,-216.47,1785097053343.935
-0.945,-0.834,-1.502,31.83,158.3,-217.9,1785097053349.994
-0.904,-1.024,-1.508,2.56,173.86,-210.52,1785097053360.868
-0.727,-1.254,-1.494,5.95,190.34,-199.93,1785097053374.092
-0.625,-1.202,-1.423,29.91,209.33,-190.22,1785097053380.095
-0.501,-0.889,-1.231,55.15,225.32,-170.6,1785097053391.0242
-0.285,-0.626,-1.145,70.86,227.94,-155.49,1785097053404.263
-0.066,-0.456,-0.963,63.23,220.04,-155.1,1785097053410.171
0.169,-0.312,-0.836,43.24,211.16,-159.7,1785097053423.7068
0.39,-0.183,-0.648,22.16,212.5,-154.97,1785097053429.671
0.623,-0.103,-0.421,11.57,216.13,-138.83,1785097053440.631
0.876,-0.068,-0.278,15.84,214.21,-118.17,1785097053453.9033
1.118,0.011,-0.114,19.71,200.99,-95.43,1785097053460.809
1.387,0.141,0.072,26.4,178.66,-70.16,1785097053470.4312
1.558,0.27,0.21,44.07,157.96,-52.1,1785097053484.092
1.643,0.327,0.196,58.5,142.25,-43.67,1785097053489.929
1.678,0.429,0.222,51.39,140.29,-43.98,1785097053500.702
1.742,0.547,0.365,30.43,145.12,-48.68,1785097053513.977
1.879,0.691,0.514,19.96,148.81,-60.06,1785097053519.819
1.987,0.892,0.589,27.22,147.86,-67.81,1785097053530.756
2.138,1.199,0.679,46.72,140.9,-66.19,1785097053543.8909
2.21,1.589,0.842,75.56,122.2,-56.79,1785097053549.8792
2.238,1.998,1.018,126.38,96.16,-43.49,1785097053560.564
2.248,2.233,1.072,190.37,61.01,-24.54,1785097053573.8418
2.137,1.938,0.86,233.34,33.2,-9.09,1785097053579.9019
1.945,1.286,0.506,216.71,23.32,-16.02,1785097053590.451
1.811,0.755,0.271,124.12,17.67,-35.22,1785097053603.732
1.647,0.557,0.173,-8.12,4.67,-42.7,1785097053609.641
1.515,0.546,0.173,-121.25,-6.56,-32.87,1785097053620.107
1.473,0.57,0.205,-192.75,-17.43,-14.74,1785097053630.85
1.442,0.602,0.296,-224.4,-33.42,3.85,1785097053644.1228
1.436,0.577,0.364,-218.33,-49.53,20.72,1785097053650.035
1.408,0.536,0.381,-192.11,-62.04,32.75,1785097053660.6982
1.366,0.489,0.343,-160.19,-70.77,41.26,1785097053673.94
1.307,0.424,0.28,-130.44,-76.78,46.82,1785097053680.018
1.241,0.354,0.24,-105.87,-81.97,52.28,1785097053690.686
1.196,0.297,0.207,-87.41,-89.82,60.67,1785097053703.953
1.136,0.246,0.168,-73.03,-101.72,69.15,1785097053709.941
1.016,0.214,0.131,-62.84,-116.4,78.07,1785097053720.569
0.882,0.178,0.094,-56.64,-129.76,89.54,1785097053733.778
0.852,0.139,0.107,-53.29,-141.39,102.39,1785097053739.765
0.732,0.136,0.083,-54.51,-168.46,116.18,1785097053750.6812
0.52,0.147,0.0,-58.81,-201.33,128.7,1785097053764.0278
0.277,0.19,-0.105,-62.38,-227.55,138.92,1785097053769.8838
0.049,0.253,-0.162,-57.92,-244.09,151.37,1785097053780.93
-0.174,0.257,-0.187,-38.76,-258.28,169.84,1785097053794.155
-0.39,0.183,-0.235,-11.75,-277.44,189.06,1785097053800.138
-0.658,0.086,-0.487,7.87,-300.58,201.61,1785097053811.095
-0.904,-0.078,-0.836,14.04,-305.55,207.34,1785097053824.275
-1.136,-0.433,-1.306,9.67,-294.84,207.37,1785097053830.677
-1.397,-0.85,-1.982,-11.66,-267.49,196.6,1785097053843.628
-1.397,-0.85,-1.982,-41.72,-217.17,181.92,1785097053849.618
-1.676,-1.156,-2.59,-59.51,-154.88,172.89,1785097053860.591
-1.732,-1.4,-2.862,-56.22,-94.3,152.87,1785097053873.865
-1.453,-1.459,-2.632,-23.93,-38.03,117.4,1785097053879.8562
-0.908,-1.321,-2.083,28.9,5.89,65.92,1785097053890.357
-0.533,-1.174,-1.47,28.9,5.89,65.92,1785097053900.9888
-0.523,-1.01,-1.062,69.09,29.36,14.04,1785097053914.2302
-0.565,-0.902,-0.859,83.93,49.07,-29.18,1785097053920.1619
-0.588,-0.789,-0.736,83.47,67.23,-85.73,1785097053930.65
-0.632,-0.7,-0.734,80.11,86.0,-149.27,1785097053943.861
-0.758,-0.709,-0.821,68.33,105.78,-200.84,1785097053949.891
-0.888,-0.781,-0.935,45.29,124.76,-233.04,1785097053960.851
-0.961,-0.824,-1.005,19.9,138.34,-249.28,1785097053974.0833
-0.958,-0.857,-1.061,0.73,146.06,-250.59,1785097053980.15
-0.837,-0.903,-1.077,-5.13,152.44,-241.25,1785097053990.815
-0.576,-0.881,-1.079,3.11,160.77,-232.49,1785097054004.141
-0.321,-0.757,-1.032,22.92,168.89,-225.81,1785097054010.0479
-0.128,-0.631,-1.004,47.33,172.06,-211.83,1785097054020.97
0.05,-0.479,-0.869,58.32,171.06,-183.94,1785097054034.283
0.261,-0.343,-0.632,64.09,166.69,-148.59,1785097054040.1763
0.477,-0.245,-0.424,79.96,158.21,-119.82,1785097054053.629
0.751,-0.161,-0.28,100.28,147.22,-96.8,1785097054059.6191
1.058,0.056,-0.169,110.39,130.86,-71.02,1785097054070.622
1.334,0.355,-0.075,108.31,107.94,-33.45,1785097054083.8777
1.534,0.558,-0.027,99.15,80.26,2.75,1785097054089.7742
1.66,0.666,-0.058,90.73,58.35,13.0,1785097054100.408
1.793,0.768,0.01,86.46,50.84,0.7,1785097054110.9263
2.062,0.872,0.094,87.92,54.96,-5.86,1785097054124.1719
2.144,0.985,0.101,95.1,59.08,-1.22,1785097054130.1482
2.311,1.197,0.232,115.97,59.11,2.93,1785097054140.522
2.493,1.415,0.259,151.25,50.26,7.42,1785097054153.779
2.578,1.548,0.197,173.01,40.96,8.36,1785097054159.7122
2.594,1.509,0.183,174.44,31.01,-2.87,1785097054170.228
2.567,1.324,0.091,166.6,17.12,-13.31,1785097054180.9568
2.481,0.939,-0.094,147.65,2.69,2.72,1785097054194.1602
2.33,0.686,-0.232,104.62,-6.07,15.29,1785097054200.106
2.202,0.649,-0.284,39.77,-10.8,9.43,1785097054210.413
2.015,0.575,-0.233,-37.69,-14.13,-4.46,1785097054221.027
1.882,0.46,-0.136,-110.26,-14.13,-17.27,1785097054234.277
1.781,0.376,-0.055,-162.91,-16.72,-19.71,1785097054240.192
1.685,0.372,0.009,-192.66,-23.56,-13.37,1785097054250.9792
1.609,0.386,0.084,-202.4,-27.65,-3.33,1785097054264.3997
1.57,0.367,0.161,-196.75,-29.11,7.81,1785097054270.207
1.499,0.338,0.2,-180.33,-33.17,18.92,1785097054280.749
1.381,0.306,0.193,-157.57,-38.76,28.75,1785097054293.988
1.203,0.259,0.156,-136.42,-49.41,40.31,1785097054299.9219
1.027,0.215,0.123,-119.75,-60.52,51.55,1785097054310.7112
0.883,0.19,0.102,-103.4,-72.97,63.6,1785097054324.01
0.785,0.178,0.067,-87.44,-88.41,76.2,1785097054329.9219
0.708,0.175,0.044,-72.18,-106.08,86.37,1785097054340.659
0.559,0.179,0.004,-57.92,-129.22,98.94,1785097054353.907
0.362,0.147,-0.016,-44.07,-153.32,114.26,1785097054359.779
0.151,0.093,-0.048,-28.29,-178.47,130.89,1785097054371.7031
-0.04,0.026,-0.143,-15.53,-201.67,149.97,1785097054384.064
-0.217,-0.022,-0.222,-12.36,-220.62,168.34,1785097054390.014
-0.418,-0.074,-0.357,-17.7,-242.41,185.06,1785097054400.961
-0.626,-0.185,-0.61,-30.06,-263.1,196.97,1785097054414.2458
-0.838,-0.347,-0.9,-49.71,-277.47,203.1,1785097054420.213
-1.075,-0.531,-1.224,-75.11,-282.97,206.12,1785097054433.654
-1.293,-0.682,-1.66,-96.8,-269.14,201.15,1785097054439.599
-1.473,-0.831,-2.252,-114.75,-228.25,191.6,1785097054450.7651
-1.539,-1.011,-2.696,-132.94,-164.46,179.63,1785097054464.234
-1.404,-1.172,-2.721,-133.52,-98.36,154.42,1785097054469.797
-1.111,-1.276,-2.27,-101.87,-42.85,116.58,1785097054481.065
-0.846,-1.27,-1.527,-49.78,-1.56,79.56,1785097054494.072
-0.724,-1.107,-0.935,9.49,27.89,46.85,1785097054500.315
-0.636,-0.961,-0.738,74.74,54.57,18.74,1785097054510.644
-0.602,-0.859,-0.737,126.22,80.32,-11.93,1785097054523.844
-0.651,-0.752,-0.778,152.35,98.88,-59.66,1785097054529.781
-0.712,-0.608,-0.878,157.2,111.79,-119.75,1785097054540.7979
-0.872,-0.594,-1.009,140.66,130.04,-166.72,1785097054553.961
-1.024,-0.71,-1.188,104.98,150.98,-196.23,1785097054559.9238
-0.981,-0.829,-1.267,54.45,165.2,-211.89,1785097054573.5623
-0.773,-0.906,-1.226,9.74,169.44,-212.47,1785097054579.641
-0.485,-0.983,-1.188,-7.69,170.02,-209.05,1785097054590.33
-0.438,-0.88,-1.2,1.5,176.43,-202.86,1785097054601.223
-0.309,-0.796,-1.158,26.03,189.83,-178.9,1785097054614.525
-0.15,-0.703,-1.042,40.96,194.95,-155.1,1785097054620.3
0.038,-0.61,-0.899,41.26,195.29,-135.53,1785097054633.7732
0.28,-0.527,-0.734,37.54,193.4,-122.29,1785097054639.7388
0.508,-0.375,-0.577,30.73,191.02,-112.83,1785097054650.7048
0.811,-0.171,-0.405,22.1,188.18,-96.84,1785097054664.1228
1.156,-0.027,-0.236,18.92,182.44,-75.9,1785097054669.898
1.434,0.057,-0.032,27.13,167.55,-55.57,1785097054680.706
1.706,0.165,0.095,45.69,146.67,-37.14,1785097054693.9158
1.916,0.255,0.216,65.52,129.61,-25.73,1785097054699.8882
1.879,0.299,0.284,73.98,113.99,-23.35,1785097054710.6472
1.992,0.427,0.438,65.49,110.2,-29.85,1785097054724.36
2.155,0.579,0.598,58.69,109.26,-39.19,1785097054729.933
2.221,0.839,0.709,56.28,98.88,-46.75,1785097054740.4768
2.324,1.196,0.773,69.4,82.06,-53.56,1785097054753.772
2.399,1.704,0.834,101.2,58.87,-57.04,1785097054759.7197
2.438,2.232,0.887,150.18,30.98,-47.06,1785097054770.3809
2.335,2.273,0.777,210.24,8.39,-32.41,1785097054781.082
2.107,1.689,0.446,241.25,-1.92,-41.51,1785097054794.2568
1.855,0.995,0.172,196.51,-4.03,-76.63,1785097054800.211
1.646,0.538,0.006,85.33,-5.98,-101.35,1785097054810.7048
1.621,0.364,-0.014,-35.65,-12.54,-90.98,1785097054823.924
1.511,0.364,0.014,-121.77,-30.58,-47.09,1785097054829.952
1.382,0.502,0.038,-170.72,-45.11,-14.04,1785097054840.62
1.38,0.618,0.101,-199.74,-58.41,1.25,1785097054853.857
1.368,0.615,0.19,-206.82,-64.49,8.03,1785097054859.8062
1.343,0.532,0.25,-191.47,-64.3,13.12,1785097054870.4077
1.27,0.43,0.242,-163.49,-64.91,17.82,1785097054883.647
1.196,0.357,0.21,-134.19,-67.57,26.37,1785097054889.567
1.129,0.313,0.181,-110.78,-72.18,38.27,1785097054900.543
1.06,0.283,0.157,-93.78,-81.82,51.88,1785097054910.977
0.965,0.253,0.105,-79.17,-97.32,66.59,1785097054924.294
0.866,0.239,0.056,-68.06,-110.54,79.96,1785097054930.4968
0.81,0.214,0.023,-62.23,-120.98,94.21,1785097054940.6663
0.721,0.206,0.004,-60.91,-136.27,108.01,1785097054953.9849
0.608,0.241,-0.007,-60.52,-158.6,124.3,1785097054959.892
0.494,0.211,-0.067,-54.72,-181.46,139.81,1785097054973.5562
0.34,0.096,-0.142,-43.18,-198.89,145.66,1785097054979.809
0.117,-0.037,-0.218,-31.89,-215.19,147.07,1785097054990.6099
-0.122,-0.15,-0.293,-22.25,-233.34,154.06,1785097055003.7817
-0.322,-0.267,-0.424,-12.79,-252.75,168.71,1785097055009.9048
-0.497,-0.313,-0.55,-8.88,-272.62,184.42,1785097055020.685
-0.666,-0.239,-0.689,-9.43,-295.91,197.45,1785097055033.8828
-0.747,-0.323,-1.017,-4.82,-313.03,207.01,1785097055039.84
-0.892,-0.509,-1.396,-9.58,-308.82,200.11,1785097055050.636
-1.131,-0.685,-1.787,-32.62,-280.16,185.06,1785097055064.039
-1.361,-0.832,-2.095,-63.36,-234.08,168.28,1785097055069.854
-1.416,-0.941,-2.427,-88.72,-185.95,154.09,1785097055080.878
-1.204,-1.081,-2.466,-98.03,-131.99,135.84,1785097055094.113
-0.84,-1.203,-2.127,-90.61,-84.38,99.77,1785097055100.1978
-0.538,-1.259,-1.571,-71.08,-42.12,57.8,1785097055111.246
-0.399,-1.185,-1.031,-44.16,-7.78,29.24,1785097055123.989
-0.399,-1.185,-1.031,-8.3,20.54,11.05,1785097055129.975
-0.295,-0.977,-0.731,40.31,45.75,-19.5,1785097055140.258
-0.206,-0.764,-0.727,85.33,60.43,-71.72,1785097055151.001
-0.239,-0.618,-0.921,100.44,65.43,-128.39,1785097055164.323
-0.405,-0.476,-1.093,85.36,73.82,-168.4,1785097055170.134
-0.554,-0.443,-1.295,85.36,73.82,-168.4,1785097055180.9548
-0.629,-0.581,-1.398,54.29,98.12,-192.3,1785097055194.28
-0.676,-0.802,-1.437,26.25,126.8,-204.63,1785097055200.174
-0.698,-0.965,-1.399,4.55,154.85,-203.16,1785097055211.144
-0.612,-0.995,-1.289,-5.04,176.89,-190.98,1785097055224.262
-0.48,-0.875,-1.163,-2.23,193.61,-184.06,1785097055230.261
-0.319,-0.667,-1.051,5.16,200.9,-183.36,1785097055240.944
-0.134,-0.529,-0.996,13.76,192.48,-180.64,1785097055254.2112
0.023,-0.489,-0.921,20.6,186.44,-170.42,1785097055260.223
0.048,-0.443,-0.763,30.79,188.94,-153.05,1785097055273.655
0.102,-0.395,-0.694,51.61,192.02,-131.5,1785097055279.662
0.323,-0.296,-0.641,77.94,196.84,-118.81,1785097055290.6082
0.538,-0.106,-0.546,94.27,194.34,-113.32,1785097055303.8652
0.844,-0.05,-0.522,98.76,183.6,-103.95,1785097055309.7952
1.038,0.046,-0.409,84.75,166.69,-97.87,1785097055320.717
1.138,0.128,-0.247,64.49,148.23,-87.13,1785097055333.964
1.189,0.21,-0.117,55.24,134.25,-79.29,1785097055339.9292
1.284,0.308,-0.073,55.3,126.44,-76.57,1785097055350.7168
