ax,ay,az,gx,gy,gz,timestamp_ms
1.393,0.669,0.959,-15.32,101.69,-74.47,1785097005829.07
1.431,0.967,1.051,9.13,89.51,-70.96,1785097005829.663
1.435,1.38,1.137,50.84,72.76,-60.3,1785097005830.164
1.433,1.615,1.17,116.37,50.75,-39.09,1785097005830.667
1.417,1.452,1.108,177.22,28.69,-22.61,1785097005831.1748
1.39,1.028,1.0,205.73,10.71,-18.59,1785097005831.6692
1.363,0.607,0.843,190.1,-7.32,-19.07,1785097005832.166
1.352,0.45,0.651,138.28,-26.46,-23.93,1785097005832.6653
1.323,0.41,0.5,67.17,-45.14,-15.75,1785097005833.162
1.281,0.433,0.394,-5.43,-61.59,-2.23,1785097005833.638
1.265,0.519,0.33,-59.36,-75.59,6.26,1785097005834.119
1.252,0.583,0.308,-88.41,-84.14,12.05,1785097005834.6182
1.219,0.614,0.297,-95.31,-85.57,16.75,1785097005835.113
1.189,0.606,0.274,-91.01,-86.37,24.75,1785097005835.589
1.176,0.61,0.296,-79.32,-86.37,34.46,1785097005836.084
1.212,0.6,0.277,-58.78,-86.06,43.76,1785097005836.541
1.226,0.562,0.241,-38.88,-86.55,53.87,1785097005836.965
1.222,0.511,0.21,-24.32,-88.78,65.34,1785097005837.354
1.209,0.467,0.167,-17.88,-90.4,75.17,1785097005837.755
1.162,0.411,0.141,-20.69,-92.47,83.77,1785097005838.1582
1.126,0.336,0.119,-29.54,-94.79,92.78,1785097005838.551
1.114,0.284,0.086,-42.63,-97.93,103.18,1785097005838.961
1.086,0.247,0.047,-57.8,-103.31,114.81,1785097005839.4019
1.049,0.232,0.011,-74.1,-110.08,123.72,1785097005839.8508
0.975,0.225,-0.014,-89.69,-118.56,131.38,1785097005840.263
0.894,0.193,-0.026,-100.68,-127.6,139.19,1785097005840.678
0.815,0.154,-0.056,-105.5,-138.52,146.43,1785097005841.0898
0.721,0.143,-0.062,-103.64,-150.4,151.19,1785097005841.502
0.62,0.118,-0.058,-96.62,-165.72,157.2,1785097005841.897
0.498,0.102,-0.057,-87.16,-183.63,163.34,1785097005842.298
0.388,0.042,-0.101,-74.43,-203.71,171.27,1785097005842.67
0.296,-0.01,-0.084,-61.43,-224.65,174.54,1785097005843.0222
0.075,-0.028,-0.123,-50.36,-253.64,178.66,1785097005843.383
-0.119,-0.016,-0.157,-42.7,-279.52,186.35,1785097005843.7332
-0.339,-0.002,-0.229,-27.74,-303.51,193.91,1785097005844.079
-0.555,-0.146,-0.46,-7.9,-323.77,202.0,1785097005844.4202
-0.754,-0.382,-0.768,-3.69,-332.8,199.53,1785097005844.752
-1.002,-0.464,-1.035,-29.45,-334.51,194.65,1785097005845.098
-1.161,-0.436,-1.396,-65.4,-326.64,205.79,1785097005845.482
-1.194,-0.425,-1.936,-91.04,-300.58,213.66,1785097005845.8262
-1.166,-0.451,-2.407,-121.77,-263.8,206.92,1785097005846.1719
-0.995,-0.478,-2.617,-160.34,-219.09,186.59,1785097005846.5623
-0.657,-0.548,-2.454,-192.94,-168.86,161.23,1785097005846.972
-0.261,-0.672,-1.926,-199.26,-117.22,135.11,1785097005847.371
0.083,-0.813,-1.259,-175.27,-75.56,106.72,1785097005847.72
0.345,-0.858,-0.707,-133.18,-52.43,75.11,1785097005848.069
0.544,-0.762,-0.518,-76.08,-36.29,42.42,1785097005848.4192
0.6,-0.608,-0.642,-9.58,-11.6,6.96,1785097005848.75
0.415,-0.448,-0.846,46.82,15.87,-37.05,1785097005849.09
0.118,-0.325,-0.972,75.62,36.16,-80.48,1785097005849.4429
-0.066,-0.281,-1.136,81.21,50.42,-112.86,1785097005849.7998
-0.11,-0.317,-1.272,71.17,65.43,-133.09,1785097005850.1538
-0.116,-0.383,-1.278,49.81,79.47,-146.76,1785097005850.464
-0.135,-0.459,-1.247,27.07,92.78,-159.06,1785097005850.776
-0.171,-0.526,-1.219,9.86,107.06,-166.42,1785097005851.0808
-0.203,-0.58,-1.208,2.04,118.72,-164.22,1785097005851.379
-0.201,-0.634,-1.234,1.04,126.62,-159.4,1785097005851.68
-0.205,-0.648,-1.258,-1.25,131.53,-160.04,1785097005851.9858
-0.223,-0.621,-1.244,-5.74,136.05,-163.82,1785097005852.298
-0.225,-0.574,-1.217,-8.58,139.04,-167.03,1785097005852.594
-0.191,-0.505,-1.189,-6.53,143.35,-171.24,1785097005852.8901
-0.142,-0.439,-1.13,0.92,150.52,-173.89,1785097005853.1892
-0.065,-0.436,-1.073,13.15,157.05,-171.45,1785097005853.4907
0.003,-0.445,-1.017,23.04,163.4,-168.19,1785097005853.7842
0.038,-0.4,-0.895,28.11,168.65,-160.74,1785097005854.088
0.148,-0.33,-0.814,33.45,171.09,-145.24,1785097005854.3943
0.378,-0.273,-0.759,40.07,171.42,-131.47,1785097005854.6892
0.561,-0.131,-0.648,38.42,161.57,-125.03,1785097005854.985
0.675,-0.015,-0.556,36.23,142.95,-119.08,1785097005855.289
0.771,0.019,-0.476,40.89,129.4,-114.29,1785097005855.589
0.804,0.067,-0.419,47.49,127.96,-112.16,1785097005855.8982
0.816,0.112,-0.375,51.33,134.95,-103.76,1785097005856.196
0.82,0.168,-0.275,57.68,139.19,-90.85,1785097005856.499
0.839,0.232,-0.266,74.16,137.24,-83.99,1785097005856.8032
0.887,0.251,-0.263,94.36,135.14,-78.65,1785097005857.107
0.974,0.235,-0.305,105.84,135.9,-73.21,1785097005857.407
1.099,0.233,-0.263,97.9,138.74,-70.71,1785097005857.7092
1.222,0.244,-0.152,87.25,137.91,-72.12,1785097005858.0322
1.284,0.22,-0.103,86.28,132.85,-71.23,1785097005858.297
1.298,0.195,-0.051,78.49,127.9,-67.02,1785097005858.5652
1.354,0.265,0.015,63.45,122.84,-63.63,1785097005858.8328
1.354,0.293,0.058,46.57,115.33,-54.48,1785097005859.104
1.353,0.335,0.108,26.76,109.68,-50.94,1785097005859.374
1.375,0.416,0.205,4.58,103.58,-51.15,1785097005859.641
1.398,0.46,0.283,-16.08,95.22,-48.13,1785097005859.936
1.425,0.5,0.346,-32.93,88.81,-47.55,1785097005860.2
1.438,0.572,0.404,-42.97,82.46,-49.78,1785097005860.477
1.428,0.661,0.452,-45.2,75.75,-48.98,1785097005860.742
1.428,0.661,0.452,-39.55,68.21,-46.36,1785097005861.0042
1.412,0.763,0.483,-26.52,60.24,-43.28,1785097005861.26
1.392,0.843,0.51,-8.7,51.88,-40.41,1785097005861.518
1.378,0.895,0.495,10.04,42.94,-36.9,1785097005861.779
1.351,0.901,0.467,25.36,32.32,-31.68,1785097005862.044
1.333,0.86,0.438,25.36,32.32,-31.68,1785097005862.3008
1.322,0.792,0.419,35.58,21.64,-25.39,1785097005862.56
1.312,0.721,0.383,40.41,12.6,-18.4,1785097005862.818
1.3,0.656,0.326,38.88,4.03,-10.71,1785097005863.0688
1.28,0.602,0.293,29.15,-4.15,-2.5,1785097005863.321
1.266,0.573,0.264,14.25,-12.39,6.07,1785097005863.596
1.258,0.552,0.24,-1.01,-19.84,15.17,1785097005863.8567
1.261,0.522,0.212,-12.94,-25.94,23.01,1785097005864.135
1.261,0.511,0.176,-21.45,-31.01,29.91,1785097005864.405
1.25,0.507,0.157,-27.62,-35.46,38.54,1785097005864.67
1.223,0.5,0.143,-31.46,-40.44,48.34,1785097005864.9548
1.201,0.489,0.126,-31.8,-46.08,59.42,1785097005865.213
1.184,0.466,0.111,-30.3,-52.34,69.61,1785097005865.477
1.179,0.441,0.079,-29.45,-59.54,77.7,1785097005865.8281
1.17,0.413,0.039,-30.4,-65.46,84.69,1785097005866.088
1.145,0.363,0.019,-32.5,-71.23,93.36,1785097005866.335
1.112,0.315,-0.011,-34.15,-78.13,101.96,1785097005866.6082
1.068,0.279,-0.048,-36.44,-86.03,110.2,1785097005866.905
1.021,0.261,-0.086,-39.83,-94.85,118.66,1785097005867.189
0.966,0.256,-0.119,-43.0,-105.41,126.47,1785097005867.446
0.919,0.247,-0.138,-44.43,-116.95,135.2,1785097005867.7
0.861,0.246,-0.111,-42.97,-130.47,145.6,1785097005867.9639
0.698,0.233,-0.108,-38.09,-149.88,160.44,1785097005868.21
0.571,0.21,-0.108,-32.65,-170.81,177.04,1785097005868.478
0.401,0.167,-0.103,-24.54,-193.09,189.21,1785097005868.741
0.189,0.11,-0.11,-14.77,-215.52,200.11,1785097005868.9878
-0.03,0.019,-0.127,-10.22,-236.61,211.49,1785097005869.2322
-0.29,-0.061,-0.126,-15.35,-258.95,222.57,1785097005869.489
-0.528,-0.203,-0.319,-24.35,-283.18,233.77,1785097005869.7368
-0.681,-0.417,-0.713,-43.79,-295.27,235.57,1785097005869.983
-0.804,-0.566,-1.0,-76.42,-299.2,225.78,1785097005870.2368
-0.934,-0.616,-1.2,-101.38,-307.17,219.82,1785097005870.497
-1.069,-0.592,-1.547,-106.14,-308.82,219.06,1785097005870.753
-1.139,-0.616,-1.997,-97.35,-289.32,216.19,1785097005871.0022
-1.177,-0.682,-2.205,-89.36,-248.54,199.44,1785097005871.251
-1.051,-0.728,-2.041,-79.99,-201.36,178.53,1785097005871.504
-0.71,-0.756,-1.669,-56.15,-160.04,165.35,1785097005871.757
-0.313,-0.722,-1.276,-25.48,-126.56,156.35,1785097005871.9958
0.028,-0.601,-0.976,-4.67,-96.53,144.05,1785097005872.224
0.306,-0.499,-0.782,4.36,-70.25,121.95,1785097005872.4602
0.486,-0.491,-0.774,1.5,-50.78,82.92,1785097005872.684
0.519,-0.492,-0.814,-18.04,-32.96,34.73,1785097005872.907
0.432,-0.478,-0.839,-39.89,-17.7,-5.4,1785097005873.136
0.315,-0.465,-0.853,-46.97,-5.52,-31.74,1785097005873.363
0.224,-0.448,-0.87,-33.81,4.33,-51.91,1785097005873.583
0.15,-0.431,-0.895,-6.04,13.34,-70.62,1785097005873.8098
0.092,-0.406,-0.933,22.1,22.46,-85.18,1785097005874.047
0.05,-0.367,-0.967,41.17,32.78,-96.32,1785097005874.275
0.007,-0.307,-0.962,48.98,40.04,-105.44,1785097005874.5
-0.007,-0.259,-0.963,47.58,41.54,-110.72,1785097005874.7341
0.03,-0.258,-0.966,38.36,40.47,-111.03,1785097005874.9702
0.086,-0.297,-0.986,24.26,39.0,-106.97,1785097005875.1948
0.133,-0.343,-0.954,10.68,39.46,-99.92,1785097005875.4238
0.148,-0.374,-0.893,3.3,39.09,-93.17,1785097005875.653
0.145,-0.396,-0.873,4.79,38.54,-88.63,1785097005875.8909
0.117,-0.385,-0.863,7.93,39.03,-85.91,1785097005876.113
0.116,-0.358,-0.858,11.29,41.08,-84.41,1785097005876.365
0.141,-0.35,-0.857,15.96,42.85,-84.51,1785097005876.5938
0.176,-0.358,-0.868,19.56,43.58,-85.15,1785097005876.821
0.203,-0.364,-0.888,20.08,43.92,-85.45,1785097005877.047
0.196,-0.382,-0.889,19.9,44.19,-84.44,1785097005877.275
0.167,-0.422,-0.898,20.54,46.02,-83.68,1785097005877.4998
0.126,-0.475,-0.894,22.98,51.48,-85.82,1785097005877.717
0.073,-0.509,-0.878,27.53,58.35,-89.82,1785097005877.94
0.04,-0.503,-0.86,33.94,65.19,-91.95,1785097005878.151
0.048,-0.479,-0.839,45.17,72.91,-91.46,1785097005878.36
0.104,-0.462,-0.846,59.14,79.62,-89.51,1785097005878.618
0.193,-0.447,-0.855,70.13,85.6,-86.37,1785097005878.836
0.262,-0.427,-0.828,75.99,91.46,-81.61,1785097005879.051
0.306,-0.392,-0.783,75.23,94.85,-75.11,1785097005879.261
0.337,-0.336,-0.723,70.74,95.4,-66.23,1785097005879.478
0.348,-0.284,-0.638,66.96,93.97,-54.38,1785097005879.716
0.368,-0.283,-0.591,66.77,92.04,-41.72,1785097005879.9272
0.553,-0.385,-0.465,78.92,90.88,-22.71,1785097005880.563
0.64,-0.421,-0.425,85.79,81.88,-14.0,1785097005880.845
-0.505,-0.51,-0.611,1.04,-1.53,6.71,1785097005881.047
-0.507,-0.521,-0.624,-6.23,-2.2,5.89,1785097005881.249
-0.513,-0.561,-0.643,-12.3,-1.65,3.14,1785097005881.456
-0.519,-0.594,-0.642,-15.81,-0.55,0.55,1785097005881.6619
-0.529,-0.615,-0.618,-15.38,-0.46,-0.46,1785097005889.598
-0.535,-0.621,-0.608,-11.44,-0.55,-0.52,1785097005902.83
-0.535,-0.619,-0.614,-5.07,0.03,0.37,1785097005908.317
-0.534,-0.602,-0.604,2.5,0.61,0.85,1785097005918.571
-0.541,-0.581,-0.589,9.64,0.31,1.34,1785097005929.045
-0.55,-0.569,-0.585,14.4,0.7,1.34,1785097005939.462
-0.562,-0.576,-0.581,17.27,1.8,0.64,1785097005949.924
-0.577,-0.593,-0.578,20.72,3.14,-1.22,1785097005963.201
-0.593,-0.602,-0.578,24.63,4.46,-3.14,1785097005968.7832
-0.6,-0.606,-0.585,28.96,5.83,-4.09,1785097005979.1118
-0.607,-0.612,-0.588,33.66,7.29,-4.94,1785097005989.5999
-0.611,-0.613,-0.582,38.42,7.78,-5.4,1785097006002.882
-0.608,-0.608,-0.571,43.0,7.84,-5.1,1785097006008.4788
-0.609,-0.609,-0.554,47.46,7.9,-4.64,1785097006018.815
-0.608,-0.608,-0.548,50.63,7.81,-4.82,1785097006029.3938
-0.603,-0.592,-0.542,52.43,7.93,-5.34,1785097006039.826
-0.601,-0.583,-0.54,53.8,7.66,-6.2,1785097006053.244
-0.612,-0.576,-0.559,52.71,7.48,-7.69,1785097006059.199
-0.625,-0.559,-0.573,47.0,7.81,-8.85,1785097006069.1042
-0.625,-0.554,-0.573,39.7,7.81,-9.7,1785097006079.754
-0.622,-0.57,-0.564,33.54,7.69,-11.66,1785097006090.131
-0.621,-0.589,-0.547,29.3,7.69,-13.95,1785097006103.4507
-0.614,-0.596,-0.524,27.31,7.51,-14.98,1785097006109.2742
-0.616,-0.598,-0.501,28.05,6.81,-15.05,1785097006119.5981
-0.632,-0.599,-0.489,29.24,6.2,-14.47,1785097006130.097
-0.657,-0.596,-0.476,28.93,6.07,-14.13,1785097006143.3767
-0.678,-0.615,-0.463,28.47,6.84,-14.98,1785097006149.458
-0.697,-0.643,-0.446,28.47,7.48,-17.58,1785097006159.3752
-0.7,-0.643,-0.475,27.25,7.51,-19.87,1785097006169.903
-0.693,-0.616,-0.519,23.19,6.59,-18.52,1785097006185.4092
-0.666,-0.615,-0.524,19.04,4.24,-15.26,1785097006188.7932
-0.659,-0.619,-0.502,16.08,1.77,-14.89,1785097006199.302
-0.654,-0.621,-0.482,15.66,0.7,-14.1,1785097006209.91
-0.628,-0.615,-0.468,18.34,-0.37,-12.91,1785097006223.208
-0.597,-0.604,-0.461,22.8,-1.8,-12.36,1785097006228.949
-0.562,-0.582,-0.482,25.42,-3.23,-11.23,1785097006239.416
-0.509,-0.56,-0.521,22.46,-5.83,-7.57,1785097006249.9048
-0.463,-0.557,-0.552,14.13,-8.61,-3.66,1785097006263.206
-0.429,-0.577,-0.573,2.72,-11.81,-1.13,1785097006268.838
-0.372,-0.619,-0.596,-7.11,-13.86,-0.18,1785097006279.15
-0.315,-0.674,-0.628,-12.6,-14.5,-1.4,1785097006289.772
-0.26,-0.728,-0.662,-14.04,-15.59,-1.04,1785097006303.0469
-0.192,-0.768,-0.702,-14.22,-16.45,1.62,1785097006308.9111
-0.148,-0.787,-0.725,-13.09,-15.93,3.27,1785097006319.3003
-0.118,-0.81,-0.729,-10.83,-15.44,5.4,1785097006329.802
-0.092,-0.813,-0.733,-8.76,-15.41,7.72,1785097006343.0322
-0.092,-0.813,-0.733,-6.2,-14.95,9.09,1785097006348.8481
-0.075,-0.8,-0.74,-2.72,-13.4,10.22,1785097006359.107
-0.078,-0.796,-0.75,-1.1,-10.99,11.32,1785097006369.644
-0.113,-0.801,-0.761,-2.38,-9.0,12.15,1785097006380.0928
-0.16,-0.817,-0.771,-2.38,-9.0,12.15,1785097006393.254
-0.183,-0.83,-0.767,-6.5,-7.66,13.28,1785097006399.1602
-0.167,-0.833,-0.764,-11.08,-6.35,14.28,1785097006409.3508
-0.136,-0.837,-0.77,-13.52,-4.43,14.83,1785097006419.889
-0.118,-0.842,-0.771,-13.82,-1.86,14.71,1785097006433.1501
-0.115,-0.838,-0.753,-13.18,0.7,13.95,1785097006439.061
-0.121,-0.827,-0.727,-11.05,3.11,12.27,1785097006449.326
-0.142,-0.815,-0.71,-7.84,5.46,10.1,1785097006459.796
-0.174,-0.802,-0.694,-4.88,7.48,7.39,1785097006473.101
-0.205,-0.792,-0.682,-3.23,9.13,4.79,1785097006478.7012
-0.238,-0.772,-0.681,-3.75,9.95,3.02,1785097006488.7869
-0.265,-0.744,-0.68,-7.23,9.89,3.17,1785097006499.1438
-0.286,-0.717,-0.674,-12.57,9.16,4.15,1785097006509.624
-0.304,-0.7,-0.678,-17.73,8.67,4.88,1785097006519.819
-0.323,-0.697,-0.688,-22.1,8.76,5.07,1785097006533.2898
-0.344,-0.698,-0.684,-25.3,9.89,4.58,1785097006539.1162
-0.368,-0.696,-0.67,-26.73,10.56,4.33,1785097006549.346
-0.391,-0.676,-0.629,-26.25,11.2,5.68,1785097006559.9949
-0.42,-0.639,-0.579,-24.26,11.23,8.79,1785097006573.185
-0.442,-0.611,-0.562,-21.49,11.44,13.0,1785097006579.5332
-0.465,-0.607,-0.574,-20.08,12.15,15.2,1785097006589.569
-0.481,-0.608,-0.584,-21.76,12.7,15.35,1785097006600.2048
-0.487,-0.608,-0.588,-24.6,13.28,15.81,1785097006613.5308
-0.494,-0.604,-0.59,-27.13,13.86,17.03,1785097006619.342
-0.509,-0.604,-0.6,-28.23,14.59,18.19,1785097006629.977
-0.545,-0.588,-0.578,-28.84,14.62,20.02,1785097006643.1538
-0.558,-0.594,-0.529,-27.01,13.55,22.92,1785097006649.112
-0.572,-0.556,-0.471,-27.44,9.25,23.99,1785097006659.47
-0.568,-0.474,-0.421,-27.28,5.04,28.5,1785097006670.048
-0.544,-0.453,-0.417,-17.46,3.91,33.85,1785097006683.315
-0.551,-0.462,-0.451,-3.72,3.91,31.65,1785097006689.188
-0.585,-0.457,-0.496,5.83,3.42,25.73,1785097006699.337
-0.617,-0.463,-0.529,8.51,4.33,21.03,1785097006709.826
-0.647,-0.479,-0.56,3.39,4.55,15.99,1785097006722.9768
-0.659,-0.493,-0.574,-7.51,3.33,12.48,1785097006728.95
-0.657,-0.522,-0.567,-18.25,1.92,11.35,1785097006739.043
-0.66,-0.554,-0.553,-25.88,-0.03,10.41,1785097006749.6052
-0.653,-0.558,-0.529,-32.47,-2.32,10.32,1785097006760.1887
-0.635,-0.542,-0.495,-37.51,-4.79,10.19,1785097006773.3938
-0.608,-0.508,-0.492,-39.43,-7.54,10.28,1785097006779.4812
-0.587,-0.448,-0.489,-39.12,-9.31,11.02,1785097006789.613
-0.583,-0.401,-0.479,-34.58,-10.77,12.09,1785097006802.8591
-0.596,-0.396,-0.507,-26.28,-11.05,11.6,1785097006808.8052
-0.621,-0.409,-0.523,-18.59,-10.44,9.7,1785097006819.318
-0.636,-0.433,-0.534,-12.33,-10.35,6.93,1785097006829.8308
-0.655,-0.478,-0.547,-9.7,-9.95,2.62,1785097006840.477
-0.704,-0.526,-0.562,-15.17,-10.35,-1.07,1785097006853.2678
-0.786,-0.532,-0.553,-27.5,-11.51,-1.95,1785097006859.0679
-0.842,-0.584,-0.608,-30.73,-7.54,-1.89,1785097006869.46
-0.887,-0.705,-0.697,-20.97,2.41,-7.42,1785097006880.0571
-0.94,-0.816,-0.722,-7.81,13.55,-17.27,1785097006893.474
-0.991,-0.863,-0.663,4.7,21.67,-23.65,1785097006899.2288
-1.026,-0.853,-0.665,16.51,26.95,-27.13,1785097006909.582
-1.091,-0.782,-0.654,21.45,32.84,-34.42,1785097006920.177
-1.178,-0.704,-0.615,23.22,35.62,-46.72,1785097006933.488
-1.211,-0.659,-0.638,26.03,40.74,-62.32,1785097006939.358
-1.207,-0.628,-0.721,22.95,50.63,-83.86,1785097006949.897
-1.24,-0.643,-0.876,8.67,56.34,-104.16,1785097006963.1738
-1.217,-0.739,-1.012,-15.59,62.26,-118.26,1785097006969.071
-1.209,-0.764,-1.056,-43.12,68.45,-135.07,1785097006979.85
-1.146,-0.814,-1.034,-63.23,74.62,-141.7,1785097006993.0972
-1.103,-0.861,-1.005,-73.43,76.02,-145.7,1785097006999.026
-1.081,-0.844,-0.969,-77.73,76.42,-146.82,1785097007009.76
-1.058,-0.833,-0.921,-74.47,77.43,-143.16,1785097007022.994
-1.007,-0.836,-0.894,-67.57,79.07,-139.13,1785097007029.138
-0.915,-0.843,-0.918,-62.47,78.98,-134.8,1785097007039.722
-0.832,-0.85,-0.984,-63.54,78.04,-130.86,1785097007052.947
-0.766,-0.866,-1.007,-71.11,78.16,-124.61,1785097007058.93
-0.7,-0.901,-0.987,-77.55,78.04,-116.49,1785097007069.707
-0.622,-0.931,-0.96,-75.66,77.09,-108.34,1785097007082.9219
-0.506,-0.964,-0.991,-60.34,75.96,-99.37,1785097007088.846
-0.381,-0.976,-1.054,-39.58,76.94,-91.83,1785097007099.447
-0.268,-0.943,-1.112,-21.7,79.35,-86.18,1785097007110.1912
-0.154,-0.916,-1.178,-8.55,85.02,-84.51,1785097007123.32
-0.12,-0.879,-1.213,-3.2,90.55,-85.54,1785097007129.457
-0.098,-0.88,-1.198,-1.43,89.42,-77.33,1785097007139.541
-0.055,-0.898,-1.104,0.95,87.74,-66.81,1785097007150.167
-0.031,-0.86,-0.998,1.65,86.03,-60.98,1785097007163.457
0.011,-0.753,-0.86,2.11,86.79,-56.55,1785097007169.2888
0.107,-0.66,-0.774,5.58,86.73,-52.95,1785097007179.617
0.215,-0.668,-0.738,8.67,84.48,-52.67,1785097007190.112
0.294,-0.701,-0.723,3.14,81.3,-55.39,1785097007203.377
0.347,-0.692,-0.667,-6.96,80.87,-56.7,1785097007209.254
0.358,-0.605,-0.592,-14.01,79.56,-55.06,1785097007219.6382
0.405,-0.495,-0.605,-12.02,79.32,-50.2,1785097007232.856
0.472,-0.459,-0.682,-3.2,84.48,-49.5,1785097007238.741
0.499,-0.504,-0.773,2.96,92.84,-55.24,1785097007249.116
0.509,-0.538,-0.782,-0.67,103.06,-60.21,1785097007259.763
0.531,-0.522,-0.737,-6.13,112.52,-59.45,1785097007273.046
0.573,-0.482,-0.677,-6.87,118.75,-54.38,1785097007279.062
0.577,-0.416,-0.597,-2.08,123.11,-50.63,1785097007289.4849
0.551,-0.358,-0.517,7.69,126.65,-47.27,1785097007300.098
0.495,-0.333,-0.487,18.4,129.89,-44.98,1785097007313.3882
0.396,-0.314,-0.44,23.9,132.63,-44.47,1785097007319.3972
0.277,-0.235,-0.381,22.43,129.49,-46.36,1785097007330.164
0.274,-0.142,-0.386,20.36,126.5,-51.03,1785097007343.364
0.348,-0.092,-0.387,19.23,126.96,-61.04,1785097007349.329
0.429,-0.117,-0.409,20.11,131.6,-76.88,1785097007360.06
0.461,-0.18,-0.404,23.04,137.91,-93.45,1785097007373.3179
0.492,-0.193,-0.424,32.01,139.23,-104.07,1785097007379.304
0.543,-0.162,-0.487,43.52,135.2,-109.53,1785097007390.311
0.592,-0.15,-0.488,57.01,131.72,-114.38,1785097007403.473
0.655,-0.165,-0.493,70.1,126.32,-120.33,1785097007409.434
0.737,-0.181,-0.517,73.73,119.3,-124.97,1785097007422.861
0.807,-0.178,-0.508,68.58,113.59,-128.82,1785097007428.628
0.872,-0.168,-0.477,59.97,107.88,-134.22,1785097007439.924
0.953,-0.141,-0.492,50.72,104.34,-144.32,1785097007453.102
1.022,-0.11,-0.49,38.45,105.81,-156.59,1785097007459.0342
1.076,-0.106,-0.452,24.99,106.17,-164.59,1785097007469.883
1.125,-0.102,-0.424,15.44,103.24,-167.55,1785097007483.168
1.201,-0.081,-0.413,12.33,101.26,-168.49,1785097007489.334
1.272,-0.059,-0.423,8.42,99.49,-168.55,1785097007500.1577
1.339,-0.026,-0.447,-1.46,97.35,-169.93,1785097007513.4531
1.399,-0.015,-0.428,-15.14,97.63,-172.43,1785097007519.3323
1.432,-0.012,-0.386,-32.01,96.65,-172.7,1785097007530.066
1.429,0.005,-0.335,-47.7,93.26,-170.57,1785097007543.365
1.423,0.038,-0.29,-58.84,88.63,-167.03,1785097007549.226
1.444,0.084,-0.229,-70.01,83.74,-163.55,1785097007560.113
1.545,0.112,-0.163,-81.94,79.87,-158.42,1785097007573.222
1.719,0.125,-0.122,-92.93,77.52,-150.55,1785097007579.327
1.801,0.171,-0.011,-102.51,74.25,-136.97,1785097007590.056
1.726,0.184,0.106,-100.8,65.74,-112.67,1785097007603.3542
1.534,0.184,0.156,-92.78,49.71,-83.53,1785097007609.177
1.33,0.22,0.158,-87.92,32.32,-58.05,1785097007619.919
1.33,0.22,0.158,-87.62,16.21,-37.63,1785097007633.1948
1.207,0.273,0.129,-88.29,1.25,-20.63,1785097007639.056
1.134,0.304,0.087,-85.39,-13.25,-4.49,1785097007649.402
1.057,0.304,0.027,-80.48,-28.84,13.82,1785097007660.135
0.963,0.311,-0.031,-72.85,-46.72,36.35,1785097007673.312
0.895,0.279,-0.084,-72.85,-46.72,36.35,1785097007679.361
0.847,0.25,-0.15,-60.58,-67.9,59.48,1785097007689.8188
0.739,0.238,-0.242,-46.57,-90.46,83.86,1785097007703.0542
0.544,0.233,-0.295,-36.07,-111.33,111.0,1785097007709.056
0.34,0.181,-0.316,-30.12,-132.76,139.84,1785097007719.863
0.162,0.135,-0.311,-28.96,-155.31,164.31,1785097007733.0151
0.012,0.162,-0.279,-27.44,-178.04,181.71,1785097007738.917
-0.188,0.145,-0.256,-24.05,-201.94,196.14,1785097007750.1177
-0.418,0.042,-0.257,-22.95,-225.23,203.07,1785097007763.427
-0.651,-0.179,-0.309,-17.85,-240.82,198.64,1785097007769.336
-0.908,-0.39,-0.487,-11.63,-250.53,187.02,1785097007782.77
-1.087,-0.456,-0.717,-20.33,-257.36,183.94,1785097007788.739
-1.174,-0.425,-0.997,-39.16,-262.76,187.38,1785097007799.7793
-1.22,-0.382,-1.448,-62.07,-260.96,187.05,1785097007813.043
-1.225,-0.318,-1.837,-90.55,-235.69,177.47,1785097007818.891
-1.099,-0.405,-2.003,-103.18,-187.44,157.08,1785097007830.086
-0.849,-0.692,-2.039,-89.85,-131.66,124.42,1785097007843.385
-0.569,-0.944,-1.887,-65.28,-76.63,89.39,1785097007849.2532
-0.3,-1.031,-1.47,-37.72,-28.78,64.0,1785097007859.899
-0.08,-1.033,-1.018,-5.68,4.12,45.56,1785097007873.202
0.075,-0.914,-0.758,17.91,22.74,24.48,1785097007879.152
0.182,-0.693,-0.723,28.72,38.64,-7.66,1785097007889.3372
0.097,-0.457,-0.796,39.61,59.63,-59.05,1785097007899.9958
-0.11,-0.294,-0.922,49.75,82.89,-116.03,1785097007913.325
-0.349,-0.195,-0.97,48.92,106.23,-165.17,1785097007919.245
-0.567,-0.217,-1.003,42.6,130.62,-194.83,1785097007930.2312
-0.519,-0.377,-1.008,40.16,156.83,-208.5,1785097007943.386
-0.445,-0.503,-0.95,45.05,174.66,-222.3,1785097007949.3508
-0.505,-0.594,-1.027,56.73,186.59,-226.87,1785097007962.849
-0.495,-0.669,-1.136,60.18,201.97,-219.34,1785097007968.7412
-0.435,-0.582,-1.176,46.45,212.65,-215.61,1785097007979.8772
-0.335,-0.391,-1.119,21.58,214.88,-210.79,1785097007993.054
-0.21,-0.283,-1.042,-2.17,213.54,-206.67,1785097007999.0442
-0.119,-0.258,-0.873,-18.8,214.12,-204.63,1785097008009.95
-0.013,-0.25,-0.707,-17.46,217.57,-200.48,1785097008023.1628
0.059,-0.226,-0.602,1.59,223.0,-191.81,1785097008029.288
0.195,-0.167,-0.508,26.95,226.26,-176.67,1785097008040.037
0.39,-0.02,-0.458,48.22,223.0,-162.91,1785097008053.237
0.578,0.109,-0.389,61.31,215.31,-149.85,1785097008059.0059
0.737,0.198,-0.33,63.69,204.84,-142.55,1785097008072.649
0.879,0.246,-0.275,55.27,197.67,-139.71,1785097008079.4739
0.914,0.278,-0.148,42.73,195.04,-135.5,1785097008089.7239
0.898,0.24,-0.09,29.57,190.68,-124.73,1785097008102.932
0.914,0.244,-0.025,10.56,189.76,-119.54,1785097008108.9202
0.958,0.275,0.072,-8.7,185.52,-113.59,1785097008119.8442
1.031,0.286,0.171,-23.44,180.27,-106.17,1785097008133.124
1.13,0.303,0.241,-33.69,176.03,-100.71,1785097008139.055
1.206,0.325,0.324,-41.87,173.01,-95.95,1785097008150.0051
1.262,0.365,0.404,-44.43,169.65,-91.28,1785097008163.255
1.295,0.438,0.494,-40.41,164.31,-88.66,1785097008169.148
1.34,0.529,0.6,-31.74,157.26,-85.97,1785097008179.9622
1.366,0.63,0.717,-16.91,149.48,-83.62,1785097008193.182
1.408,0.898,0.87,6.01,138.49,-77.82,1785097008199.09
1.433,1.243,1.092,35.83,117.89,-55.6,1785097008209.783
1.477,1.873,1.36,84.69,87.68,-28.05,1785097008222.985
1.494,2.228,1.498,156.59,50.87,10.01,1785097008229.012
1.452,1.971,1.364,215.77,21.45,28.6,1785097008239.682
1.418,1.358,1.088,217.84,6.56,26.28,1785097008252.959
1.37,0.815,0.826,146.28,-3.78,18.04,1785097008258.834
1.334,0.505,0.641,37.69,-14.95,11.72,1785097008269.3638
1.309,0.462,0.54,-62.81,-29.15,14.95,1785097008280.061
1.297,0.585,0.484,-133.55,-45.56,28.9,1785097008293.335
1.29,0.696,0.455,-168.74,-58.81,43.92,1785097008299.207
1.28,0.752,0.464,-170.02,-66.71,52.52,1785097008310.003
1.231,0.782,0.471,-149.94,-71.35,55.6,1785097008323.2053
1.224,0.72,0.467,-119.48,-74.01,61.77,1785097008329.203
1.225,0.694,0.48,-83.74,-77.97,69.55,1785097008339.859
1.243,0.677,0.458,-47.24,-83.53,79.23,1785097008353.259
1.24,0.621,0.414,-19.93,-89.45,88.44,1785097008359.0432
1.222,0.506,0.377,-6.9,-95.83,95.8,1785097008369.448
1.192,0.408,0.325,-5.34,-103.61,102.94,1785097008380.197
1.137,0.313,0.27,-12.09,-111.91,112.4,1785097008393.496
1.076,0.229,0.21,-24.99,-120.4,123.36,1785097008399.456
1.004,0.186,0.129,-41.72,-130.13,132.11,1785097008412.905
0.937,0.181,0.06,-61.56,-141.3,136.48,1785097008418.824
0.891,0.212,0.0,-80.17,-153.81,137.24,1785097008429.6992
0.848,0.234,-0.066,-94.18,-165.14,134.4,1785097008443.104
0.802,0.233,-0.107,-103.46,-174.72,129.58,1785097008449.1047
0.727,0.216,-0.124,-106.23,-185.4,127.99,1785097008460.2969
0.609,0.191,-0.133,-101.87,-199.9,132.66,1785097008473.5789
0.428,0.185,-0.132,-91.31,-219.58,141.94,1785097008479.382
0.287,0.195,-0.113,-73.64,-242.96,153.32,1785097008493.029
0.077,0.206,-0.116,-48.4,-267.92,160.86,1785097008499.051
-0.141,0.2,-0.107,-23.04,-292.58,166.66,1785097008510.059
-0.339,0.14,-0.25,4.58,-313.03,166.91,1785097008523.229
-0.574,-0.03,-0.564,34.7,-320.9,157.69,1785097008529.367
-0.809,-0.247,-1.027,45.66,-324.5,151.43,1785097008540.1257
-0.968,-0.332,-1.333,32.69,-320.2,159.46,1785097008553.343
-1.012,-0.431,-1.475,37.42,-309.12,174.23,1785097008559.2903
-0.964,-0.703,-1.771,76.02,-282.63,175.79,1785097008572.525
-0.93,-0.991,-2.136,106.88,-233.62,159.28,1785097008579.025
-0.88,-1.206,-2.414,100.56,-173.62,142.64,1785097008589.962
-0.621,-1.215,-2.31,52.64,-115.05,134.62,1785097008603.169
-0.234,-1.011,-1.847,-15.75,-72.91,123.72,1785097008609.0933
0.091,-0.843,-1.377,-72.45,-44.74,102.6,1785097008619.9832
0.25,-0.72,-0.987,-105.2,-25.7,69.98,1785097008633.232
0.318,-0.609,-0.863,-103.37,-8.79,24.75,1785097008639.345
0.323,-0.54,-0.95,-68.0,21.73,-33.63,1785097008649.6157
0.18,-0.504,-1.054,-18.46,57.59,-97.45,1785097008662.9272
-0.002,-0.501,-1.137,22.43,83.29,-145.63,1785097008668.937
-0.127,-0.594,-1.252,44.74,99.61,-169.41,1785097008679.7769
-0.197,-0.709,-1.313,45.5,111.09,-178.81,1785097008692.9028
-0.234,-0.76,-1.308,33.27,118.26,-180.73,1785097008698.939
-0.255,-0.737,-1.312,15.32,127.69,-179.88,1785097008709.919
-0.263,-0.673,-1.262,-5.22,139.71,-178.96,1785097008723.1582
-0.258,-0.654,-1.202,-20.36,150.73,-180.94,1785097008729.347
-0.248,-0.663,-1.15,-29.82,160.01,-188.76,1785097008740.0242
-0.214,-0.62,-1.039,-32.65,167.06,-195.23,1785097008753.324
-0.116,-0.564,-0.967,-23.1,175.45,-192.94,1785097008759.236
-0.008,-0.485,-0.896,-3.63,186.04,-183.36,1785097008770.154
0.068,-0.402,-0.886,21.24,194.43,-169.04,1785097008783.4648
0.101,-0.303,-0.803,44.47,201.94,-154.73,1785097008789.361
0.14,-0.184,-0.719,61.28,205.24,-141.39,1785097008802.8018
0.318,-0.034,-0.597,68.51,208.72,-127.93,1785097008808.8738
0.585,0.123,-0.425,77.12,211.0,-115.05,1785097008819.781
0.814,0.183,-0.328,97.54,213.26,-104.01,1785097008832.975
0.891,0.222,-0.226,122.32,214.24,-95.95,1785097008838.806
0.969,0.27,-0.127,141.09,210.55,-83.9,1785097008850.0303
0.952,0.271,-0.048,153.48,195.81,-68.82,1785097008863.4019
0.895,0.22,-0.026,151.4,178.81,-54.99,1785097008869.2578
0.829,0.175,0.097,136.17,179.2,-50.87,1785097008880.309
0.847,0.139,0.161,114.75,183.72,-55.39,1785097008893.5107
1.018,0.127,0.254,81.82,185.86,-61.71,1785097008899.507
1.018,0.127,0.254,45.14,182.23,-66.77,1785097008912.914
1.178,0.134,0.359,11.57,175.45,-71.81,1785097008918.802
1.303,0.127,0.423,-20.97,165.72,-78.95,1785097008929.6482
1.396,0.133,0.512,-49.9,152.56,-82.64,1785097008940.2969
1.494,0.121,0.586,-79.9,137.24,-85.21,1785097008953.551
1.494,0.118,0.683,-79.9,137.24,-85.21,1785097008959.433
1.465,0.135,0.766,-103.37,123.26,-85.09,1785097008972.814
1.464,0.218,0.843,-118.35,111.06,-79.84,1785097008978.973
1.47,0.396,0.92,-123.87,97.05,-78.62,1785097008989.6892
1.507,0.567,0.936,-116.37,85.6,-81.06,1785097009002.929
1.517,0.722,0.975,-97.9,74.86,-81.03,1785097009008.568
1.513,0.895,0.993,-65.98,60.24,-77.94,1785097009019.424
1.479,1.096,0.993,-19.93,43.09,-70.93,1785097009030.171
1.45,1.239,0.991,35.65,25.3,-60.18,1785097009043.325
1.418,1.261,0.96,91.07,8.3,-48.43,1785097009049.257
1.393,1.183,0.903,138.52,-6.99,-38.0,1785097009059.6877
1.37,1.063,0.808,166.39,-20.97,-28.72,1785097009072.9548
1.353,0.919,0.658,164.83,-31.92,-22.06,1785097009079.072
1.335,0.767,0.53,134.92,-42.27,-14.98,1785097009089.64
1.309,0.65,0.424,88.96,-52.83,-3.94,1785097009100.162
1.308,0.608,0.341,37.93,-62.53,9.34,1785097009113.475
1.282,0.623,0.278,-10.16,-72.76,22.31,1785097009119.3442
1.269,0.683,0.262,-49.29,-79.17,32.41,1785097009129.909
1.269,0.651,0.285,-77.21,-89.51,49.87,1785097009143.0789
1.258,0.694,0.305,-85.12,-99.4,63.6,1785097009149.052
1.215,0.704,0.268,-79.44,-107.3,73.85,1785097009159.575
1.194,0.616,0.231,-70.68,-113.35,84.35,1785097009172.7778
1.191,0.553,0.202,-62.41,-116.06,93.6,1785097009178.911
1.13,0.481,0.135,-53.29,-121.43,101.87,1785097009189.7148
1.056,0.395,0.057,-44.95,-124.94,105.69,1785097009202.886
0.969,0.326,-0.031,-44.34,-129.98,107.3,1785097009208.8662
0.874,0.276,-0.092,-49.78,-138.31,109.44,1785097009219.8882
0.79,0.23,-0.13,-56.55,-148.93,115.24,1785097009233.113
0.707,0.2,-0.151,-61.62,-161.26,124.12,1785097009239.082
0.573,0.202,-0.142,-65.58,-177.56,136.6,1785097009250.164
0.438,0.206,-0.113,-65.49,-197.58,152.26,1785097009263.358
0.283,0.224,-0.102,-57.65,-219.37,165.59,1785097009269.4102
0.167,0.223,-0.063,-41.2,-238.87,177.37,1785097009282.767
0.008,0.158,-0.111,-17.27,-258.06,184.33,1785097009288.728
-0.193,0.03,-0.259,3.57,-271.92,185.03,1785097009299.658
-0.413,-0.098,-0.408,11.69,-279.92,182.74,1785097009312.926
-0.624,-0.209,-0.591,10.19,-289.74,185.28,1785097009318.8328
-0.764,-0.285,-0.853,-0.58,-299.6,190.4,1785097009329.803
-0.824,-0.273,-1.099,-18.1,-304.15,195.14,1785097009343.039
-0.814,-0.285,-1.443,-34.82,-302.47,200.35,1785097009349.0442
-0.82,-0.361,-1.787,-50.33,-283.88,193.64,1785097009360.066
-0.876,-0.541,-2.106,-65.77,-248.94,173.28,1785097009373.2878
-0.871,-0.729,-2.295,-87.89,-205.18,149.78,1785097009379.231
-0.659,-0.768,-2.189,-108.49,-160.77,132.54,1785097009392.671
-0.267,-0.704,-1.786,-107.06,-119.08,119.88,1785097009398.7908
0.095,-0.707,-1.329,-76.42,-81.45,99.37,1785097009409.646
0.309,-0.726,-0.948,-35.86,-50.45,69.92,1785097009422.897
0.414,-0.653,-0.787,-0.4,-26.43,39.16,1785097009428.8809
0.444,-0.52,-0.847,27.59,0.85,3.81,1785097009439.069
0.353,-0.395,-1.007,45.01,31.37,-41.84,1785097009449.733
0.184,-0.34,-1.171,46.42,57.86,-90.58,1785097009463.1592
0.009,-0.358,-1.291,32.2,79.99,-128.15,1785097009468.57
-0.107,-0.437,-1.309,15.75,99.25,-147.86,1785097009479.7068
-0.16,-0.563,-1.277,12.45,114.84,-156.1,1785097009492.904
-0.201,-0.691,-1.25,23.53,129.58,-160.04,1785097009498.971
-0.236,-0.758,-1.273,40.01,148.01,-165.32,1785097009509.908
-0.253,-0.731,-1.283,47.58,164.31,-170.54,1785097009523.1099
-0.214,-0.665,-1.273,44.4,174.63,-171.06,1785097009529.236
-0.174,-0.609,-1.228,35.1,184.45,-171.12,1785097009540.095
-0.149,-0.55,-1.137,24.26,193.7,-169.65,1785097009553.322
-0.11,-0.523,-1.067,22.52,200.35,-167.03,1785097009559.3313
-0.028,-0.463,-1.001,25.91,204.26,-166.3,1785097009572.8052
0.135,-0.312,-0.879,26.4,204.57,-158.7,1785097009578.881
0.324,-0.183,-0.783,29.24,204.75,-144.23,1785097009589.7268
0.38,-0.113,-0.649,35.16,206.46,-131.69,1785097009602.968
0.334,-0.094,-0.559,43.43,205.42,-121.04,1785097009608.9202
0.375,-0.101,-0.521,50.39,203.44,-114.08,1785097009619.99
0.57,-0.021,-0.393,50.48,203.83,-113.19,1785097009633.2258
0.716,0.103,-0.221,50.81,197.61,-108.68,1785097009639.1611
0.785,0.126,-0.166,57.28,187.02,-99.7,1785097009650.141
0.751,0.125,-0.137,64.73,184.09,-97.75,1785097009663.415
0.835,0.142,-0.123,64.06,187.41,-95.19,1785097009669.29
0.902,0.188,-0.022,55.88,192.27,-90.0,1785097009680.1592
0.898,0.173,0.048,48.52,192.69,-79.62,1785097009693.349
0.976,0.18,0.088,40.1,189.92,-74.19,1785097009699.3333
1.069,0.232,0.166,24.48,185.13,-76.33,1785097009710.083
1.186,0.252,0.233,3.72,180.24,-75.9,1785097009723.3113
1.231,0.207,0.319,-20.91,177.25,-74.83,1785097009729.4578
1.297,0.2,0.451,-42.45,174.11,-77.94,1785097009739.901
1.348,0.18,0.577,-56.76,168.8,-73.85,1785097009753.171
1.392,0.194,0.685,-72.36,161.72,-73.61,1785097009759.074
1.416,0.31,0.837,-87.47,149.54,-74.13,1785097009769.878
1.408,0.361,1.012,-97.93,134.98,-67.57,1785097009783.1472
1.411,0.534,1.186,-100.59,118.2,-65.16,1785097009789.09
1.433,0.786,1.327,-89.72,98.51,-58.9,1785097009799.8718
1.459,1.135,1.461,-62.44,75.11,-47.67,1785097009813.1
1.443,1.54,1.545,-10.22,48.25,-30.67,1785097009819.0562
1.404,1.642,1.494,64.88,22.0,-11.32,1785097009829.612
1.354,1.362,1.338,130.53,-1.34,-0.64,1785097009840.091
1.334,0.97,1.141,153.54,-18.77,0.89,1785097009853.3079
1.305,0.671,0.941,135.41,-32.5,-1.22,1785097009859.2598
1.268,0.514,0.766,95.77,-47.94,0.95,1785097009869.714
1.245,0.513,0.671,46.75,-66.65,12.97,1785097009883.014
1.243,0.597,0.6,2.69,-85.82,31.83,1785097009888.8728
1.262,0.696,0.544,-30.76,-103.15,50.87,1785097009899.467
1.281,0.746,0.523,-50.9,-118.23,64.73,1785097009910.1638
1.287,0.744,0.481,-57.59,-130.1,71.75,1785097009923.445
1.273,0.711,0.426,-56.7,-137.0,75.41,1785097009929.547
1.253,0.652,0.347,-51.42,-140.48,77.12,1785097009940.1072
1.219,0.576,0.258,-45.5,-142.92,78.92,1785097009953.344
1.178,0.502,0.172,-44.77,-145.05,81.91,1785097009959.2322
1.127,0.445,0.098,-50.33,-147.86,86.0,1785097009970.075
1.097,0.395,0.036,-57.28,-151.4,91.37,1785097009983.34
1.058,0.354,-0.022,-63.45,-156.13,96.87,1785097009989.302
0.987,0.336,-0.077,-70.5,-163.43,103.12,1785097010000.155
0.925,0.303,-0.138,-76.05,-171.39,110.81,1785097010013.455
0.845,0.273,-0.184,-80.87,-179.94,116.64,1785097010019.361
0.736,0.26,-0.221,-84.26,-191.47,123.75,1785097010032.845
0.619,0.243,-0.234,-85.33,-204.93,135.9,1785097010038.756
0.446,0.253,-0.225,-83.65,-222.3,149.91,1785097010049.7761
0.287,0.267,-0.223,-75.96,-241.55,163.98,1785097010063.078
0.148,0.222,-0.204,-59.72,-260.87,176.89,1785097010069.007
-0.061,0.135,-0.218,-39.4,-278.51,184.48,1785097010080.0698
-0.294,0.07,-0.303,-21.49,-292.12,189.89,1785097010093.311
-0.495,-0.007,-0.465,-9.83,-303.32,197.76,1785097010099.2861
-0.657,-0.135,-0.753,-13.34,-316.05,202.37,1785097010110.166
-0.818,-0.178,-1.081,-41.6,-325.94,199.68,1785097010123.371
-0.941,-0.127,-1.429,-76.78,-325.11,201.12,1785097010129.524
-1.036,-0.097,-1.81,-96.56,-304.7,203.13,1785097010142.7742
-1.086,-0.251,-2.193,-102.66,-264.69,197.58,1785097010148.8362
-1.083,-0.542,-2.44,-105.78,-210.67,178.29,1785097010160.002
-0.854,-0.851,-2.412,-103.09,-160.41,155.03,1785097010173.216
-0.509,-0.942,-2.039,-91.19,-117.77,128.15,1785097010179.194
-0.157,-0.841,-1.482,-66.62,-76.08,110.08,1785097010190.1738
-0.157,-0.841,-1.482,-28.72,-42.73,95.31,1785097010203.452
0.14,-0.796,-0.944,3.75,-23.71,62.29,1785097010209.311
0.337,-0.732,-0.702,23.74,-0.21,12.94,1785097010219.723
0.459,-0.58,-0.736,37.78,27.53,-46.21,1785097010232.9888
0.414,-0.408,-0.868,37.78,27.53,-46.21,1785097010238.894
0.204,-0.272,-0.999,43.92,53.04,-107.09,1785097010249.5142
-0.05,-0.253,-1.17,40.89,76.36,-154.73,1785097010260.358
-0.213,-0.387,-1.292,32.26,99.15,-182.47,1785097010273.4248
-0.31,-0.614,-1.32,26.67,113.68,-196.08,1785097010279.392
-0.375,-0.834,-1.335,27.25,122.53,-199.22,1785097010292.759
-0.448,-0.918,-1.408,28.99,134.56,-194.86,1785097010298.733
-0.469,-0.819,-1.362,24.96,152.9,-185.64,1785097010309.782
-0.399,-0.663,-1.272,21.94,168.46,-178.44,1785097010323.004
-0.347,-0.527,-1.237,20.57,178.72,-180.36,1785097010329.005
-0.175,-0.435,-1.187,13.73,198.64,-187.78,1785097010339.9802
-0.054,-0.378,-1.086,-3.17,203.07,-190.07,1785097010353.271
-0.011,-0.386,-0.894,-16.45,197.91,-181.86,1785097010359.17
-0.078,-0.387,-0.725,-11.54,193.43,-170.48,1785097010370.11
-0.01,-0.355,-0.664,10.22,198.92,-157.66,1785097010383.3962
0.237,-0.21,-0.626,32.72,202.92,-145.54,1785097010389.3618
0.46,0.043,-0.54,44.28,191.56,-135.78,1785097010402.7798
0.675,0.193,-0.497,49.29,178.56,-129.31,1785097010408.722
0.767,0.221,-0.364,52.49,171.82,-125.0,1785097010419.778
0.854,0.196,-0.28,54.69,161.87,-118.81,1785097010433.099
0.776,0.202,-0.229,51.45,155.83,-112.13,1785097010438.9749
0.837,0.22,-0.124,42.79,160.95,-100.68,1785097010450.509
0.894,0.305,-0.038,35.65,163.52,-94.7,1785097010463.4292
0.911,0.341,0.013,32.11,157.57,-88.23,1785097010468.8342
1.049,0.318,0.09,33.33,155.34,-83.71,1785097010479.857
1.172,0.325,0.129,41.54,152.41,-84.26,1785097010493.251
1.256,0.327,0.147,53.62,141.24,-77.52,1785097010499.278
1.345,0.353,0.232,61.04,130.44,-71.17,1785097010509.969
1.418,0.4,0.267,60.15,119.51,-68.24,1785097010522.9138
1.429,0.459,0.31,50.81,109.59,-71.32,1785097010529.363
1.474,0.518,0.368,38.64,101.47,-79.38,1785097010539.8928
1.521,0.64,0.4,28.57,94.33,-84.29,1785097010553.086
1.519,0.796,0.431,22.86,85.63,-83.96,1785097010559.0378
1.457,0.973,0.475,24.75,75.56,-78.46,1785097010569.591
1.463,1.17,0.525,37.66,64.33,-66.65,1785097010580.3
1.453,1.365,0.534,60.43,49.44,-52.8,1785097010593.463
1.43,1.517,0.507,86.64,36.87,-40.8,1785097010599.456
1.419,1.579,0.489,105.96,24.96,-30.12,1785097010610.036
1.376,1.506,0.453,114.84,12.85,-20.36,1785097010623.283
1.331,1.341,0.382,105.72,2.69,-11.35,1785097010629.203
1.3,1.166,0.306,77.67,-6.23,-1.74,1785097010639.6108
1.267,1.021,0.237,38.76,-15.11,11.02,1785097010650.265
1.234,0.954,0.196,-1.71,-23.87,27.71,1785097010663.517
1.227,0.951,0.159,-35.16,-32.5,43.61,1785097010669.437
1.218,0.942,0.122,-58.9,-39.89,56.49,1785097010679.894
1.213,0.889,0.104,-71.78,-45.63,67.72,1785097010693.2961
1.196,0.804,0.1,-75.99,-50.72,78.49,1785097010699.111
1.181,0.722,0.088,-75.56,-56.18,89.33,1785097010709.6008
1.174,0.652,0.074,-74.01,-61.56,100.22,1785097010722.8213
1.155,0.574,0.061,-73.92,-68.12,110.05,1785097010729.0493
1.122,0.501,0.04,-75.99,-74.71,116.7,1785097010739.732
1.085,0.448,0.02,-79.56,-80.94,121.86,1785097010750.1938
1.046,0.388,-0.017,-83.62,-87.56,126.68,1785097010763.4658
1.005,0.33,-0.041,-89.11,-93.81,130.31,1785097010769.255
0.958,0.287,-0.081,-94.21,-101.02,133.79,1785097010782.6892
0.94,0.249,-0.112,-98.3,-107.64,137.73,1785097010788.79
0.924,0.214,-0.125,-101.08,-114.96,142.12,1785097010800.001
0.892,0.179,-0.14,-101.66,-124.94,147.95,1785097010813.177
0.843,0.167,-0.137,-101.05,-137.85,155.86,1785097010819.17
