ax,ay,az,gx,gy,gz,timestamp_ms
1.149,0.012,-0.482,70.99,-13.92,-21.15,1785107873516.612
1.179,0.057,-0.558,67.14,-16.3,-12.48,1785107873517.153
1.187,0.148,-0.625,55.57,-15.38,-7.29,1785107873517.646
1.178,0.217,-0.675,34.94,-11.66,-1.04,1785107873518.136
1.166,0.24,-0.672,7.42,-8.36,7.48,1785107873518.6
1.157,0.214,-0.654,-18.01,-6.41,16.63,1785107873519.0771
1.193,0.184,-0.657,-38.3,-3.6,26.06,1785107873519.519
1.226,0.183,-0.641,-54.84,-1.04,33.75,1785107873519.9348
1.219,0.2,-0.605,-70.25,0.18,41.17,1785107873520.3308
1.257,0.202,-0.557,-85.15,1.65,49.56,1785107873520.738
1.311,0.202,-0.489,-96.53,2.99,55.57,1785107873521.142
1.332,0.194,-0.45,-103.12,2.59,61.19,1785107873521.5503
1.377,0.177,-0.42,-106.66,1.07,67.69,1785107873521.962
1.389,0.152,-0.393,-105.2,-2.75,72.94,1785107873522.371
1.376,0.116,-0.356,-99.89,-8.15,80.14,1785107873522.7817
1.347,0.116,-0.323,-90.67,-12.76,89.08,1785107873523.1921
1.303,0.118,-0.322,-76.33,-15.78,99.61,1785107873523.596
1.26,0.104,-0.342,-63.84,-17.0,111.82,1785107873524.021
1.244,0.089,-0.345,-57.83,-16.88,127.78,1785107873524.447
1.251,0.058,-0.342,-54.48,-16.17,145.3,1785107873524.853
1.221,0.021,-0.318,-54.11,-14.28,163.49,1785107873525.2732
1.116,-0.001,-0.278,-56.55,-11.72,184.0,1785107873525.686
0.993,0.028,-0.248,-62.01,-11.9,205.48,1785107873526.104
0.879,0.07,-0.221,-70.68,-13.67,227.03,1785107873526.544
0.75,0.101,-0.206,-85.09,-17.67,249.4,1785107873526.9539
0.598,0.079,-0.238,-104.62,-21.94,270.18,1785107873527.3398
0.368,0.002,-0.297,-128.76,-26.76,290.35,1785107873527.699
0.107,-0.119,-0.359,-151.16,-37.63,317.82,1785107873528.05
-0.211,-0.215,-0.448,-163.0,-50.81,347.45,1785107873528.403
-0.646,-0.259,-0.531,-169.01,-63.45,377.73,1785107873528.7712
-1.196,-0.27,-0.591,-173.16,-76.05,409.86,1785107873529.143
-1.77,-0.326,-0.674,-172.77,-86.37,440.17,1785107873529.518
-2.458,-0.441,-0.845,-172.22,-88.96,449.81,1785107873529.888
-2.458,-0.441,-0.845,-173.41,-88.5,441.05,1785107873530.248
-3.015,-0.7,-1.202,-169.53,-75.23,425.67,1785107873530.611
-3.123,-1.246,-1.578,-162.45,-43.0,404.13,1785107873530.9607
-2.79,-1.827,-1.559,-136.3,1.43,348.7,1785107873531.317
-2.082,-2.22,-1.153,-84.32,44.37,251.75,1785107873531.6821
-1.299,-2.344,-0.375,-84.32,44.37,251.75,1785107873532.031
-0.565,-2.048,0.084,3.54,47.09,134.8,1785107873532.4932
-0.271,-2.031,-0.261,120.0,14.4,9.25,1785107873532.903
-0.475,-1.887,-0.612,201.33,-6.13,-94.15,1785107873533.26
-0.719,-1.45,-0.601,262.09,-5.46,-162.27,1785107873533.646
-0.859,-1.021,-0.776,306.41,-10.47,-202.22,1785107873534.0002
-0.871,-0.703,-1.066,285.99,-12.88,-219.31,1785107873534.36
-0.764,-0.435,-1.077,205.54,-4.94,-230.23,1785107873534.7148
-0.596,-0.385,-0.939,115.73,5.65,-239.88,1785107873535.067
-0.528,-0.586,-0.742,47.24,17.76,-250.95,1785107873535.375
-0.581,-0.804,-0.542,7.05,27.38,-256.42,1785107873535.689
-0.572,-0.897,-0.36,1.56,31.68,-245.74,1785107873536.021
-0.436,-0.895,-0.293,35.37,30.37,-227.0,1785107873536.329
-0.286,-0.901,-0.326,91.16,22.98,-213.66,1785107873536.646
-0.187,-0.848,-0.313,136.05,10.1,-205.08,1785107873536.962
-0.081,-0.773,-0.326,160.99,-5.74,-188.63,1785107873537.2778
0.059,-0.673,-0.409,170.29,-14.16,-173.22,1785107873537.598
0.06,-0.54,-0.524,161.5,-18.07,-168.58,1785107873537.913
0.006,-0.484,-0.553,128.12,-19.53,-159.34,1785107873538.2349
0.158,-0.527,-0.471,82.28,-20.45,-139.59,1785107873538.555
0.383,-0.604,-0.39,47.76,-19.96,-126.53,1785107873538.887
0.513,-0.67,-0.374,27.47,-21.03,-119.85,1785107873539.238
0.656,-0.709,-0.326,17.88,-22.98,-110.29,1785107873539.5571
0.807,-0.716,-0.282,22.1,-25.27,-99.4,1785107873539.8772
0.884,-0.728,-0.29,36.87,-25.39,-92.26,1785107873540.2031
0.827,-0.756,-0.305,48.8,-24.51,-88.99,1785107873540.548
0.75,-0.778,-0.33,52.13,-22.52,-82.13,1785107873540.8572
0.749,-0.826,-0.327,55.48,-21.33,-70.74,1785107873541.1638
0.877,-0.825,-0.337,63.66,-21.79,-62.5,1785107873541.475
1.06,-0.764,-0.378,74.4,-22.37,-59.63,1785107873541.812
1.119,-0.734,-0.411,76.88,-25.85,-59.11,1785107873542.1262
1.095,-0.683,-0.43,62.78,-30.92,-57.01,1785107873542.4377
1.085,-0.654,-0.484,41.66,-33.45,-55.09,1785107873542.754
1.058,-0.628,-0.553,15.08,-32.9,-58.87,1785107873543.0688
1.019,-0.595,-0.599,-19.1,-28.69,-64.46,1785107873543.357
0.994,-0.538,-0.577,-57.71,-21.24,-68.73,1785107873543.637
1.004,-0.465,-0.535,-89.36,-12.76,-71.02,1785107873543.9292
1.019,-0.433,-0.511,-105.75,-3.94,-71.72,1785107873544.221
0.989,-0.443,-0.454,-107.24,4.3,-71.5,1785107873544.5261
0.925,-0.478,-0.385,-94.49,9.31,-69.4,1785107873544.81
0.867,-0.529,-0.341,-69.49,11.44,-65.22,1785107873545.106
0.821,-0.563,-0.301,-35.71,10.62,-59.63,1785107873545.402
0.797,-0.571,-0.299,3.69,6.56,-53.38,1785107873545.677
0.782,-0.578,-0.353,41.2,1.68,-48.1,1785107873545.957
0.772,-0.551,-0.388,68.06,-2.47,-44.13,1785107873546.2598
0.771,-0.541,-0.413,83.9,-6.07,-39.58,1785107873546.5442
0.766,-0.528,-0.428,85.33,-7.26,-36.41,1785107873546.823
0.769,-0.509,-0.429,75.14,-5.55,-34.64,1785107873547.107
0.759,-0.527,-0.419,59.24,-3.63,-32.65,1785107873547.3909
0.748,-0.56,-0.384,43.43,-2.56,-30.21,1785107873547.669
0.745,-0.567,-0.346,33.81,-1.31,-27.65,1785107873547.95
0.741,-0.575,-0.332,32.07,-1.4,-24.35,1785107873548.238
0.723,-0.583,-0.329,32.26,-2.35,-20.91,1785107873548.5198
0.705,-0.583,-0.316,31.43,-3.78,-17.43,1785107873548.815
0.698,-0.589,-0.316,30.52,-5.49,-14.4,1785107873549.0789
0.704,-0.576,-0.316,27.65,-6.81,-12.76,1785107873549.352
0.721,-0.545,-0.308,23.93,-8.33,-10.86,1785107873549.6409
0.733,-0.528,-0.319,20.72,-10.04,-8.67,1785107873549.903
0.723,-0.515,-0.337,15.78,-10.5,-7.63,1785107873550.173
0.711,-0.522,-0.345,10.19,-10.65,-5.55,1785107873550.447
0.698,-0.55,-0.349,4.97,-10.77,-3.08,1785107873550.705
0.683,-0.566,-0.347,1.07,-10.62,-1.1,1785107873550.965
0.679,-0.573,-0.353,-0.15,-10.04,1.56,1785107873551.2332
0.693,-0.568,-0.365,0.18,-9.22,4.3,1785107873551.5188
0.705,-0.569,-0.376,1.56,-7.17,6.65,1785107873551.7812
0.688,-0.604,-0.376,1.65,-4.76,8.48,1785107873552.044
0.67,-0.632,-0.362,1.01,-2.93,10.53,1785107873552.385
0.659,-0.662,-0.358,3.02,-1.89,12.27,1785107873552.682
0.652,-0.682,-0.36,4.15,-1.31,13.12,1785107873552.958
0.655,-0.709,-0.376,2.78,0.24,12.42,1785107873553.227
0.642,-0.728,-0.366,-2.59,2.72,10.47,1785107873553.4878
0.647,-0.742,-0.339,-7.26,4.15,10.32,1785107873553.756
0.658,-0.775,-0.317,-5.68,4.67,9.86,1785107873554.024
0.658,-0.793,-0.292,-0.7,4.06,7.87,1785107873554.288
0.664,-0.777,-0.269,6.07,2.66,6.78,1785107873554.542
0.673,-0.775,-0.274,15.96,0.55,6.84,1785107873554.826
0.665,-0.786,-0.298,24.38,-1.56,5.62,1785107873555.0798
0.656,-0.774,-0.3,26.46,-2.72,4.15,1785107873555.3237
0.661,-0.746,-0.308,25.09,-3.54,3.14,1785107873555.5789
0.66,-0.745,-0.316,20.11,-4.61,1.19,1785107873555.829
0.661,-0.735,-0.304,9.7,-5.8,-1.37,1785107873556.0762
0.674,-0.743,-0.3,-0.03,-6.68,-3.3,1785107873556.3142
0.674,-0.753,-0.3,-8.06,-7.14,-5.43,1785107873556.564
0.674,-0.744,-0.295,-14.83,-8.39,-6.62,1785107873556.8198
0.679,-0.736,-0.307,-19.9,-9.58,-7.14,1785107873557.0627
0.678,-0.731,-0.315,-24.11,-10.01,-7.93,1785107873557.3198
0.677,-0.715,-0.312,-26.98,-10.44,-8.91,1785107873557.579
0.683,-0.709,-0.32,-26.25,-10.74,-9.61,1785107873557.826
0.683,-0.703,-0.324,-22.46,-10.53,-10.22,1785107873558.087
0.682,-0.701,-0.316,-15.11,-11.11,-9.86,1785107873558.342
0.681,-0.695,-0.31,-5.25,-12.21,-9.52,1785107873558.5952
0.681,-0.672,-0.317,4.55,-12.94,-9.09,1785107873558.836
0.684,-0.655,-0.335,13.0,-13.06,-7.66,1785107873559.0898
0.683,-0.643,-0.347,17.82,-12.97,-6.59,1785107873559.342
0.685,-0.627,-0.356,17.7,-12.36,-5.65,1785107873559.589
0.683,-0.623,-0.363,14.71,-10.9,-4.85,1785107873559.8398
0.678,-0.628,-0.361,9.7,-9.25,-4.64,1785107873560.094
0.676,-0.634,-0.357,3.81,-7.51,-4.39,1785107873560.362
0.673,-0.639,-0.344,-0.12,-6.23,-4.18,1785107873560.6038
0.673,-0.648,-0.33,-1.04,-5.92,-3.72,1785107873560.8562
0.67,-0.657,-0.315,0.37,-6.2,-2.93,1785107873561.107
0.668,-0.656,-0.299,3.69,-7.35,-2.01,1785107873561.347
0.669,-0.651,-0.297,7.78,-8.91,-1.22,1785107873561.597
0.667,-0.651,-0.302,10.68,-10.28,-0.55,1785107873561.8508
0.663,-0.653,-0.295,12.45,-11.69,-0.15,1785107873562.1099
0.662,-0.665,-0.296,14.65,-13.49,0.82,1785107873562.3691
0.662,-0.678,-0.3,17.21,-15.17,1.46,1785107873562.635
0.661,-0.678,-0.303,19.2,-17.09,2.04,1785107873562.907
0.668,-0.675,-0.327,20.48,-18.65,3.17,1785107873563.139
0.673,-0.672,-0.347,19.32,-19.1,3.51,1785107873563.3818
0.671,-0.667,-0.351,15.14,-19.17,3.78,1785107873563.616
0.668,-0.672,-0.356,9.7,-18.46,4.18,1785107873563.848
0.665,-0.678,-0.352,3.94,-17.67,4.49,1785107873564.076
0.665,-0.681,-0.35,0.46,-17.03,5.22,1785107873564.307
0.665,-0.691,-0.355,-0.52,-16.54,5.52,1785107873564.542
0.661,-0.693,-0.346,-0.82,-15.78,5.4,1785107873564.7722
0.66,-0.694,-0.341,-0.64,-14.95,5.65,1785107873565.0408
0.662,-0.706,-0.348,0.15,-14.01,5.86,1785107873565.28
0.659,-0.721,-0.347,1.95,-12.91,5.71,1785107873565.5168
0.658,-0.725,-0.341,5.22,-12.09,5.68,1785107873565.752
0.662,-0.726,-0.342,10.22,-11.54,6.16,1785107873566.0142
0.659,-0.732,-0.354,14.01,-10.68,5.58,1785107873566.2598
0.652,-0.725,-0.359,14.25,-9.49,4.64,1785107873566.4949
0.654,-0.726,-0.364,13.12,-8.18,4.09,1785107873566.7278
0.654,-0.726,-0.364,11.26,-6.99,2.99,1785107873566.9739
0.656,-0.727,-0.36,9.34,-6.16,2.08,1785107873567.2012
0.654,-0.718,-0.346,8.39,-5.49,1.5,1785107873567.431
0.655,-0.72,-0.34,8.18,-4.94,0.55,1785107873567.6702
0.652,-0.726,-0.336,8.18,-4.94,0.55,1785107873567.927
0.648,-0.727,-0.334,8.55,-4.76,-0.24,1785107873568.157
0.644,-0.728,-0.337,9.43,-4.73,-0.67,1785107873568.3809
0.642,-0.723,-0.338,9.4,-4.94,-0.34,1785107873568.821
0.641,-0.727,-0.343,8.7,-4.73,-0.79,1785107873569.0369
0.813,-0.537,-0.392,4.06,0.46,0.43,1785107873569.3599
0.812,-0.526,-0.385,5.01,1.1,-0.37,1785107873569.575
0.808,-0.519,-0.384,7.23,1.77,-1.25,1785107873569.7888
0.801,-0.51,-0.382,8.85,2.32,-1.65,1785107873570.005
0.803,-0.498,-0.374,10.22,2.78,-1.59,1785107873570.8262
0.803,-0.496,-0.367,11.63,3.08,-1.34,1785107873581.3398
0.8,-0.495,-0.365,11.66,3.72,-1.07,1785107873591.764
0.799,-0.488,-0.36,10.47,4.46,-0.55,1785107873605.0552
0.8,-0.484,-0.357,9.4,4.73,-0.4,1785107873610.553
0.801,-0.489,-0.349,8.18,4.82,-0.21,1785107873620.809
0.809,-0.49,-0.339,7.08,4.79,0.21,1785107873631.257
0.812,-0.493,-0.333,6.74,4.55,0.52,1785107873641.551
0.812,-0.492,-0.328,6.13,4.3,0.79,1785107873654.8103
0.808,-0.498,-0.325,4.94,4.12,1.1,1785107873660.255
0.813,-0.5,-0.323,3.57,3.81,1.25,1785107873670.523
0.818,-0.503,-0.324,2.29,3.2,1.13,1785107873680.882
0.823,-0.501,-0.322,1.04,2.75,0.95,1785107873691.295
0.828,-0.502,-0.322,-0.18,2.5,0.95,1785107873701.6802
0.832,-0.494,-0.318,-1.77,2.38,0.89,1785107873714.9802
0.833,-0.503,-0.326,-2.47,2.11,1.07,1785107873720.5278
0.823,-0.515,-0.336,-3.54,2.04,0.7,1785107873730.656
0.822,-0.519,-0.335,-4.24,2.2,1.04,1785107873741.047
0.824,-0.532,-0.334,-3.54,1.74,0.85,1785107873751.4849
0.827,-0.534,-0.33,-3.17,1.37,0.15,1785107873761.996
0.833,-0.524,-0.327,-1.98,1.07,-0.67,1785107873775.234
0.839,-0.514,-0.329,0.03,0.49,-1.25,1785107873780.936
0.834,-0.504,-0.331,1.5,-0.15,-1.19,1785107873790.883
0.834,-0.489,-0.335,1.98,-0.79,-0.52,1785107873801.2449
0.84,-0.461,-0.346,1.37,-1.16,0.0,1785107873811.9192
0.848,-0.436,-0.353,0.21,-1.65,0.79,1785107873822.0789
0.85,-0.417,-0.356,-1.92,-2.2,1.74,1785107873835.284
0.845,-0.433,-0.367,-3.97,-2.66,2.81,1785107873840.998
0.828,-0.455,-0.379,-7.87,-2.56,3.02,1785107873851.037
0.84,-0.456,-0.39,-12.54,-2.23,3.6,1785107873861.4458
0.854,-0.469,-0.396,-15.05,-2.69,4.33,1785107873871.9841
0.843,-0.48,-0.394,-17.88,-3.05,4.18,1785107873885.243
0.84,-0.478,-0.383,-20.94,-2.96,3.6,1785107873891.0771
0.839,-0.498,-0.374,-22.61,-3.05,2.53,1785107873901.102
0.835,-0.518,-0.356,-23.71,-2.96,1.56,1785107873911.629
0.825,-0.563,-0.344,-21.39,-3.54,0.52,1785107873922.119
0.807,-0.59,-0.332,-18.46,-4.3,-1.4,1785107873935.355
0.815,-0.592,-0.323,-14.62,-4.88,-2.84,1785107873941.211
0.803,-0.643,-0.329,-9.95,-5.52,-5.37,1785107873951.144
0.77,-0.693,-0.319,-10.44,-5.8,-9.4,1785107873961.5933
0.763,-0.734,-0.305,-12.21,-5.8,-13.49,1785107873974.856
0.753,-0.805,-0.311,-13.0,-6.07,-19.44,1785107873980.8582
0.729,-0.848,-0.313,-18.13,-5.89,-27.41,1785107873991.0579
0.734,-0.835,-0.3,-24.51,-5.52,-34.94,1785107874001.73
0.751,-0.793,-0.278,-26.15,-5.92,-41.81,1785107874014.931
0.758,-0.717,-0.249,-22.16,-7.39,-47.76,1785107874020.9028
0.765,-0.659,-0.245,-10.83,-9.74,-52.22,1785107874031.0771
0.765,-0.659,-0.245,5.77,-12.54,-56.25,1785107874041.62
0.773,-0.612,-0.252,24.48,-15.72,-58.41,1785107874054.924
0.789,-0.541,-0.268,43.09,-18.25,-58.29,1785107874060.868
0.818,-0.44,-0.299,58.87,-19.29,-56.4,1785107874071.458
0.827,-0.355,-0.354,66.01,-20.02,-53.29,1785107874082.086
0.812,-0.316,-0.398,66.01,-20.02,-53.29,1785107874095.24
0.828,-0.245,-0.404,63.17,-20.81,-48.83,1785107874101.4211
0.886,-0.174,-0.424,60.64,-20.78,-43.73,1785107874111.726
0.896,-0.141,-0.461,57.44,-20.57,-39.22,1785107874124.975
0.887,-0.101,-0.478,47.49,-19.32,-34.79,1785107874130.8958
0.92,-0.075,-0.495,36.53,-18.16,-29.21,1785107874141.45
0.945,-0.053,-0.521,26.58,-16.66,-24.35,1785107874152.127
0.958,-0.016,-0.541,14.86,-15.02,-17.94,1785107874165.46
0.979,0.052,-0.564,2.96,-14.19,-10.41,1785107874171.343
1.012,0.119,-0.59,-4.76,-14.28,-2.35,1785107874181.479
1.027,0.161,-0.633,-9.46,-14.65,6.23,1785107874191.977
1.029,0.251,-0.668,-15.72,-14.1,16.66,1785107874205.234
1.083,0.376,-0.702,-19.26,-11.84,30.52,1785107874211.176
1.191,0.464,-0.726,-18.92,-9.43,44.68,1785107874221.642
1.271,0.586,-0.728,-22.37,-8.45,58.93,1785107874232.4019
1.346,0.734,-0.744,-28.08,-8.18,78.13,1785107874245.3708
1.409,0.825,-0.774,-34.61,-6.59,98.97,1785107874251.372
1.399,0.885,-0.794,-50.63,-3.3,119.57,1785107874261.709
1.346,0.917,-0.8,-77.33,2.11,143.13,1785107874274.969
1.285,0.885,-0.776,-105.93,9.58,167.7,1785107874281.025
1.218,0.812,-0.724,-129.98,17.79,191.96,1785107874291.705
1.176,0.704,-0.648,-142.7,25.33,216.71,1785107874304.917
1.11,0.527,-0.572,-141.33,30.06,242.19,1785107874310.967
1.02,0.355,-0.5,-130.34,31.04,268.26,1785107874321.93
0.903,0.223,-0.467,-114.57,29.21,294.08,1785107874335.186
0.701,0.121,-0.493,-103.46,26.83,318.55,1785107874341.2039
0.433,0.054,-0.539,-106.75,24.02,342.27,1785107874352.286
0.162,-0.02,-0.569,-122.29,19.93,366.28,1785107874365.654
-0.144,-0.093,-0.571,-140.87,14.53,389.6,1785107874371.4402
-0.506,-0.19,-0.549,-150.27,7.23,414.65,1785107874384.8738
-0.965,-0.327,-0.485,-141.0,-5.31,438.55,1785107874390.791
-1.5,-0.539,-0.398,-109.32,-20.75,457.47,1785107874401.6873
-2.004,-0.738,-0.299,-59.33,-35.28,466.29,1785107874414.894
-2.626,-1.069,-0.485,-6.84,-48.28,459.33,1785107874421.128
-3.13,-1.633,-1.17,0.85,-51.3,434.43,1785107874432.289
-3.219,-2.108,-1.777,-73.12,-23.77,389.69,1785107874442.098
-2.685,-2.472,-1.576,-182.07,20.33,326.55,1785107874455.372
-1.722,-2.685,-0.853,-255.53,47.73,212.68,1785107874461.893
-1.077,-2.756,-0.214,-240.64,52.67,67.63,1785107874474.797
-0.731,-2.752,0.132,-128.27,36.68,-52.77,1785107874480.77
-0.826,-2.485,-0.026,35.49,10.25,-150.43,1785107874491.52
-0.992,-1.988,-0.348,199.8,-0.12,-208.04,1785107874502.23
-1.093,-1.524,-0.825,331.34,-7.26,-238.23,1785107874515.6592
-1.05,-1.149,-1.152,362.04,-8.94,-245.52,1785107874521.538
-0.936,-0.764,-1.109,291.54,-2.23,-245.98,1785107874532.2937
-0.803,-0.594,-0.879,187.08,6.2,-250.77,1785107874545.423
-0.653,-0.709,-0.628,92.26,14.47,-263.13,1785107874551.5342
-0.541,-0.893,-0.407,33.23,20.08,-276.47,1785107874562.1162
-0.433,-1.033,-0.313,26.09,20.66,-280.92,1785107874575.37
-0.28,-1.097,-0.262,63.45,16.63,-278.48,1785107874581.42
-0.149,-1.081,-0.241,127.78,5.43,-273.51,1785107874592.145
-0.061,-0.917,-0.305,187.05,-9.34,-264.87,1785107874605.345
0.028,-0.617,-0.423,213.72,-20.42,-243.72,1785107874611.415
0.183,-0.33,-0.554,204.17,-28.29,-216.74,1785107874624.57
0.407,-0.132,-0.606,164.71,-31.71,-198.13,1785107874630.6938
0.63,-0.023,-0.55,103.58,-27.92,-188.94,1785107874641.644
0.947,-0.108,-0.461,40.5,-16.75,-170.54,1785107874654.876
1.188,-0.204,-0.365,-8.18,-0.24,-161.08,1785107874660.867
1.19,-0.281,-0.29,-35.13,11.47,-151.49,1785107874671.4822
1.142,-0.419,-0.25,-40.07,13.89,-130.1,1785107874682.125
1.096,-0.461,-0.203,-29.36,12.57,-114.63,1785107874695.4062
1.064,-0.4,-0.172,-4.06,8.09,-105.78,1785107874701.366
1.022,-0.353,-0.203,26.95,-0.12,-99.64,1785107874711.73
0.988,-0.261,-0.251,48.31,-7.54,-95.34,1785107874725.024
1.041,-0.216,-0.301,62.78,-13.55,-89.88,1785107874731.049
1.108,-0.19,-0.303,69.25,-19.17,-82.55,1785107874741.3618
1.178,-0.189,-0.312,69.49,-26.61,-69.4,1785107874752.094
1.196,-0.206,-0.359,63.57,-31.92,-56.73,1785107874765.6501
1.134,-0.188,-0.423,47.82,-32.96,-46.69,1785107874771.334
1.087,-0.199,-0.482,26.06,-31.56,-38.82,1785107874782.259
1.048,-0.266,-0.522,1.37,-28.47,-37.66,1785107874794.946
1.046,-0.338,-0.52,-20.75,-24.14,-41.99,1785107874800.9448
1.059,-0.433,-0.513,-30.58,-22.1,-46.11,1785107874811.313
1.089,-0.508,-0.495,-25.3,-20.29,-48.1,1785107874821.983
1.107,-0.526,-0.454,-6.93,-15.84,-49.99,1785107874835.258
1.097,-0.454,-0.401,18.98,-13.28,-48.34,1785107874841.196
1.083,-0.371,-0.415,47.79,-13.95,-43.43,1785107874851.5962
1.059,-0.263,-0.48,66.35,-12.12,-42.57,1785107874864.827
1.055,-0.138,-0.567,65.43,-7.6,-42.82,1785107874870.825
1.059,-0.045,-0.632,45.56,-1.86,-40.07,1785107874881.154
1.053,0.017,-0.645,12.02,3.23,-34.79,1785107874891.657
1.057,0.054,-0.627,-24.66,8.03,-28.99,1785107874904.668
1.068,0.085,-0.584,-55.76,11.57,-22.55,1785107874910.924
1.086,0.107,-0.529,-75.66,12.91,-14.77,1785107874921.3289
1.106,0.12,-0.476,-84.14,11.96,-6.44,1785107874932.632
1.14,0.12,-0.441,-83.86,9.22,2.75,1785107874945.1243
1.192,0.113,-0.43,-78.25,5.49,11.75,1785107874951.146
1.254,0.115,-0.45,-71.5,1.04,19.78,1785107874961.178
1.312,0.126,-0.492,-68.18,-3.54,27.07,1785107874971.7708
1.372,0.138,-0.525,-71.14,-6.93,33.39,1785107874985.0518
1.427,0.151,-0.524,-81.58,-8.67,38.39,1785107874991.0469
1.487,0.13,-0.507,-96.16,-10.9,43.28,1785107875001.321
1.498,0.093,-0.465,-108.58,-11.99,48.04,1785107875012.1118
1.451,0.052,-0.409,-114.84,-12.36,56.06,1785107875025.3042
1.404,0.014,-0.391,-112.98,-12.73,65.98,1785107875031.395
1.419,-0.003,-0.399,-106.69,-13.67,75.99,1785107875042.033
1.489,-0.006,-0.428,-99.86,-13.21,86.7,1785107875055.257
1.574,-0.015,-0.41,-95.28,-8.06,101.17,1785107875061.218
1.64,-0.025,-0.261,-88.99,-2.41,121.49,1785107875071.834
1.596,-0.033,-0.099,-76.48,-0.82,147.47,1785107875084.9312
1.373,-0.021,-0.041,-62.17,-2.08,178.29,1785107875090.8108
1.079,0.038,-0.085,-53.38,-7.2,210.97,1785107875101.425
0.817,0.112,-0.179,-51.58,-18.46,245.4,1785107875112.12
0.6,0.135,-0.366,-53.9,-31.98,278.51,1785107875125.418
0.352,0.155,-0.539,-64.55,-38.91,307.05,1785107875131.635
0.05,0.14,-0.639,-82.55,-40.77,336.53,1785107875142.101
-0.352,0.027,-0.715,-101.78,-43.49,364.88,1785107875155.3809
-0.891,-0.117,-0.762,-125.83,-49.47,391.16,1785107875161.4048
-1.561,-0.172,-0.768,-158.64,-57.68,422.07,1785107875174.7893
-2.394,-0.126,-0.813,-190.95,-75.93,452.96,1785107875180.796
-3.405,-0.064,-0.978,-217.9,-100.25,476.64,1785107875191.8691
-3.991,-0.256,-1.35,-237.92,-104.74,496.96,1785107875205.1047
-3.866,-0.83,-1.568,-249.24,-72.54,492.45,1785107875211.166
-2.851,-1.598,-1.468,-222.66,-32.01,434.1,1785107875222.16
-1.835,-2.734,-1.286,-152.81,11.08,314.0,1785107875235.2222
-0.519,-3.327,-0.415,-92.87,59.21,157.14,1785107875241.458
0.307,-2.171,0.285,-25.67,53.07,-54.23,1785107875252.198
-0.078,-1.547,-0.381,102.21,-13.37,-213.45,1785107875265.524
-0.705,-1.624,-1.033,174.93,-21.82,-270.12,1785107875271.501
-1.238,-1.429,-1.15,191.02,3.85,-308.85,1785107875284.899
-1.512,-1.046,-1.132,208.47,17.55,-325.24,1785107875290.93
-1.34,-0.644,-1.058,192.14,22.4,-299.2,1785107875301.727
-0.885,-0.449,-0.907,136.91,22.77,-279.58,1785107875315.1802
-0.885,-0.449,-0.907,82.98,24.51,-296.06,1785107875321.103
-0.663,-0.461,-0.694,54.17,26.22,-319.16,1785107875331.855
-0.659,-0.597,-0.511,54.51,19.71,-314.46,1785107875344.9878
-0.571,-0.81,-0.467,76.63,12.76,-295.88,1785107875351.0908
-0.38,-0.912,-0.518,115.39,11.23,-280.31,1785107875361.79
-0.245,-0.832,-0.551,115.39,11.23,-280.31,1785107875375.0698
-0.16,-0.632,-0.582,150.64,9.03,-268.62,1785107875381.133
-0.048,-0.458,-0.63,157.66,4.61,-252.69,1785107875391.876
0.104,-0.31,-0.661,134.86,3.27,-235.69,1785107875405.092
0.25,-0.24,-0.663,102.21,6.71,-224.22,1785107875411.115
0.372,-0.298,-0.602,71.69,11.75,-211.65,1785107875421.6
0.494,-0.367,-0.509,48.71,17.21,-194.8,1785107875435.074
0.547,-0.407,-0.427,40.96,20.97,-171.42,1785107875441.115
0.733,-0.469,-0.45,52.52,20.69,-138.83,1785107875451.7878
0.965,-0.342,-0.479,75.9,25.42,-138.0,1785107875465.1091
0.939,-0.282,-0.538,88.02,25.3,-137.39,1785107875471.081
0.918,-0.23,-0.495,79.07,28.75,-125.61,1785107875481.932
0.965,-0.275,-0.455,68.88,33.75,-120.27,1785107875495.039
1.109,-0.429,-0.443,59.51,38.03,-118.9,1785107875501.1047
1.179,-0.452,-0.374,47.58,41.02,-117.07,1785107875511.71
1.191,-0.389,-0.345,41.35,39.28,-107.7,1785107875524.965
1.164,-0.365,-0.363,38.85,34.24,-96.38,1785107875530.955
1.074,-0.333,-0.355,32.2,29.15,-88.72,1785107875541.4773
1.009,-0.378,-0.381,28.78,23.74,-83.29,1785107875552.194
0.981,-0.367,-0.374,26.64,18.43,-81.45,1785107875565.513
1.059,-0.241,-0.393,28.93,12.33,-78.43,1785107875571.381
1.201,-0.18,-0.454,38.82,6.07,-75.62,1785107875581.899
1.288,-0.133,-0.452,43.21,3.3,-76.36,1785107875594.951
1.32,-0.072,-0.421,43.37,3.48,-75.66,1785107875601.118
1.293,-0.055,-0.425,43.06,3.05,-71.47,1785107875611.141
1.228,0.006,-0.429,38.0,4.55,-65.83,1785107875621.731
1.178,0.057,-0.441,32.9,6.71,-59.3,1785107875634.982
1.12,0.082,-0.45,27.31,7.14,-53.74,1785107875641.003
1.095,0.073,-0.451,25.18,5.22,-48.1,1785107875651.1372
1.081,0.041,-0.474,28.84,0.79,-44.28,1785107875661.762
1.083,0.0,-0.53,32.65,-3.42,-40.13,1785107875675.026
1.06,-0.05,-0.559,32.47,-5.4,-33.48,1785107875681.064
1.045,-0.092,-0.546,27.34,-6.5,-24.78,1785107875691.164
1.015,-0.064,-0.515,16.72,-6.23,-18.19,1785107875701.7478
1.018,0.016,-0.489,1.74,-7.45,-11.44,1785107875714.986
1.043,0.112,-0.479,-17.27,-7.05,-5.65,1785107875720.834
1.042,0.131,-0.47,-40.41,-5.4,2.41,1785107875730.855
1.044,0.101,-0.438,-59.42,-5.4,11.14,1785107875741.449
1.066,0.089,-0.417,-64.46,-7.17,19.35,1785107875752.0361
1.1,0.103,-0.419,-59.21,-9.7,28.14,1785107875765.255
1.132,0.158,-0.399,-54.35,-12.85,38.06,1785107875771.272
1.149,0.262,-0.38,-51.45,-17.94,50.94,1785107875781.656
1.22,0.336,-0.397,-46.27,-22.89,64.76,1785107875794.893
1.224,0.428,-0.381,-42.7,-27.8,75.2,1785107875800.9
1.252,0.5,-0.408,-40.35,-34.42,92.29,1785107875811.335
1.351,0.5,-0.488,-35.86,-39.16,108.43,1785107875822.0842
1.395,0.528,-0.533,-37.63,-42.27,122.93,1785107875835.3337
1.419,0.548,-0.587,-47.27,-42.7,142.43,1785107875841.32
1.417,0.533,-0.608,-66.96,-39.37,162.08,1785107875852.0552
1.303,0.507,-0.577,-96.07,-33.69,182.68,1785107875865.3582
1.168,0.432,-0.544,-123.33,-27.01,208.32,1785107875871.346
1.083,0.332,-0.504,-138.0,-20.78,233.89,1785107875882.2
1.039,0.219,-0.451,-134.53,-14.37,259.38,1785107875895.448
0.939,0.075,-0.411,-116.25,-9.16,287.61,1785107875901.4932
0.722,0.023,-0.412,-94.42,-4.52,319.8,1785107875912.206
0.41,-0.006,-0.435,-70.07,-2.44,354.17,1785107875925.385
0.08,-0.033,-0.446,-50.36,-6.29,388.62,1785107875931.49
-0.252,-0.028,-0.441,-38.09,-13.43,420.48,1785107875941.982
-0.65,-0.059,-0.477,-34.46,-17.49,448.87,1785107875955.2222
-1.112,-0.13,-0.542,-49.07,-17.3,473.71,1785107875961.227
-1.816,-0.131,-0.516,-82.25,-17.7,488.78,1785107875972.0059
-2.761,-0.182,-0.439,-122.17,-39.0,504.84,1785107875985.3362
-3.885,-0.425,-0.674,-165.65,-82.43,502.98,1785107875991.219
-4.0,-1.14,-1.659,-239.39,-98.76,490.62,1785107876002.176
-3.802,-2.477,-2.587,-333.81,-36.44,448.35,1785107876015.5771
-2.621,-3.708,-1.794,-373.73,54.17,280.13,1785107876021.471
-0.945,-4.0,0.323,-323.01,88.2,74.71,1785107876034.845
0.073,-3.466,1.359,-102.91,58.57,-126.07,1785107876040.813
-0.651,-2.715,0.383,235.54,10.59,-306.34,1785107876051.764
-2.185,-2.377,-0.939,504.47,-14.31,-412.7,1785107876065.082
-3.303,-1.786,-1.928,604.6,-22.13,-456.59,1785107876070.98
-3.012,-1.023,-1.985,537.28,-10.22,-410.05,1785107876082.1052
-1.766,-0.55,-1.461,366.89,-9.0,-356.12,1785107876095.19
-1.183,-0.251,-1.0,206.03,-15.41,-376.48,1785107876101.3079
-1.003,-0.445,-0.79,101.72,-16.39,-404.52,1785107876112.1228
-0.707,-0.788,-0.491,48.89,-16.33,-405.29,1785107876125.3162
-0.399,-0.872,-0.429,49.99,-21.79,-390.58,1785107876131.5132
-0.085,-0.672,-0.584,61.74,-28.96,-355.17,1785107876142.04
0.229,-0.303,-0.672,57.34,-36.87,-317.91,1785107876155.274
0.499,0.026,-0.668,42.7,-42.39,-298.35,1785107876161.243
0.795,0.117,-0.629,20.84,-37.93,-284.52,1785107876172.016
1.106,0.068,-0.511,-5.83,-26.8,-262.61,1785107876185.2998
1.285,0.025,-0.394,-16.36,-21.27,-229.68,1785107876191.221
1.236,-0.002,-0.35,10.25,-25.12,-191.84,1785107876201.86
1.096,0.025,-0.406,62.07,-34.82,-161.69,1785107876215.376
1.031,0.142,-0.519,106.3,-46.08,-141.67,1785107876221.16
1.112,0.255,-0.614,122.32,-54.51,-122.07,1785107876232.448
1.396,0.308,-0.668,114.6,-56.55,-102.21,1785107876245.4028
1.749,0.365,-0.705,95.92,-48.04,-96.87,1785107876251.435
1.597,0.44,-0.677,64.0,-36.93,-97.6,1785107876261.877
1.439,0.226,-0.625,24.63,-33.27,-70.62,1785107876275.167
1.306,0.038,-0.59,-5.68,-30.85,-54.54,1785107876281.3381
1.236,-0.103,-0.657,-16.79,-30.58,-46.05,1785107876291.5762
1.141,-0.208,-0.68,-14.83,-28.9,-42.12,1785107876302.1318
1.049,-0.209,-0.649,-2.26,-26.7,-39.43,1785107876315.552
0.992,-0.203,-0.678,15.63,-24.63,-36.13,1785107876321.377
0.956,-0.209,-0.704,22.68,-19.87,-33.75,1785107876332.103
0.931,-0.222,-0.683,18.07,-12.05,-32.07,1785107876344.9658
0.905,-0.248,-0.644,11.17,-5.55,-30.7,1785107876351.079
0.902,-0.241,-0.618,5.89,-2.2,-29.45,1785107876361.158
0.897,-0.241,-0.613,3.63,0.76,-29.08,1785107876371.688
0.893,-0.245,-0.603,-1.28,5.04,-27.89,1785107876382.349
0.899,-0.237,-0.581,-6.16,9.92,-24.48,1785107876395.41
0.905,-0.22,-0.576,-7.78,14.16,-19.84,1785107876401.4832
0.886,-0.21,-0.587,-11.29,17.82,-15.69,1785107876411.5999
0.861,-0.174,-0.576,-21.61,21.45,-10.68,1785107876424.8618
0.864,-0.12,-0.557,-34.76,24.6,-4.49,1785107876430.9011
0.889,-0.074,-0.543,-47.85,26.34,1.22,1785107876441.108
0.929,-0.061,-0.551,-62.69,27.47,6.96,1785107876451.6978
0.983,-0.079,-0.579,-76.24,27.99,12.94,1785107876465.032
1.061,-0.098,-0.598,-83.47,27.53,18.68,1785107876470.9001
1.129,-0.076,-0.626,-87.77,26.37,23.74,1785107876481.422
1.223,-0.013,-0.705,-95.49,24.29,29.63,1785107876491.999
