ax,ay,az,gx,gy,gz,timestamp_ms
0.982,-0.594,-0.298,33.75,1.65,-7.32,1785108110123.526
1.056,-0.533,-0.299,44.89,-2.04,-10.19,1785108110123.803
1.116,-0.469,-0.316,52.49,-4.24,-10.86,1785108110124.075
1.172,-0.421,-0.331,55.85,-6.07,-10.65,1785108110124.346
1.226,-0.344,-0.331,53.35,-8.12,-11.02,1785108110124.6082
1.28,-0.25,-0.31,48.92,-14.13,-9.31,1785108110124.872
1.364,-0.182,-0.33,43.46,-19.68,-6.41,1785108110125.139
1.446,-0.091,-0.351,31.86,-24.63,-5.1,1785108110125.3992
1.528,-0.001,-0.395,14.86,-30.98,-3.66,1785108110125.66
1.617,0.077,-0.427,-7.54,-35.71,-2.78,1785108110125.924
1.704,0.13,-0.421,-33.23,-40.31,-2.75,1785108110126.1858
1.739,0.151,-0.405,-59.72,-44.98,-0.95,1785108110126.4497
1.779,0.197,-0.388,-84.84,-49.1,6.04,1785108110126.7031
1.843,0.268,-0.351,-97.2,-51.79,15.75,1785108110126.972
1.965,0.353,-0.352,-95.98,-54.08,23.99,1785108110127.237
2.118,0.483,-0.346,-90.33,-54.08,30.85,1785108110127.499
2.184,0.604,-0.348,-88.08,-53.59,42.15,1785108110127.7593
2.157,0.66,-0.337,-92.44,-56.22,66.81,1785108110128.0278
2.107,0.695,-0.319,-96.68,-59.42,98.33,1785108110128.285
2.01,0.863,-0.323,-99.77,-58.53,131.2,1785108110128.5398
1.875,1.078,-0.359,-98.33,-55.67,175.79,1785108110128.802
1.64,1.226,-0.484,-94.76,-48.46,227.91,1785108110129.076
1.162,1.215,-0.593,-97.9,-35.55,288.98,1785108110129.3508
0.527,1.006,-0.739,-106.91,-23.5,361.34,1785108110129.627
-0.177,0.789,-0.939,-123.66,-16.33,441.82,1785108110129.976
-1.049,0.615,-0.96,-152.01,-20.97,526.6,1785108110130.296
-2.499,0.666,-0.736,-208.38,-57.65,617.85,1785108110130.5798
-4.0,0.407,-0.388,-324.29,-156.56,730.74,1785108110130.857
-4.0,-0.666,-3.059,-550.77,-231.7,705.1,1785108110131.14
-3.971,-3.714,-2.532,-536.61,48.25,553.42,1785108110131.421
-3.282,-4.0,0.303,-255.68,261.27,335.52,1785108110131.702
-0.8,-3.958,2.764,206.46,240.09,-30.0,1785108110131.978
-2.037,-3.905,0.584,612.66,23.9,-438.55,1785108110132.258
-4.0,-3.27,-2.337,826.35,-69.31,-552.29,1785108110132.549
-4.0,-1.092,-3.536,775.26,-89.02,-525.86,1785108110132.834
-3.401,1.472,-2.535,442.34,-77.85,-441.57,1785108110133.123
-1.783,2.059,-1.174,88.02,-26.34,-415.45,1785108110133.418
-1.349,0.424,-0.915,-62.47,21.61,-461.07,1785108110133.7102
-1.123,-0.317,-0.396,-49.2,30.34,-434.55,1785108110134.0051
-0.305,0.03,-0.377,109.5,-5.37,-365.7,1785108110134.293
0.457,0.856,-0.797,269.54,-22.55,-313.12,1785108110134.5989
1.261,1.503,-0.947,351.85,-28.6,-257.39,1785108110134.897
2.319,1.359,-1.043,356.61,-27.56,-201.79,1785108110135.199
3.377,1.126,-1.153,265.14,-5.37,-184.3,1785108110135.488
3.764,0.769,-1.136,101.32,11.87,-106.75,1785108110135.787
2.654,0.367,-0.688,-45.23,42.36,-22.83,1785108110136.082
1.743,0.032,-0.318,-86.0,38.91,-5.52,1785108110136.3772
1.653,-0.288,-0.204,-48.65,14.65,-21.24,1785108110136.664
1.703,-0.388,-0.176,-2.47,-7.39,-29.76,1785108110136.9688
1.638,-0.323,-0.314,30.27,-24.93,-22.77,1785108110137.291
1.404,-0.14,-0.432,24.08,-24.93,-17.33,1785108110137.5981
1.274,-0.124,-0.406,-10.25,-21.0,-3.11,1785108110137.914
1.281,-0.305,-0.335,-35.34,-16.42,10.16,1785108110138.2349
1.229,-0.471,-0.247,-40.01,-7.72,12.3,1785108110138.55
1.104,-0.569,-0.186,-30.61,-3.33,11.41,1785108110138.8591
1.01,-0.639,-0.168,-13.34,-2.5,12.05,1785108110139.17
0.887,-0.653,-0.181,2.69,-1.25,9.55,1785108110139.5002
0.801,-0.668,-0.236,14.28,0.21,7.39,1785108110139.812
0.731,-0.676,-0.274,17.64,3.39,4.12,1785108110140.1228
0.687,-0.671,-0.301,10.9,6.68,0.15,1785108110140.449
0.685,-0.683,-0.291,-0.61,9.92,-0.89,1785108110140.768
0.715,-0.716,-0.213,-6.2,11.51,-1.53,1785108110141.112
0.747,-0.768,-0.161,-1.4,11.29,-0.15,1785108110141.46
0.795,-0.802,-0.169,12.57,13.7,0.27,1785108110141.8162
0.84,-0.782,-0.228,29.54,18.07,-4.7,1785108110142.164
0.823,-0.739,-0.284,36.23,21.21,-8.7,1785108110142.4749
0.767,-0.718,-0.284,30.09,20.11,-7.51,1785108110142.7842
0.782,-0.664,-0.255,23.56,19.84,-5.16,1785108110143.096
0.767,-0.626,-0.269,21.55,21.0,-3.39,1785108110143.397
0.727,-0.59,-0.239,16.33,18.74,-0.82,1785108110143.715
0.746,-0.545,-0.19,15.93,14.8,-0.58,1785108110144.022
0.767,-0.546,-0.176,20.42,11.02,-0.31,1785108110144.332
0.767,-0.566,-0.172,22.77,7.81,0.92,1785108110144.6382
0.761,-0.594,-0.192,25.09,6.23,1.16,1785108110144.959
0.747,-0.626,-0.232,25.67,4.36,1.74,1785108110145.262
0.743,-0.632,-0.267,22.25,3.45,3.02,1785108110145.56
0.739,-0.627,-0.259,18.25,2.35,4.0,1785108110145.866
0.754,-0.63,-0.244,14.95,0.58,3.57,1785108110146.183
0.757,-0.65,-0.229,11.08,0.0,2.62,1785108110146.535
0.748,-0.659,-0.198,6.93,-0.76,3.02,1785108110146.839
0.756,-0.651,-0.167,5.74,-1.1,4.91,1785108110147.147
0.752,-0.655,-0.174,7.72,-1.89,5.89,1785108110147.455
0.734,-0.628,-0.191,7.48,-1.22,5.77,1785108110147.7617
0.734,-0.628,-0.191,8.3,-0.27,6.71,1785108110148.064
0.721,-0.633,-0.198,10.41,-0.37,5.77,1785108110148.353
0.712,-0.677,-0.19,12.45,0.21,3.78,1785108110148.639
0.724,-0.698,-0.218,13.92,1.4,2.44,1785108110148.9348
0.733,-0.724,-0.219,12.91,-0.24,3.08,1785108110149.225
0.744,-0.734,-0.187,12.91,-0.24,3.08,1785108110149.515
0.739,-0.718,-0.164,14.44,-1.19,3.75,1785108110149.861
0.704,-0.699,-0.153,15.05,-2.44,2.99,1785108110150.175
0.703,-0.694,-0.139,12.33,-3.6,4.0,1785108110150.464
0.692,-0.695,-0.153,10.65,-3.85,3.45,1785108110150.754
0.67,-0.691,-0.176,9.03,-4.97,4.0,1785108110151.032
0.663,-0.687,-0.184,8.61,-5.83,5.01,1785108110151.316
0.672,-0.693,-0.188,10.38,-5.89,5.49,1785108110151.608
0.686,-0.705,-0.193,14.59,-5.37,6.2,1785108110151.9092
0.704,-0.697,-0.211,17.76,-4.27,6.84,1785108110152.195
0.708,-0.68,-0.221,18.43,-1.92,7.48,1785108110152.49
0.686,-0.687,-0.222,15.78,-0.37,8.15,1785108110152.79
0.659,-0.706,-0.216,10.22,0.73,8.61,1785108110153.07
0.653,-0.729,-0.205,4.7,1.53,9.34,1785108110153.3552
0.665,-0.74,-0.198,0.46,1.65,8.58,1785108110153.645
0.677,-0.74,-0.216,-4.73,2.38,5.49,1785108110153.9211
0.676,-0.756,-0.225,-12.15,3.33,2.72,1785108110154.2139
0.676,-0.804,-0.211,-17.82,3.08,1.07,1785108110154.512
0.669,-0.836,-0.192,-16.45,2.11,-0.09,1785108110154.8118
0.661,-0.844,-0.187,-5.95,0.06,-0.21,1785108110155.092
0.66,-0.816,-0.207,8.33,-1.95,-1.31,1785108110155.3809
0.667,-0.753,-0.233,16.97,-1.46,-2.9,1785108110155.673
0.667,-0.696,-0.248,16.45,-1.34,-3.33,1785108110155.951
0.65,-0.655,-0.256,6.1,-2.56,-3.14,1785108110156.226
0.629,-0.641,-0.247,-8.09,-3.17,-3.81,1785108110156.4941
0.614,-0.652,-0.204,-20.54,-4.76,-6.16,1785108110156.759
0.614,-0.677,-0.187,-29.21,-6.65,-9.92,1785108110157.029
0.626,-0.699,-0.174,-32.44,-7.57,-14.65,1785108110157.305
0.639,-0.71,-0.17,-32.04,-8.64,-19.01,1785108110157.6628
0.639,-0.728,-0.177,-28.35,-10.47,-21.58,1785108110157.934
0.624,-0.757,-0.177,-21.88,-14.01,-22.68,1785108110158.2122
0.627,-0.791,-0.188,-13.79,-18.16,-23.32,1785108110158.497
0.66,-0.798,-0.205,-7.57,-19.35,-23.04,1785108110158.761
0.709,-0.811,-0.225,-2.9,-19.26,-20.11,1785108110159.025
0.738,-0.828,-0.232,-0.67,-17.94,-17.09,1785108110159.294
0.748,-0.832,-0.23,-2.44,-15.44,-14.19,1785108110159.563
0.758,-0.837,-0.219,-6.99,-12.3,-10.13,1785108110159.8257
0.763,-0.847,-0.219,-11.96,-9.52,-6.16,1785108110160.0918
0.751,-0.844,-0.228,-17.79,-7.29,-3.08,1785108110160.352
0.732,-0.841,-0.24,-22.68,-5.49,-0.64,1785108110160.6138
0.716,-0.842,-0.253,-24.38,-3.85,2.17,1785108110160.897
0.708,-0.847,-0.253,-20.63,-2.56,5.31,1785108110161.165
0.705,-0.845,-0.26,-11.69,-2.29,8.42,1785108110161.439
0.709,-0.829,-0.281,0.06,-2.29,11.93,1785108110161.691
0.713,-0.805,-0.307,12.27,-1.65,16.02,1785108110161.9358
0.722,-0.78,-0.327,22.06,-0.82,19.96,1785108110162.1829
0.728,-0.754,-0.332,29.27,0.49,23.35,1785108110162.423
0.726,-0.727,-0.329,33.39,2.56,26.83,1785108110162.6648
0.716,-0.72,-0.335,33.39,4.36,30.46,1785108110162.909
0.7,-0.71,-0.328,30.43,6.07,31.71,1785108110163.1548
0.682,-0.692,-0.318,26.86,6.87,31.01,1785108110163.401
0.664,-0.672,-0.311,23.53,7.11,29.51,1785108110163.679
0.644,-0.636,-0.303,20.45,6.16,27.53,1785108110163.925
0.642,-0.597,-0.297,17.79,4.76,25.24,1785108110164.17
0.649,-0.578,-0.299,15.44,2.81,21.85,1785108110164.4192
0.653,-0.577,-0.299,12.3,0.79,17.52,1785108110164.6787
0.654,-0.598,-0.293,7.9,-0.43,12.45,1785108110164.926
0.662,-0.607,-0.274,0.85,-2.2,8.3,1785108110165.17
0.681,-0.608,-0.254,-4.76,-3.36,5.68,1785108110165.434
0.698,-0.618,-0.238,-6.56,-3.05,3.3,1785108110165.678
0.708,-0.623,-0.22,-6.29,-2.62,0.58,1785108110165.922
0.715,-0.628,-0.211,-5.52,-2.53,-1.95,1785108110166.167
0.719,-0.631,-0.211,-5.22,-1.83,-4.55,1785108110166.41
0.708,-0.638,-0.209,-4.21,-0.95,-6.96,1785108110166.655
0.686,-0.653,-0.204,-2.44,-0.61,-9.43,1785108110166.8943
0.677,-0.665,-0.19,-1.13,-0.7,-11.93,1785108110167.1482
0.68,-0.675,-0.182,1.5,-0.27,-14.28,1785108110167.396
0.68,-0.692,-0.173,6.1,0.34,-16.88,1785108110167.634
0.682,-0.717,-0.159,11.02,0.64,-19.56,1785108110167.8828
0.687,-0.732,-0.133,16.08,0.89,-21.18,1785108110168.131
0.69,-0.732,-0.118,24.69,0.82,-21.49,1785108110168.3818
0.687,-0.735,-0.117,36.44,0.09,-21.06,1785108110168.6243
0.677,-0.724,-0.127,48.62,-0.73,-20.63,1785108110168.8918
0.672,-0.719,-0.149,61.92,-1.46,-18.89,1785108110169.139
0.679,-0.727,-0.16,71.93,-3.39,-16.51,1785108110169.384
0.692,-0.73,-0.172,74.77,-4.79,-16.02,1785108110169.676
0.707,-0.731,-0.163,72.7,-3.94,-14.83,1785108110169.9673
0.726,-0.743,-0.159,66.07,-2.59,-12.94,1785108110170.2551
0.737,-0.745,-0.146,56.09,-0.27,-10.19,1785108110170.514
0.752,-0.752,-0.116,43.92,1.62,-5.8,1785108110170.7441
0.769,-0.76,-0.097,30.7,2.47,-0.52,1785108110170.9749
0.771,-0.798,-0.073,11.26,2.99,7.84,1785108110171.435
0.756,-0.84,-0.077,8.42,2.26,11.05,1785108110171.6638
-0.574,-0.486,-0.774,22.68,3.14,9.52,1785108110172.029
-0.605,-0.364,-0.863,32.69,10.77,13.37,1785108110172.264
-0.676,-0.347,-0.872,37.05,18.04,11.32,1785108110172.495
-0.756,-0.392,-0.793,35.68,20.39,8.45,1785108110172.729
-0.819,-0.44,-0.78,32.65,21.76,4.76,1785108110178.897
-0.883,-0.461,-0.783,21.33,25.18,1.77,1785108110184.6343
-0.883,-0.461,-0.783,5.13,29.48,0.18,1785108110195.0112
-0.925,-0.461,-0.744,-5.95,33.3,-2.14,1785108110205.481
-0.941,-0.482,-0.72,-7.32,37.05,-6.5,1785108110218.7021
-0.969,-0.478,-0.682,5.04,37.51,-12.18,1785108110224.3982
-1.022,-0.448,-0.669,5.04,37.51,-12.18,1785108110234.8162
-1.085,-0.483,-0.673,21.82,38.0,-22.13,1785108110245.4841
-1.13,-0.599,-0.683,41.26,42.21,-37.75,1785108110258.728
-1.216,-0.719,-0.694,66.23,49.26,-55.33,1785108110264.468
-1.334,-0.814,-0.647,97.54,54.63,-71.75,1785108110275.208
-1.421,-0.891,-0.58,129.98,55.06,-85.54,1785108110288.5088
-1.47,-0.93,-0.559,158.33,54.6,-99.28,1785108110294.2878
-1.511,-0.887,-0.539,184.0,55.67,-112.89,1785108110305.312
-1.541,-0.865,-0.523,208.5,53.56,-126.38,1785108110318.6328
-1.558,-0.895,-0.56,223.3,49.71,-140.35,1785108110324.468
-1.533,-0.871,-0.623,220.22,48.77,-150.49,1785108110335.571
-1.482,-0.865,-0.688,203.62,49.44,-157.96,1785108110349.0188
-1.444,-0.906,-0.699,175.21,50.45,-165.14,1785108110354.7002
-1.418,-0.953,-0.645,141.91,53.19,-168.52,1785108110366.161
-1.372,-1.005,-0.548,119.88,57.8,-168.55,1785108110379.268
-1.263,-1.07,-0.45,116.15,61.28,-166.08,1785108110385.465
-1.086,-1.114,-0.389,124.15,62.47,-160.83,1785108110398.826
-0.931,-1.124,-0.355,139.47,62.62,-154.52,1785108110404.7307
-0.798,-1.061,-0.344,155.89,61.28,-145.3,1785108110415.8232
-0.603,-0.974,-0.379,170.69,59.85,-134.22,1785108110428.959
-0.419,-0.923,-0.433,177.56,60.52,-125.13,1785108110435.036
-0.291,-0.878,-0.454,168.34,63.72,-118.5,1785108110445.914
-0.19,-0.845,-0.43,147.74,68.51,-110.51,1785108110459.2632
-0.056,-0.84,-0.391,125.64,75.41,-101.11,1785108110465.112
0.095,-0.864,-0.338,112.92,84.05,-92.99,1785108110476.0452
0.235,-0.954,-0.278,110.32,90.91,-87.95,1785108110489.304
0.359,-1.016,-0.205,109.01,92.07,-85.97,1785108110495.481
0.489,-1.041,-0.226,109.41,86.67,-83.35,1785108110506.05
0.617,-1.007,-0.393,110.48,80.63,-81.82,1785108110519.2761
0.724,-0.954,-0.516,109.16,78.68,-81.15,1785108110525.2632
0.774,-0.907,-0.613,100.68,77.73,-84.51,1785108110535.9978
0.749,-0.849,-0.668,85.48,82.34,-93.11,1785108110549.4312
0.707,-0.82,-0.611,63.97,87.1,-102.33,1785108110555.282
0.716,-0.758,-0.441,37.97,86.79,-111.76,1785108110565.96
0.817,-0.682,-0.3,15.47,80.75,-114.02,1785108110579.0698
0.929,-0.624,-0.229,-1.74,74.01,-113.04,1785108110585.236
0.919,-0.622,-0.267,-8.67,67.45,-111.88,1785108110595.624
0.794,-0.656,-0.361,-9.49,61.74,-111.61,1785108110608.881
0.702,-0.578,-0.375,-10.77,53.9,-111.97,1785108110615.053
0.74,-0.493,-0.369,-4.18,39.52,-109.26,1785108110625.385
0.793,-0.429,-0.435,6.96,25.79,-108.01,1785108110636.037
0.782,-0.365,-0.495,16.36,17.73,-107.91,1785108110649.484
0.741,-0.302,-0.519,19.81,9.95,-106.39,1785108110655.2961
0.721,-0.253,-0.538,16.88,1.1,-102.6,1785108110665.91
0.71,-0.169,-0.529,6.96,-5.77,-97.32,1785108110679.032
0.716,-0.139,-0.593,-7.63,-10.74,-91.8,1785108110685.199
0.684,-0.129,-0.623,-32.11,-10.16,-90.64,1785108110695.3
0.631,-0.147,-0.593,-60.21,-8.42,-90.0,1785108110705.843
0.629,-0.187,-0.518,-80.45,-7.9,-85.91,1785108110719.0872
0.642,-0.244,-0.443,-84.54,-7.23,-81.15,1785108110725.044
0.595,-0.31,-0.369,-74.65,-6.07,-77.0,1785108110735.257
0.54,-0.339,-0.313,-56.64,-6.1,-71.75,1785108110745.845
0.504,-0.356,-0.333,-33.2,-6.35,-66.81,1785108110759.073
0.469,-0.362,-0.397,-13.4,-4.94,-63.72,1785108110765.172
0.466,-0.368,-0.448,-5.04,-2.32,-61.07,1785108110775.1602
0.465,-0.365,-0.47,-8.61,3.33,-59.97,1785108110785.7668
0.463,-0.371,-0.468,-18.65,10.86,-57.22,1785108110799.032
0.466,-0.397,-0.435,-27.56,19.26,-54.75,1785108110804.914
0.448,-0.448,-0.404,-32.96,28.41,-53.53,1785108110815.501
0.429,-0.548,-0.396,-34.91,38.0,-51.45,1785108110825.978
0.4,-0.639,-0.362,-35.98,47.06,-50.11,1785108110839.2551
0.373,-0.667,-0.324,-36.77,54.57,-48.1,1785108110845.278
0.37,-0.686,-0.32,-33.57,60.67,-46.3,1785108110855.741
0.382,-0.724,-0.333,-29.97,65.52,-46.3,1785108110869.011
0.42,-0.723,-0.288,-27.19,68.09,-45.72,1785108110874.977
0.505,-0.7,-0.227,-16.72,65.07,-43.49,1785108110885.4558
0.602,-0.68,-0.192,4.3,56.98,-42.54,1785108110895.958
0.698,-0.647,-0.2,29.02,44.19,-43.21,1785108110909.2412
0.801,-0.604,-0.25,51.7,26.8,-43.24,1785108110915.38
0.922,-0.564,-0.325,68.09,4.97,-43.09,1785108110925.5527
1.081,-0.511,-0.437,76.27,-19.38,-42.42,1785108110938.867
1.332,-0.45,-0.582,76.75,-40.44,-41.35,1785108110945.182
1.606,-0.336,-0.706,63.88,-55.27,-43.89,1785108110955.2969
1.787,-0.175,-0.776,35.37,-65.95,-49.13,1785108110966.1062
1.875,-0.03,-0.827,-5.19,-70.77,-50.48,1785108110979.1482
1.911,0.064,-0.775,-50.87,-68.18,-45.29,1785108110985.3818
1.926,0.09,-0.645,-88.41,-63.94,-40.16,1785108110995.59
1.919,0.109,-0.467,-106.63,-60.73,-35.71,1785108111008.817
1.936,0.092,-0.275,-97.11,-62.17,-28.84,1785108111015.096
1.971,0.05,-0.141,-66.5,-69.55,-22.49,1785108111025.3901
1.956,0.058,-0.059,-30.12,-79.81,-14.25,1785108111036.033
1.884,0.14,-0.039,0.06,-89.79,0.7,1785108111050.282
1.788,0.263,-0.061,13.37,-97.99,21.94,1785108111055.225
1.66,0.339,-0.113,1.37,-103.79,45.99,1785108111065.6982
1.52,0.337,-0.167,-35.83,-107.67,69.77,1785108111078.8018
1.389,0.281,-0.184,-84.02,-108.37,92.04,1785108111084.9941
1.232,0.213,-0.179,-126.44,-109.35,114.78,1785108111095.685
1.009,0.128,-0.166,-157.2,-115.24,142.55,1785108111108.99
0.733,0.007,-0.2,-180.52,-129.55,176.37,1785108111115.2131
0.461,-0.049,-0.338,-201.64,-145.94,212.65,1785108111128.5498
0.177,-0.024,-0.554,-218.33,-157.41,253.46,1785108111134.9802
-0.239,0.033,-0.779,-232.8,-161.9,298.14,1785108111145.8071
-0.79,0.042,-1.009,-244.24,-164.16,348.49,1785108111158.9902
-1.432,-0.049,-1.172,-250.74,-166.26,401.14,1785108111165.3298
-2.313,-0.133,-1.191,-253.82,-170.51,443.37,1785108111178.581
-3.283,-0.204,-1.257,-253.49,-179.08,469.99,1785108111184.7942
-3.998,-0.255,-1.37,-254.77,-182.44,477.31,1785108111195.8289
-4.0,-0.251,-1.57,-251.14,-157.02,480.97,1785108111209.144
-3.872,-0.645,-1.692,-235.33,-84.93,500.93,1785108111215.353
-3.174,-1.337,-0.995,-187.9,17.58,469.62,1785108111228.5813
-2.224,-2.196,0.112,-33.88,98.48,368.11,1785108111234.398
-0.959,-2.76,0.603,159.0,141.97,202.76,1785108111245.579
-0.253,-1.964,0.498,284.07,107.49,-29.66,1785108111258.7898
-0.611,-0.817,-0.328,367.53,2.66,-210.18,1785108111265.368
-1.298,-0.774,-1.237,404.95,-70.74,-307.05,1785108111275.7239
-2.098,-0.887,-1.396,330.0,-66.41,-373.06,1785108111288.96
-2.505,-0.688,-1.063,228.61,-24.81,-380.81,1785108111295.0962
-1.972,-0.435,-0.808,186.65,5.34,-347.58,1785108111305.793
-1.245,-0.214,-0.835,165.11,15.26,-335.76,1785108111319.227
-0.944,-0.048,-0.855,109.84,23.8,-339.15,1785108111325.138
-0.752,-0.103,-0.75,46.24,34.64,-327.86,1785108111335.9812
-0.512,-0.316,-0.633,22.19,39.74,-311.32,1785108111349.3508
-0.241,-0.45,-0.667,48.65,40.77,-292.7,1785108111355.275
0.046,-0.459,-0.703,87.22,36.65,-268.29,1785108111366.0212
0.286,-0.292,-0.707,125.34,35.98,-257.67,1785108111379.1711
0.439,-0.08,-0.795,152.26,34.3,-246.62,1785108111385.3628
0.638,-0.023,-0.829,146.0,33.27,-222.94,1785108111398.693
0.838,-0.033,-0.695,119.82,32.01,-197.24,1785108111404.65
1.016,-0.128,-0.632,99.7,37.2,-174.17,1785108111415.566
1.103,-0.233,-0.61,86.18,48.28,-153.72,1785108111428.842
1.133,-0.245,-0.549,75.29,55.73,-130.65,1785108111434.9382
1.149,-0.262,-0.539,74.53,59.24,-107.85,1785108111445.476
1.1,-0.284,-0.533,76.75,60.7,-92.96,1785108111455.827
1.043,-0.263,-0.492,76.66,62.32,-85.24,1785108111469.41
1.043,-0.263,-0.492,81.33,62.96,-81.67,1785108111475.346
1.025,-0.291,-0.455,86.92,60.7,-78.43,1785108111485.821
0.989,-0.356,-0.422,90.37,56.49,-74.28,1785108111499.187
0.932,-0.375,-0.402,96.56,51.0,-68.36,1785108111505.093
0.9,-0.386,-0.458,101.87,47.98,-62.29,1785108111515.71
0.871,-0.402,-0.477,101.87,47.98,-62.29,1785108111528.862
0.787,-0.422,-0.453,100.38,45.17,-56.25,1785108111535.03
0.765,-0.429,-0.431,93.66,42.51,-47.82,1785108111545.415
0.754,-0.446,-0.4,82.22,44.92,-40.62,1785108111556.119
0.742,-0.504,-0.354,66.81,46.08,-32.23,1785108111569.3828
0.76,-0.536,-0.294,53.68,48.16,-24.99,1785108111575.353
0.797,-0.587,-0.255,44.53,51.36,-14.8,1785108111585.8403
0.819,-0.614,-0.236,37.42,56.46,-6.71,1785108111599.19
0.793,-0.637,-0.244,32.69,60.09,-0.06,1785108111605.018
0.75,-0.673,-0.259,28.6,59.79,3.54,1785108111615.363
0.724,-0.674,-0.275,22.77,58.26,2.53,1785108111625.75
0.725,-0.694,-0.284,20.23,56.67,0.21,1785108111639.117
0.715,-0.708,-0.26,17.88,54.57,-3.69,1785108111645.1687
0.736,-0.675,-0.222,15.47,52.34,-6.13,1785108111655.273
0.787,-0.658,-0.206,20.02,50.54,-6.93,1785108111665.8672
0.807,-0.65,-0.198,27.71,48.49,-8.97,1785108111679.013
0.807,-0.624,-0.185,34.15,45.99,-10.19,1785108111685.175
0.808,-0.607,-0.19,40.07,43.58,-10.32,1785108111695.382
0.822,-0.559,-0.184,42.21,41.29,-10.44,1785108111706.0852
0.867,-0.529,-0.17,42.88,38.03,-8.42,1785108111719.315
0.925,-0.544,-0.164,41.02,34.33,-7.42,1785108111725.2559
0.981,-0.542,-0.139,34.49,31.53,-7.45,1785108111735.457
1.037,-0.523,-0.119,27.86,27.5,-6.23,1785108111746.001
1.081,-0.485,-0.127,21.24,23.1,-6.93,1785108111759.242
1.103,-0.419,-0.155,11.44,20.42,-10.96,1785108111765.398
1.112,-0.372,-0.167,-3.23,18.74,-13.52,1785108111775.564
1.149,-0.373,-0.162,-21.36,15.17,-12.79,1785108111788.8262
1.231,-0.394,-0.145,-36.26,10.8,-12.57,1785108111794.869
1.311,-0.395,-0.132,-44.37,7.11,-13.15,1785108111805.232
1.386,-0.356,-0.151,-47.98,3.45,-12.42,1785108111815.831
1.461,-0.318,-0.18,-50.33,-1.04,-10.41,1785108111829.036
1.505,-0.281,-0.199,-57.07,-6.78,-7.69,1785108111835.0232
1.525,-0.224,-0.196,-68.27,-13.31,-4.12,1785108111845.116
1.56,-0.182,-0.212,-78.86,-19.81,-0.64,1785108111855.752
1.581,-0.156,-0.248,-88.96,-25.97,1.28,1785108111868.9922
1.58,-0.123,-0.282,-101.96,-32.11,3.45,1785108111874.9
1.558,-0.107,-0.312,-116.37,-36.53,6.78,1785108111885.349
1.533,-0.135,-0.352,-129.12,-37.75,9.92,1785108111895.942
1.536,-0.215,-0.401,-141.21,-37.84,11.99,1785108111909.266
1.587,-0.272,-0.433,-156.93,-38.15,14.16,1785108111915.341
1.66,-0.277,-0.41,-170.48,-39.55,18.34,1785108111925.895
1.682,-0.32,-0.371,-176.18,-41.69,24.17,1785108111939.442
1.602,-0.323,-0.281,-182.99,-43.76,31.89,1785108111945.2578
1.503,-0.252,-0.153,-186.35,-48.22,43.73,1785108111956.065
1.389,-0.193,-0.06,-176.43,-55.82,59.18,1785108111969.274
1.238,-0.149,0.007,-159.15,-65.28,78.34,1785108111975.158
1.096,-0.1,0.054,-141.7,-75.96,101.9,1785108111986.008
0.94,-0.035,0.079,-125.98,-87.1,130.07,1785108111999.386
0.754,0.031,0.072,-111.88,-98.45,163.61,1785108112005.305
0.534,0.031,0.023,-101.78,-110.69,203.47,1785108112018.42
0.28,0.019,-0.021,-93.23,-125.4,244.54,1785108112024.3342
-0.029,0.087,-0.126,-87.95,-139.59,281.81,1785108112035.666
-0.473,0.194,-0.363,-97.63,-154.67,320.14,1785108112049.105
-0.999,0.198,-0.615,-123.63,-170.51,366.28,1785108112055.003
-1.718,0.153,-0.799,-158.7,-187.08,409.5,1785108112066.195
-2.737,0.065,-1.121,-199.29,-213.02,443.53,1785108112079.356
-3.826,-0.23,-1.889,-248.85,-236.85,457.01,1785108112085.551
-4.0,-0.567,-2.847,-291.21,-218.39,431.2,1785108112099.0889
-3.945,-1.392,-2.615,-243.84,-110.72,414.2,1785108112104.9722
-2.904,-2.695,-0.878,-122.87,1.22,385.75,1785108112116.099
-1.012,-3.041,0.44,4.55,64.82,301.13,1785108112129.159
0.156,-2.265,0.395,154.09,80.87,112.95,1785108112135.345
0.317,-1.267,-0.65,305.7,27.56,-157.75,1785108112146.026
-0.645,-0.794,-0.986,351.73,-26.92,-333.93,1785108112159.2458
-1.485,-0.916,-1.319,273.81,-34.27,-362.1,1785108112165.517
-1.589,-0.998,-1.668,164.43,20.51,-345.62,1785108112178.6611
-1.647,-0.642,-1.314,105.32,75.59,-335.22,1785108112184.8618
-1.44,-0.2,-0.933,101.38,81.03,-314.52,1785108112195.626
-0.893,-0.127,-0.695,86.73,74.28,-294.84,1785108112208.926
-0.601,-0.23,-0.471,56.25,73.82,-300.39,1785108112215.1392
-0.58,-0.408,-0.305,51.36,69.25,-295.36,1785108112225.6118
-0.287,-0.532,-0.275,81.09,52.92,-265.24,1785108112238.934
0.113,-0.488,-0.303,130.86,47.85,-249.06,1785108112244.961
0.461,-0.456,-0.469,182.07,45.63,-240.0,1785108112255.779
0.615,-0.302,-0.585,206.4,42.18,-231.6,1785108112269.1572
0.559,-0.17,-0.637,199.01,28.63,-203.5,1785108112274.998
0.555,-0.186,-0.661,174.9,22.89,-166.88,1785108112285.9858
0.617,-0.23,-0.564,140.81,27.19,-145.27,1785108112299.4111
0.764,-0.274,-0.408,115.91,29.94,-133.4,1785108112305.307
0.947,-0.375,-0.318,116.52,29.63,-120.98,1785108112318.698
1.069,-0.488,-0.299,130.38,32.44,-105.93,1785108112324.6929
1.073,-0.474,-0.313,133.49,36.65,-90.55,1785108112335.5571
1.051,-0.388,-0.334,123.75,37.69,-75.69,1785108112348.98
1.007,-0.37,-0.373,103.67,39.61,-65.37,1785108112354.8801
0.957,-0.345,-0.343,67.45,43.09,-56.18,1785108112365.56
0.93,-0.373,-0.257,35.25,46.51,-48.25,1785108112376.068
0.922,-0.469,-0.152,22.92,45.84,-42.39,1785108112389.3352
0.939,-0.595,-0.067,34.94,38.67,-36.77,1785108112395.32
0.913,-0.723,-0.042,64.64,28.26,-33.2,1785108112405.746
0.843,-0.743,-0.08,91.1,18.52,-30.76,1785108112419.0059
0.786,-0.694,-0.193,104.31,10.07,-26.61,1785108112424.9448
0.8,-0.622,-0.33,99.03,3.69,-20.69,1785108112435.4197
0.838,-0.548,-0.437,73.76,3.23,-18.25,1785108112445.984
0.848,-0.52,-0.457,34.94,7.35,-18.43,1785108112459.27
0.868,-0.59,-0.382,-3.54,11.26,-16.24,1785108112465.416
0.899,-0.699,-0.263,-25.76,14.1,-15.63,1785108112475.5461
0.917,-0.774,-0.157,-24.2,15.2,-17.98,1785108112488.827
0.906,-0.81,-0.114,-4.43,13.49,-21.85,1785108112494.783
0.854,-0.819,-0.125,22.43,10.99,-25.64,1785108112505.206
0.81,-0.812,-0.177,48.52,8.36,-27.47,1785108112515.904
0.793,-0.785,-0.265,69.67,8.06,-26.46,1785108112528.9668
0.779,-0.785,-0.348,78.92,10.19,-24.05,1785108112535.289
0.779,-0.751,-0.367,68.82,11.75,-21.64,1785108112545.333
0.823,-0.697,-0.331,47.09,10.62,-17.94,1785108112555.9622
0.897,-0.692,-0.3,23.38,6.9,-14.89,1785108112569.3418
0.901,-0.706,-0.266,-3.27,0.43,-13.98,1785108112575.186
0.875,-0.781,-0.242,-25.21,-9.86,-11.11,1785108112585.398
0.829,-0.887,-0.241,-36.5,-21.15,-10.8,1785108112595.9749
0.78,-0.968,-0.264,-39.77,-32.44,-13.43,1785108112609.22
0.751,-0.96,-0.3,-40.28,-42.76,-17.12,1785108112615.425
0.762,-0.868,-0.374,-39.67,-50.26,-19.65,1785108112625.663
0.803,-0.779,-0.447,-38.88,-53.25,-21.18,1785108112638.95
0.836,-0.722,-0.445,-43.34,-53.47,-23.07,1785108112644.9978
0.855,-0.676,-0.372,-52.74,-52.77,-24.69,1785108112655.372
0.904,-0.641,-0.299,-56.98,-50.54,-25.09,1785108112666.14
0.929,-0.563,-0.246,-54.45,-44.83,-25.88,1785108112679.251
0.924,-0.469,-0.216,-47.36,-39.4,-22.49,1785108112685.406
0.908,-0.399,-0.205,-37.6,-36.01,-17.12,1785108112695.7642
0.902,-0.323,-0.218,-27.92,-33.75,-13.4,1785108112709.033
0.924,-0.265,-0.235,-20.05,-29.73,-9.8,1785108112715.1943
0.962,-0.228,-0.24,-16.36,-25.09,-6.53,1785108112725.213
0.993,-0.17,-0.223,-17.46,-22.0,-3.88,1785108112735.83
1.019,-0.153,-0.2,-16.82,-19.38,-2.5,1785108112749.211
1.019,-0.153,-0.2,-14.83,-17.06,-3.48,1785108112755.031
1.019,-0.162,-0.179,-12.76,-15.2,-3.91,1785108112765.2961
1.021,-0.153,-0.156,-7.17,-14.1,-3.66,1785108112775.706
1.04,-0.156,-0.146,-0.61,-14.37,-4.06,1785108112788.969
1.066,-0.163,-0.153,3.6,-14.34,-5.58,1785108112794.89
1.131,-0.159,-0.179,3.6,-14.34,-5.58,1785108112804.859
1.228,-0.154,-0.222,5.04,-13.09,-7.72,1785108112815.485
1.302,-0.128,-0.241,0.12,-10.86,-8.91,1785108112825.844
1.353,-0.093,-0.269,-12.48,-10.04,-9.09,1785108112839.0679
1.424,-0.064,-0.317,-30.76,-8.79,-8.42,1785108112845.0972
1.5,-0.042,-0.343,-51.76,-5.62,-6.99,1785108112855.084
1.568,-0.015,-0.349,-74.01,-1.95,-3.94,1785108112865.6309
1.709,0.01,-0.356,-93.69,4.82,1.4,1785108112876.043
1.831,-0.013,-0.358,-106.33,12.7,6.2,1785108112889.3298
1.829,-0.031,-0.29,-114.47,17.06,13.98,1785108112895.374
1.769,-0.055,-0.203,-111.88,14.59,28.81,1785108112905.637
1.733,-0.039,-0.138,-95.77,8.0,48.62,1785108112918.986
1.783,0.067,-0.104,-71.54,1.71,71.63,1785108112925.206
1.814,0.226,-0.107,-50.14,-4.43,96.26,1785108112935.367
1.692,0.413,-0.092,-41.66,-13.37,127.6,1785108112946.1118
1.473,0.498,-0.083,-38.91,-23.62,165.81,1785108112959.32
1.189,0.494,-0.123,-46.02,-36.44,205.88,1785108112965.636
0.853,0.529,-0.191,-66.1,-50.57,251.75,1785108112976.0808
0.477,0.517,-0.34,-87.25,-62.56,304.45,1785108112989.37
-0.018,0.489,-0.558,-119.27,-77.43,357.59,1785108112995.449
-0.695,0.469,-0.828,-170.35,-96.07,412.85,1785108113008.6418
-1.573,0.495,-1.107,-240.76,-116.61,473.56,1785108113015.148
-3.02,0.511,-1.376,-330.45,-146.34,536.33,1785108113025.8062
-4.0,0.243,-1.813,-457.35,-213.66,565.72,1785108113039.0688
-4.0,0.211,-3.614,-591.63,-264.2,509.69,1785108113045.239
-3.978,-1.283,-3.717,-566.15,-126.26,480.48,1785108113058.6318
-3.673,-3.023,-2.146,-474.26,13.82,381.42,1785108113064.943
-1.477,-3.814,0.347,-341.59,122.2,261.18,1785108113075.822
0.319,-3.099,1.489,-89.91,139.47,37.14,1785108113089.078
-0.143,-1.762,0.337,249.95,66.71,-218.6,1785108113095.1511
