ax,ay,az,gx,gy,gz,timestamp_ms
0.856,-0.114,-0.562,8.97,-9.64,-127.84,1784843839596.502
0.89,-0.094,-0.533,12.39,-1.5,-117.53,1784843839597.167
0.915,-0.039,-0.48,20.26,5.62,-107.21,1784843839597.814
0.925,0.009,-0.483,33.91,10.83,-96.19,1784843839598.855
0.904,0.044,-0.531,46.82,14.98,-85.02,1784843839599.6082
0.877,0.051,-0.589,54.02,18.92,-73.0,1784843839600.239
0.895,0.058,-0.662,55.91,22.68,-60.64,1784843839600.7712
0.923,0.051,-0.722,54.2,25.57,-48.92,1784843839601.4468
0.944,0.087,-0.761,45.38,28.63,-37.66,1784843839602.2231
1.006,0.14,-0.754,33.6,32.38,-26.92,1784843839603.0789
1.07,0.163,-0.654,22.19,35.0,-18.34,1784843839603.9749
1.118,0.111,-0.499,14.83,37.05,-11.57,1784843839604.569
1.169,0.038,-0.369,18.52,38.3,-6.68,1784843839605.2349
1.194,-0.048,-0.322,38.73,37.75,-4.58,1784843839605.823
1.172,-0.078,-0.349,61.37,36.93,-7.26,1784843839606.496
1.198,-0.042,-0.384,77.3,35.4,-13.12,1784843839607.1501
1.242,-0.025,-0.412,80.78,27.44,-3.91,1784843839607.725
1.259,0.021,-0.379,76.14,25.39,5.68,1784843839608.372
1.207,0.109,-0.345,71.32,25.91,2.47,1784843839608.9612
1.262,0.127,-0.348,62.84,19.65,8.76,1784843839609.5327
1.271,0.145,-0.389,50.97,13.34,16.6,1784843839610.108
1.255,0.158,-0.481,37.17,8.55,22.71,1784843839610.6729
1.253,0.183,-0.548,19.62,3.45,25.03,1784843839611.246
1.27,0.21,-0.578,0.95,-1.71,26.18,1784843839611.808
1.289,0.227,-0.594,-16.82,-5.71,29.3,1784843839612.3818
1.277,0.226,-0.61,-29.82,-6.87,33.05,1784843839613.499
1.26,0.214,-0.63,-38.0,-8.27,35.4,1784843839614.2551
1.253,0.203,-0.632,-44.59,-10.41,37.87,1784843839614.885
1.236,0.196,-0.619,-49.35,-11.54,39.46,1784843839615.375
1.223,0.185,-0.612,-52.49,-13.82,40.77,1784843839615.9512
1.217,0.179,-0.608,-55.94,-16.11,42.12,1784843839616.438
1.221,0.187,-0.599,-60.73,-18.95,43.28,1784843839616.919
1.239,0.215,-0.579,-65.28,-22.43,42.7,1784843839617.3928
1.244,0.247,-0.567,-68.45,-26.89,40.89,1784843839617.873
1.245,0.271,-0.581,-72.57,-31.83,40.62,1784843839618.3513
1.255,0.281,-0.573,-76.88,-36.26,41.72,1784843839618.9019
1.279,0.252,-0.535,-78.46,-40.19,40.89,1784843839619.3762
1.29,0.203,-0.482,-76.85,-44.59,38.03,1784843839619.854
1.294,0.147,-0.433,-69.58,-48.07,36.68,1784843839620.3389
1.305,0.087,-0.365,-53.96,-50.87,36.9,1784843839620.815
1.298,0.056,-0.32,-31.95,-54.54,39.16,1784843839621.2852
1.314,0.058,-0.297,-6.47,-57.56,47.33,1784843839621.7642
1.334,0.079,-0.276,19.87,-58.35,57.16,1784843839622.667
1.294,0.147,-0.323,35.74,-54.99,66.04,1784843839623.1958
1.231,0.214,-0.433,31.04,-50.48,77.36,1784843839623.672
1.177,0.227,-0.55,3.75,-46.66,89.36,1784843839624.143
1.158,0.162,-0.607,-37.57,-41.35,101.69,1784843839624.627
1.117,0.048,-0.598,-78.46,-35.49,114.44,1784843839625.103
1.028,-0.054,-0.583,-109.93,-31.56,128.39,1784843839625.581
0.958,-0.122,-0.563,-128.45,-27.99,144.08,1784843839626.002
0.881,-0.141,-0.515,-135.32,-24.66,160.28,1784843839626.414
0.824,-0.12,-0.461,-132.18,-22.49,179.24,1784843839626.829
0.779,-0.094,-0.433,-119.24,-21.3,201.15,1784843839627.2378
0.662,-0.075,-0.423,-102.48,-19.75,225.35,1784843839627.6538
0.498,-0.014,-0.37,-89.27,-17.43,252.78,1784843839628.0708
0.325,0.06,-0.341,-74.04,-16.54,286.69,1784843839628.48
0.108,0.034,-0.401,-56.25,-18.16,322.49,1784843839628.8892
-0.199,-0.037,-0.507,-52.37,-21.15,356.24,1784843839629.303
-0.591,-0.097,-0.628,-66.56,-24.17,392.93,1784843839629.714
-1.076,-0.176,-0.741,-90.03,-27.59,433.15,1784843839630.1172
-1.728,-0.264,-0.902,-119.17,-32.2,472.98,1784843839630.539
-2.587,-0.435,-1.156,-154.36,-38.21,508.29,1784843839630.9602
-3.641,-0.693,-1.586,-205.76,-49.29,525.38,1784843839631.39
-4.0,-1.121,-1.872,-269.63,-38.48,519.18,1784843839631.812
-3.189,-2.21,-0.762,-288.98,7.66,482.83,1784843839632.2173
-1.498,-3.53,0.032,-200.66,46.08,405.59,1784843839632.631
0.372,-4.0,0.08,23.68,72.51,253.46,1784843839633.076
0.895,-3.803,-0.508,298.56,36.13,-32.81,1784843839633.6628
-0.156,-2.762,-1.802,455.82,8.79,-268.56,1784843839634.081
-0.938,-1.659,-2.21,394.76,42.57,-331.8,1784843839634.498
-1.426,-0.83,-1.78,231.54,68.67,-341.11,1784843839634.915
-1.438,-0.544,-1.107,75.44,86.92,-337.5,1784843839635.31
-1.044,-0.652,-0.569,-8.39,100.47,-337.57,1784843839635.6877
-0.814,-0.849,-0.386,2.11,99.8,-350.54,1784843839636.0479
-0.808,-0.892,-0.211,57.99,91.8,-356.85,1784843839636.405
-0.791,-0.831,-0.077,130.34,80.69,-352.46,1784843839636.7622
-0.788,-0.702,-0.134,197.0,64.88,-343.97,1784843839637.1208
-0.684,-0.547,-0.246,232.46,46.75,-317.18,1784843839637.498
-0.463,-0.383,-0.321,238.59,34.49,-289.04,1784843839637.8591
-0.302,-0.227,-0.349,224.86,23.87,-274.3,1784843839638.217
-0.14,-0.122,-0.328,193.43,10.8,-255.96,1784843839638.572
0.045,-0.066,-0.268,154.45,-1.22,-233.8,1784843839638.932
0.205,-0.075,-0.229,120.18,-12.15,-217.2,1784843839639.294
0.355,-0.115,-0.19,89.72,-21.24,-199.74,1784843839639.648
0.528,-0.146,-0.142,64.03,-29.11,-175.76,1784843839640.011
0.7,-0.17,-0.148,50.29,-36.07,-153.63,1784843839640.383
0.78,-0.184,-0.19,43.86,-41.84,-138.52,1784843839640.747
0.799,-0.167,-0.225,34.52,-46.6,-123.14,1784843839641.102
0.81,-0.136,-0.232,22.06,-49.29,-105.32,1784843839641.4622
0.822,-0.115,-0.261,11.81,-50.84,-88.14,1784843839641.814
0.81,-0.149,-0.275,3.42,-51.36,-72.05,1784843839642.164
0.764,-0.192,-0.223,-5.92,-50.84,-58.32,1784843839642.509
0.748,-0.224,-0.172,-8.82,-50.11,-47.4,1784843839642.863
0.748,-0.224,-0.172,1.77,-49.1,-38.45,1784843839643.2131
0.793,-0.272,-0.15,18.65,-48.95,-30.58,1784843839643.5671
0.836,-0.323,-0.165,29.24,-49.96,-20.45,1784843839643.916
0.851,-0.302,-0.184,29.54,-52.13,-4.94,1784843839644.268
0.88,-0.244,-0.254,11.26,-54.41,10.65,1784843839644.6199
0.899,-0.195,-0.328,11.26,-54.41,10.65,1784843839644.96
0.904,-0.14,-0.399,-28.47,-56.86,24.96,1784843839645.272
0.932,-0.128,-0.385,-70.19,-58.72,39.37,1784843839645.5847
0.992,-0.259,-0.461,-95.0,-59.54,50.29,1784843839645.897
1.036,-0.406,-0.478,-103.37,-56.7,52.55,1784843839646.209
1.073,-0.523,-0.433,-80.26,-54.75,54.11,1784843839646.524
1.142,-0.599,-0.422,-25.12,-51.61,53.41,1784843839646.838
1.231,-0.547,-0.444,45.17,-46.45,47.98,1784843839647.1501
1.43,-0.478,-0.497,116.79,-47.21,64.21,1784843839647.462
1.574,-0.38,-0.636,173.99,-37.32,68.73,1784843839647.7803
1.539,-0.326,-0.851,199.65,-21.09,56.79,1784843839648.103
1.533,-0.382,-0.963,193.21,-10.25,54.96,1784843839648.4229
1.511,-0.365,-1.012,169.29,-4.61,53.19,1784843839648.734
1.564,-0.191,-1.022,144.51,-6.32,50.72,1784843839649.09
1.578,-0.137,-1.148,130.22,-15.38,56.43,1784843839649.427
1.37,-0.243,-1.22,95.25,-18.25,25.73,1784843839649.744
1.116,-0.25,-1.186,61.65,-26.67,-3.6,1784843839650.049
1.119,-0.353,-1.247,37.9,-27.31,-6.9,1784843839650.358
1.106,-0.33,-1.237,2.69,-22.31,-14.65,1784843839650.6702
0.988,-0.229,-1.107,-31.98,-16.02,-29.94,1784843839650.9841
0.975,-0.261,-0.914,-54.87,-9.67,-41.23,1784843839651.293
0.991,-0.348,-0.732,-64.27,-6.35,-48.22,1784843839651.604
1.003,-0.403,-0.62,-62.17,-8.36,-47.24,1784843839651.9182
0.997,-0.408,-0.621,-55.6,-10.28,-49.1,1784843839652.232
0.988,-0.41,-0.634,-54.17,-10.83,-57.25,1784843839652.555
0.988,-0.454,-0.551,-58.38,-11.41,-59.69,1784843839652.8762
1.013,-0.535,-0.44,-51.61,-12.7,-52.0,1784843839653.1938
0.96,-0.461,-0.451,-33.54,-14.62,-52.16,1784843839653.507
0.883,-0.313,-0.506,-24.35,-15.32,-57.89,1784843839653.829
0.946,-0.276,-0.519,-23.99,-14.28,-52.86,1784843839654.1482
0.998,-0.243,-0.524,-21.73,-12.88,-50.29,1784843839654.4648
1.0,-0.167,-0.539,-15.72,-12.3,-52.0,1784843839654.777
1.017,-0.08,-0.592,-11.02,-13.21,-48.31,1784843839655.0952
1.079,0.028,-0.652,-10.35,-14.71,-40.04,1784843839655.416
1.175,0.137,-0.734,-11.72,-16.57,-32.9,1784843839655.732
1.267,0.226,-0.828,-19.9,-16.79,-27.77,1784843839656.049
1.343,0.306,-0.847,-39.31,-14.13,-21.36,1784843839656.3652
1.406,0.366,-0.86,-63.45,-11.11,-11.38,1784843839656.687
1.491,0.427,-0.79,-86.18,-7.02,0.31,1784843839656.996
1.591,0.488,-0.646,-98.64,-3.97,11.96,1784843839657.314
1.636,0.559,-0.541,-99.92,-2.5,25.45,1784843839657.63
1.655,0.628,-0.458,-92.9,-0.46,44.25,1784843839657.945
1.703,0.683,-0.399,-76.45,2.69,68.61,1784843839658.2542
1.676,0.677,-0.368,-52.06,4.85,96.07,1784843839658.5679
1.484,0.626,-0.391,-33.39,6.9,127.2,1784843839658.8892
1.282,0.588,-0.45,-30.61,11.05,164.22,1784843839659.2078
1.063,0.551,-0.492,-39.74,14.95,201.79,1784843839659.5242
0.775,0.527,-0.511,-60.34,17.18,239.48,1784843839659.8442
0.425,0.475,-0.502,-88.11,18.07,282.63,1784843839660.165
0.043,0.339,-0.503,-114.72,15.66,331.55,1784843839660.4878
-0.357,0.137,-0.514,-136.08,9.09,381.57,1784843839660.801
-0.839,-0.06,-0.479,-150.12,-2.62,429.3,1784843839661.1353
-1.434,-0.227,-0.44,-152.2,-17.79,475.66,1784843839661.4668
-2.233,-0.333,-0.422,-145.02,-36.62,518.66,1784843839661.7852
-3.333,-0.321,-0.597,-140.45,-62.01,561.02,1784843839662.107
-4.0,-0.487,-0.849,-140.32,-77.09,601.67,1784843839662.429
-4.0,-1.29,-0.907,-128.39,-55.06,602.19,1784843839662.756
-3.889,-2.272,-0.435,-79.26,-2.47,550.4,1784843839663.067
-2.829,-3.023,-0.165,48.31,30.24,513.23,1784843839663.386
-1.189,-3.346,-0.107,209.51,37.78,422.62,1784843839663.712
-0.109,-3.488,-0.673,289.5,23.16,213.35,1784843839664.0378
0.163,-2.258,-0.505,222.75,8.7,-17.24,1784843839664.348
0.089,-0.27,-0.532,152.32,-25.57,-122.32,1784843839664.673
0.04,0.083,-1.373,130.65,-56.12,-143.19,1784843839665.0032
-0.173,-0.599,-1.336,-7.9,-47.98,-189.18,1784843839665.3162
-0.291,-0.796,-0.731,-148.26,-11.29,-218.36,1784843839665.63
-0.103,-1.134,-0.566,-143.44,12.09,-190.74,1784843839665.951
-0.116,-1.266,-0.517,-98.45,23.29,-176.09,1784843839666.441
-0.337,-0.903,-0.493,-62.99,34.91,-179.36,1784843839666.765
-0.36,-0.851,-0.637,-1.46,36.26,-178.99,1784843839667.426
-0.434,-0.977,-0.562,10.74,32.14,-193.76,1784843839667.742
1.491,-0.12,-0.326,110.14,66.23,-63.91,1784843839668.394
1.691,-0.062,-0.395,136.72,65.83,-37.23,1784843839668.71
1.828,0.069,-0.386,156.87,58.08,-14.47,1784843839669.0217
1.899,0.225,-0.329,176.95,41.63,-0.52,1784843839669.334
1.948,0.286,-0.381,203.99,14.92,9.49,1784843839669.65
1.966,0.289,-0.6,226.51,-18.31,13.82,1784843839676.285
1.864,0.343,-0.902,227.52,-52.1,8.7,1784843839689.458
1.62,0.471,-1.177,185.52,-79.32,-0.31,1784843839695.194
1.403,0.492,-1.281,95.19,-92.01,-1.71,1784843839705.811
1.285,0.282,-1.125,-19.47,-89.45,12.18,1784843839719.177
1.278,-0.089,-0.87,-108.52,-76.82,28.87,1784843839724.8782
1.232,-0.397,-0.705,-146.67,-65.13,27.28,1784843839735.775
1.169,-0.504,-0.661,-146.79,-61.34,8.27,1784843839749.081
1.057,-0.466,-0.598,-127.72,-59.11,-16.17,1784843839754.7869
1.072,-0.526,-0.522,-101.93,-49.96,-25.09,1784843839765.677
1.096,-0.617,-0.463,-74.37,-36.65,-26.12,1784843839776.3772
1.007,-0.616,-0.423,-43.76,-24.14,-29.63,1784843839789.53
0.921,-0.517,-0.425,-17.09,-14.83,-35.0,1784843839795.357
0.904,-0.409,-0.449,-1.1,-8.88,-37.51,1784843839805.8528
0.913,-0.333,-0.442,0.21,-4.55,-37.97,1784843839816.4092
0.916,-0.27,-0.424,-9.0,-1.98,-36.01,1784843839829.793
0.926,-0.214,-0.451,-22.61,-0.03,-32.17,1784843839835.5232
0.935,-0.127,-0.496,-41.69,2.17,-29.3,1784843839845.888
0.928,-0.033,-0.504,-65.1,2.81,-26.06,1784843839856.4211
0.956,0.014,-0.519,-89.75,1.34,-18.37,1784843839869.714
1.022,0.057,-0.556,-112.28,-0.7,-8.27,1784843839875.599
1.121,0.129,-0.574,-125.55,-2.26,2.38,1784843839885.96
1.225,0.195,-0.563,-126.74,-4.85,12.15,1784843839896.615
1.279,0.248,-0.544,-122.65,-7.81,20.29,1784843839909.853
1.278,0.337,-0.477,-114.26,-8.24,31.01,1784843839916.1248
1.304,0.415,-0.43,-93.39,-7.84,47.94,1784843839926.182
1.304,0.415,-0.43,-63.75,-7.08,65.95,1784843839939.596
1.334,0.461,-0.401,-35.95,-6.41,82.77,1784843839945.338
1.342,0.458,-0.412,-22.0,-5.4,99.89,1784843839955.559
1.368,0.427,-0.475,-23.29,-2.9,118.41,1784843839966.219
1.348,0.401,-0.472,-23.29,-2.9,118.41,1784843839981.866
1.256,0.339,-0.469,-36.16,-0.79,139.81,1784843839985.4028
1.127,0.261,-0.454,-59.76,1.5,163.24,1784843839996.069
0.971,0.192,-0.426,-87.31,1.98,188.97,1784843840009.3892
0.815,0.115,-0.391,-109.99,-0.03,216.5,1784843840015.325
0.624,0.031,-0.368,-126.44,-4.33,243.84,1784843840025.84
0.391,-0.039,-0.337,-138.4,-11.11,272.1,1784843840039.0981
0.118,-0.104,-0.309,-143.96,-20.26,304.64,1784843840044.998
-0.199,-0.143,-0.249,-141.82,-30.55,339.58,1784843840055.9558
-0.557,-0.156,-0.234,-130.86,-43.46,378.37,1784843840069.4102
-0.951,-0.217,-0.309,-113.96,-54.84,419.26,1784843840075.214
-1.464,-0.336,-0.418,-98.45,-61.46,452.99,1784843840086.251
-2.132,-0.567,-0.552,-86.92,-65.92,477.25,1784843840099.554
-2.851,-0.912,-0.763,-76.24,-69.73,488.14,1784843840105.283
-3.345,-1.214,-0.976,-58.5,-62.04,492.9,1784843840116.1567
-3.314,-1.468,-1.081,-24.57,-30.79,501.88,1784843840129.62
-2.861,-1.603,-0.897,16.08,15.14,497.7,1784843840135.4539
-2.212,-1.831,-0.496,62.78,57.44,466.02,1784843840146.1338
-1.41,-2.476,-0.181,112.43,83.9,392.56,1784843840159.499
-0.412,-3.515,-0.221,137.49,90.61,248.94,1784843840165.2952
0.284,-3.445,0.139,118.23,70.19,53.35,1784843840176.221
0.481,-2.023,-0.022,168.22,14.31,-78.59,1784843840189.6401
0.196,-0.897,-1.09,288.16,-37.14,-131.81,1784843840195.476
-0.296,-0.543,-1.645,296.49,-53.38,-170.08,1784843840206.3308
-0.602,-0.498,-1.319,153.32,-42.91,-192.54,1784843840219.7927
-0.564,-0.647,-0.685,2.35,-17.33,-184.91,1784843840225.9797
-0.484,-0.87,-0.304,-67.2,-4.0,-172.61,1784843840237.563
-0.456,-1.004,-0.2,-85.36,-2.32,-173.16,1784843840249.459
-0.537,-0.996,-0.178,-85.3,2.75,-188.06,1784843840255.125
-0.656,-1.051,-0.219,-64.88,4.09,-201.27,1784843840266.044
-0.74,-1.146,-0.257,-26.55,-2.84,-211.1,1784843840279.343
-0.814,-1.218,-0.275,29.39,-12.36,-224.98,1784843840285.0781
-0.88,-1.278,-0.253,94.42,-18.56,-237.98,1784843840296.154
-0.898,-1.309,-0.229,155.55,-23.16,-244.15,1784843840308.9768
-0.865,-1.254,-0.271,195.9,-28.66,-243.51,1784843840315.0232
-0.746,-1.065,-0.295,204.47,-32.59,-238.59,1784843840326.2249
-0.602,-0.906,-0.342,189.49,-37.35,-237.34,1784843840339.3281
-0.418,-0.84,-0.352,149.14,-43.98,-231.09,1784843840345.088
-0.219,-0.847,-0.282,98.21,-49.5,-220.37,1784843840356.38
-0.111,-0.854,-0.167,58.57,-52.8,-212.87,1784843840369.387
-0.015,-0.882,-0.138,42.12,-56.52,-203.01,1784843840375.073
0.1,-0.899,-0.176,40.56,-59.57,-192.36,1784843840386.153
0.183,-0.869,-0.236,45.01,-60.82,-183.57,1784843840399.478
0.263,-0.805,-0.274,49.9,-58.96,-173.59,1784843840405.208
0.354,-0.706,-0.276,51.7,-55.02,-163.88,1784843840416.075
0.445,-0.626,-0.247,50.66,-50.81,-154.82,1784843840429.45
0.508,-0.562,-0.216,43.31,-47.55,-147.83,1784843840435.154
0.551,-0.497,-0.176,32.72,-43.67,-142.0,1784843840446.121
0.602,-0.513,-0.149,26.95,-41.96,-136.23,1784843840459.401
0.632,-0.536,-0.137,24.9,-41.47,-132.24,1784843840465.388
0.672,-0.529,-0.164,32.35,-40.8,-125.86,1784843840475.939
0.717,-0.526,-0.273,47.55,-39.83,-117.65,1784843840489.217
0.739,-0.483,-0.392,56.86,-37.78,-109.35,1784843840495.2058
0.78,-0.375,-0.502,56.25,-33.57,-99.89,1784843840505.975
0.846,-0.283,-0.624,48.31,-28.32,-89.91,1784843840519.199
0.912,-0.205,-0.666,28.69,-23.5,-81.91,1784843840524.7869
0.991,-0.137,-0.659,3.6,-18.56,-74.98,1784843840535.5688
1.069,-0.176,-0.615,-14.62,-14.44,-69.52,1784843840547.976
1.105,-0.274,-0.547,-21.76,-13.28,-66.81,1784843840559.49
1.099,-0.312,-0.512,-12.73,-11.41,-65.77,1784843840565.3481
1.1,-0.255,-0.556,11.99,-8.7,-66.26,1784843840575.784
1.1,-0.215,-0.716,38.97,-11.99,-58.17,1784843840586.411
1.112,-0.248,-0.839,49.84,-16.14,-42.73,1784843840599.779
1.053,-0.24,-0.897,45.96,-11.93,-44.47,1784843840605.47
1.023,-0.245,-0.929,36.41,-8.82,-46.91,1784843840616.0908
1.086,-0.272,-0.882,23.93,-8.48,-43.31,1784843840629.3718
1.135,-0.267,-0.811,14.74,-6.81,-41.81,1784843840635.133
1.14,-0.29,-0.752,11.17,-4.67,-39.77,1784843840645.629
1.141,-0.311,-0.692,9.49,-3.91,-34.79,1784843840655.7878
1.168,-0.337,-0.66,13.21,-4.46,-28.57,1784843840669.201
1.181,-0.371,-0.68,17.85,-4.88,-26.03,1784843840674.831
1.181,-0.383,-0.696,15.14,-4.91,-24.38,1784843840685.3408
1.201,-0.409,-0.738,9.52,-4.97,-21.7,1784843840696.0142
1.231,-0.415,-0.758,1.77,-4.64,-20.72,1784843840706.381
1.248,-0.402,-0.722,-6.16,-4.97,-19.07,1784843840719.558
1.262,-0.377,-0.65,-11.17,-4.58,-15.26,1784843840725.2742
1.243,-0.353,-0.605,-10.01,-3.69,-11.99,1784843840735.604
1.161,-0.326,-0.578,-6.68,-2.62,-10.1,1784843840746.1497
1.075,-0.294,-0.553,-5.49,-1.34,-8.33,1784843840759.316
1.019,-0.265,-0.543,-5.16,-1.83,-6.04,1784843840765.054
0.975,-0.225,-0.528,-5.25,-3.75,-4.33,1784843840774.982
0.939,-0.18,-0.532,-5.46,-6.41,-3.94,1784843840785.4102
0.925,-0.125,-0.565,-7.45,-10.22,-4.46,1784843840795.958
0.946,-0.082,-0.64,-12.79,-15.93,-4.3,1784843840806.51
0.988,-0.042,-0.726,-24.41,-22.74,-4.43,1784843840819.811
1.069,0.009,-0.83,-42.48,-30.37,-5.28,1784843840825.445
1.182,0.074,-0.939,-62.56,-37.72,-5.16,1784843840835.946
1.31,0.131,-0.953,-78.01,-43.79,-3.11,1784843840846.5413
1.459,0.161,-0.866,-82.31,-51.94,-1.8,1784843840859.76
1.558,0.177,-0.747,-71.93,-62.47,-1.16,1784843840865.684
1.587,0.231,-0.623,-51.85,-70.89,2.44,1784843840875.9749
1.566,0.317,-0.509,-24.35,-74.71,11.81,1784843840889.3062
1.503,0.384,-0.429,5.65,-73.79,26.52,1784843840895.063
1.427,0.406,-0.369,28.29,-67.29,41.57,1784843840905.504
1.323,0.424,-0.345,35.98,-60.18,54.57,1784843840916.327
1.228,0.443,-0.356,26.15,-54.75,70.47,1784843840929.389
1.162,0.418,-0.383,1.16,-46.97,89.66,1784843840935.1309
1.112,0.37,-0.404,-34.91,-36.41,109.01,1784843840945.7942
1.03,0.329,-0.365,-74.71,-23.01,130.13,1784843840958.977
0.895,0.285,-0.323,-108.55,-8.73,157.32,1784843840964.767
0.746,0.179,-0.306,-131.38,5.22,190.62,1784843840975.7222
0.56,0.041,-0.283,-146.49,17.91,224.22,1784843840989.0298
0.342,-0.061,-0.253,-155.58,28.32,256.57,1784843840994.9373
0.113,-0.139,-0.271,-156.68,35.49,288.98,1784843841006.062
-0.122,-0.217,-0.318,-155.13,40.38,320.44,1784843841019.228
-0.396,-0.301,-0.351,-156.04,42.76,350.2,1784843841025.167
-0.732,-0.383,-0.368,-159.34,42.79,380.99,1784843841036.162
-1.152,-0.439,-0.358,-161.23,39.46,415.63,1784843841049.434
-1.703,-0.464,-0.299,-158.67,29.54,452.44,1784843841055.444
-2.433,-0.46,-0.308,-155.86,8.36,490.68,1784843841066.247
-3.378,-0.479,-0.507,-160.77,-21.82,524.86,1784843841079.704
-4.0,-0.863,-1.212,-185.06,-44.4,542.19,1784843841085.5142
-3.886,-1.812,-2.103,-254.89,-21.94,506.0,1784843841099.137
-2.872,-2.777,-1.705,-352.34,38.7,419.26,1784843841104.979
-1.358,-3.532,-0.125,-351.73,77.03,338.02,1784843841116.0488
0.216,-3.656,0.858,-194.59,94.36,218.51,1784843841129.308
0.864,-2.939,0.477,65.49,75.44,21.18,1784843841134.972
-0.057,-1.998,-0.554,282.88,3.27,-169.38,1784843841146.537
-0.906,-1.459,-1.15,338.21,-34.52,-247.54,1784843841159.2231
-1.072,-1.25,-1.308,278.63,-17.82,-255.68,1784843841165.156
-1.169,-1.124,-1.238,200.75,-2.23,-263.07,1784843841176.0671
-1.299,-0.83,-0.942,128.64,-6.01,-274.0,1784843841189.281
-1.129,-0.677,-0.695,66.44,-12.91,-270.12,1784843841195.088
-0.943,-0.763,-0.574,20.84,-11.17,-271.86,1784843841205.937
-0.883,-0.883,-0.4,9.46,-4.64,-278.3,1784843841219.352
-0.883,-0.883,-0.4,45.2,3.33,-284.04,1784843841224.973
-0.861,-0.982,-0.284,105.23,7.84,-284.62,1784843841235.907
-0.797,-1.015,-0.296,161.26,8.61,-278.7,1784843841249.107
-0.729,-0.953,-0.385,198.03,7.84,-265.21,1784843841254.898
-0.648,-0.859,-0.52,198.03,7.84,-265.21,1784843841265.863
-0.57,-0.767,-0.601,206.37,5.07,-248.82,1784843841279.256
-0.476,-0.661,-0.598,188.54,1.07,-231.57,1784843841284.8562
-0.304,-0.604,-0.545,161.93,-0.09,-217.57,1784843841295.9192
-0.146,-0.597,-0.487,136.42,0.98,-213.26,1784843841309.0989
-0.022,-0.593,-0.407,111.45,0.43,-206.61,1784843841315.157
0.096,-0.586,-0.371,94.76,-0.03,-193.15,1784843841325.685
0.201,-0.589,-0.414,87.31,1.74,-180.46,1784843841336.3872
0.239,-0.572,-0.454,80.72,4.7,-173.31,1784843841349.716
0.254,-0.521,-0.452,73.03,7.11,-164.31,1784843841355.396
0.322,-0.469,-0.479,69.34,10.74,-151.16,1784843841366.086
0.421,-0.431,-0.449,70.07,16.33,-139.1,1784843841379.5369
0.55,-0.442,-0.415,72.48,19.84,-126.9,1784843841385.335
0.702,-0.448,-0.35,77.09,23.16,-115.57,1784843841396.259
0.844,-0.389,-0.291,90.76,25.85,-103.24,1784843841409.524
0.992,-0.294,-0.313,111.79,28.32,-88.05,1784843841415.148
1.111,-0.265,-0.458,129.83,32.01,-76.2,1784843841426.2048
1.183,-0.279,-0.551,132.6,36.19,-67.2,1784843841439.6128
1.319,-0.279,-0.532,129.31,38.48,-56.09,1784843841445.4292
1.555,-0.226,-0.455,134.83,36.23,-45.47,1784843841456.2712
1.765,-0.128,-0.399,147.86,27.01,-36.77,1784843841469.413
1.891,-0.028,-0.491,157.48,11.29,-29.3,1784843841475.2769
1.881,0.06,-0.695,155.25,-8.36,-22.4,1784843841485.995
1.74,0.109,-0.881,133.64,-26.52,-16.08,1784843841499.21
1.548,0.096,-1.007,92.38,-41.6,-10.62,1784843841505.188
1.439,0.018,-1.065,42.54,-51.06,-9.4,1784843841515.6748
1.399,-0.075,-1.054,0.12,-53.71,-19.96,1784843841526.308
1.338,-0.161,-1.007,-30.55,-56.46,-28.84,1784843841539.5388
1.385,-0.3,-0.915,-48.1,-57.31,-16.54,1784843841545.429
1.376,-0.352,-0.812,-47.7,-47.88,-25.54,1784843841555.8728
1.279,-0.332,-0.737,-39.98,-39.25,-37.08,1784843841567.635
1.328,-0.418,-0.703,-34.91,-30.88,-31.8,1784843841579.9702
1.343,-0.497,-0.655,-30.3,-19.65,-32.38,1784843841585.609
1.308,-0.509,-0.582,-22.95,-9.25,-37.72,1784843841596.11
1.293,-0.508,-0.523,-15.69,-2.26,-38.97,1784843841609.5203
1.267,-0.495,-0.487,-13.89,3.05,-38.3,1784843841615.422
1.236,-0.467,-0.445,-15.78,7.78,-38.85,1784843841625.737
1.191,-0.425,-0.377,-18.77,10.65,-41.66,1784843841636.2612
1.168,-0.389,-0.31,-20.2,10.77,-41.41,1784843841649.572
1.138,-0.36,-0.292,-16.54,9.34,-39.95,1784843841655.4849
1.101,-0.321,-0.331,-10.25,5.55,-38.76,1784843841665.839
1.089,-0.273,-0.361,-5.34,-0.4,-34.88,1784843841676.358
1.083,-0.244,-0.405,-4.39,-5.4,-31.46,1784843841689.55
1.088,-0.214,-0.508,-9.37,-8.97,-31.4,1784843841695.461
1.128,-0.173,-0.62,-20.6,-12.02,-30.88,1784843841705.629
1.177,-0.104,-0.703,-40.68,-14.83,-30.24,1784843841716.345
1.217,-0.014,-0.731,-68.76,-17.98,-29.45,1784843841729.6892
1.249,0.033,-0.733,-96.9,-21.67,-28.78,1784843841735.469
1.26,0.051,-0.688,-124.12,-23.93,-28.69,1784843841746.207
1.267,0.072,-0.584,-145.18,-25.15,-26.15,1784843841759.501
1.273,0.128,-0.46,-152.41,-27.65,-20.54,1784843841765.441
1.28,0.166,-0.395,-147.28,-30.4,-12.27,1784843841776.185
1.272,0.15,-0.347,-140.72,-30.88,-6.53,1784843841789.429
1.239,0.103,-0.305,-134.37,-31.04,-0.55,1784843841795.266
1.214,0.047,-0.285,-122.56,-29.51,9.03,1784843841805.738
1.154,-0.009,-0.286,-107.36,-25.21,18.86,1784843841816.4038
1.06,-0.049,-0.319,-95.8,-19.41,31.65,1784843841829.979
0.975,-0.069,-0.289,-86.95,-13.09,48.37,1784843841835.621
0.888,-0.057,-0.234,-77.33,-6.78,66.44,1784843841846.203
0.806,0.002,-0.192,-65.98,-1.43,87.56,1784843841859.5012
0.713,0.098,-0.152,-55.02,1.71,111.64,1784843841865.2969
0.647,0.194,-0.15,-50.02,2.41,136.66,1784843841875.914
0.603,0.184,-0.295,-57.22,2.38,156.29,1784843841886.527
0.528,0.082,-0.392,-79.5,3.57,170.08,1784843841899.511
0.493,-0.101,-0.461,-101.32,4.76,186.13,1784843841905.304
0.482,-0.302,-0.504,-108.19,3.63,201.94,1784843841916.1248
0.464,-0.351,-0.505,-100.01,-1.56,220.89,1784843841929.4348
0.474,-0.276,-0.545,-79.59,-8.09,246.22,1784843841935.169
0.391,-0.148,-0.601,-63.42,-13.76,272.23,1784843841946.062
0.17,0.009,-0.557,-67.84,-18.68,303.99,1784843841959.3657
-0.132,0.138,-0.478,-83.71,-27.19,344.98,1784843841965.156
-0.579,0.095,-0.519,-100.31,-36.38,381.73,1784843841976.1099
-1.18,-0.104,-0.628,-121.74,-43.95,415.48,1784843841989.541
-1.816,-0.457,-0.699,-136.48,-49.9,448.29,1784843841995.3179
-2.551,-0.949,-0.814,-132.91,-58.78,462.11,1784843842006.335
-3.193,-1.398,-0.919,-110.93,-58.66,460.77,1784843842019.51
-3.306,-1.715,-0.969,-59.48,-38.54,466.51,1784843842025.353
-2.782,-1.888,-0.871,4.97,0.4,466.38,1784843842036.2239
-1.815,-2.157,-0.445,48.4,42.88,422.19,1784843842049.5369
-0.645,-2.796,0.133,75.93,70.71,309.79,1784843842055.346
0.22,-3.076,0.489,142.67,58.14,126.32,1784843842066.227
0.313,-2.758,0.001,264.81,2.78,-53.16,1784843842079.6108
-0.106,-2.05,-0.786,356.7,-30.43,-158.45,1784843842085.2107
-0.559,-1.281,-1.013,346.9,-35.13,-212.23,1784843842096.4421
-0.804,-0.612,-1.069,253.67,-37.81,-236.21,1784843842109.6033
-0.775,-0.313,-1.047,125.86,-37.6,-236.46,1784843842115.4
-0.696,-0.465,-0.84,-3.2,-36.99,-245.19,1784843842126.291
-0.713,-0.853,-0.491,-90.18,-31.13,-271.98,1784843842139.5479
-0.786,-1.181,-0.242,-101.66,-24.38,-294.6,1784843842145.3389
-0.879,-1.362,-0.089,-54.38,-20.66,-305.22,1784843842156.6
-1.032,-1.34,-0.06,27.92,-20.84,-313.55,1784843842169.649
-1.031,-1.219,-0.161,119.33,-23.1,-311.14,1784843842175.384
-0.847,-1.061,-0.279,191.2,-29.6,-300.12,1784843842188.8901
-0.567,-0.903,-0.411,229.29,-37.84,-286.78,1784843842194.984
-0.318,-0.781,-0.538,233.28,-45.84,-275.67,1784843842205.86
-0.137,-0.646,-0.553,202.19,-53.71,-263.62,1784843842219.289
0.023,-0.518,-0.537,151.25,-58.5,-249.98,1784843842225.112
0.179,-0.472,-0.498,99.31,-60.0,-237.95,1784843842236.185
0.313,-0.472,-0.411,55.02,-61.59,-224.89,1784843842249.253
0.443,-0.544,-0.338,30.18,-62.35,-207.74,1784843842255.0342
0.526,-0.613,-0.281,25.97,-63.26,-193.64,1784843842266.091
0.605,-0.566,-0.27,38.7,-63.23,-180.85,1784843842279.318
0.725,-0.49,-0.34,60.85,-61.13,-167.03,1784843842285.407
0.809,-0.409,-0.414,72.48,-58.35,-154.91,1784843842296.122
0.871,-0.287,-0.437,66.01,-53.83,-141.85,1784843842309.3628
0.948,-0.229,-0.493,54.05,-46.72,-128.91,1784843842315.207
0.994,-0.252,-0.499,38.67,-38.64,-119.17,1784843842326.1067
1.0,-0.268,-0.453,22.68,-30.55,-111.39,1784843842339.2607
0.986,-0.261,-0.414,17.37,-22.46,-103.76,1784843842345.1409
0.998,-0.209,-0.397,24.45,-16.02,-96.59,1784843842356.0378
1.033,-0.162,-0.402,37.63,-10.74,-91.77,1784843842366.526
1.055,-0.15,-0.374,47.27,-6.78,-88.26,1784843842379.8179
1.08,-0.14,-0.315,56.31,-3.91,-81.58,1784843842385.726
1.103,-0.159,-0.323,72.7,-1.34,-74.19,1784843842396.06
1.094,-0.124,-0.408,86.34,-0.09,-67.9,1784843842406.616
1.108,-0.031,-0.516,89.63,1.53,-58.23,1784843842420.037
1.145,0.041,-0.572,83.47,3.48,-48.43,1784843842425.884
1.183,0.121,-0.502,69.0,4.85,-40.5,1784843842436.1348
1.275,0.152,-0.399,63.72,5.37,-32.93,1784843842446.6692
1.37,0.078,-0.387,75.38,3.45,-29.85,1784843842459.683
1.406,0.012,-0.441,94.97,0.24,-30.43,1784843842465.585
1.399,-0.043,-0.585,115.67,-4.27,-31.53,1784843842476.285
1.401,-0.054,-0.828,121.16,-8.48,-30.76,1784843842489.497
1.358,-0.025,-0.996,100.19,-12.27,-22.83,1784843842495.575
1.319,0.081,-0.998,53.93,-10.74,-23.44,1784843842505.7932
1.319,0.081,-0.998,-3.02,-6.5,-27.19,1784843842516.468
1.263,0.173,-0.968,-60.43,0.64,-18.13,1784843842529.9429
1.285,0.108,-0.901,-103.67,7.23,-9.83,1784843842535.3113
1.3,-0.029,-0.772,-120.24,9.98,-7.05,1784843842545.722
1.257,-0.2,-0.673,-120.24,9.98,-7.05,1784843842556.371
1.214,-0.354,-0.565,-117.65,8.48,-1.01,1784843842569.533
1.2,-0.404,-0.435,-99.43,5.4,7.63,1784843842575.8003
1.206,-0.367,-0.374,-66.93,0.58,12.82,1784843842585.8738
1.196,-0.313,-0.414,-36.44,-5.04,14.53,1784843842596.3362
