ax,ay,az,gx,gy,gz,timestamp_ms
1.385,-0.374,-0.226,29.39,21.03,25.27,1784843814384.678
1.405,-0.389,-0.194,34.09,17.61,24.32,1784843814385.527
1.416,-0.421,-0.207,36.62,14.62,21.09,1784843814386.173
1.439,-0.457,-0.221,34.46,12.82,16.05,1784843814386.8052
1.501,-0.509,-0.237,28.93,10.19,11.44,1784843814387.424
1.517,-0.51,-0.245,21.24,8.24,6.32,1784843814387.932
1.493,-0.42,-0.266,6.84,3.97,-7.97,1784843814388.4348
1.481,-0.369,-0.25,-11.26,-1.98,-13.25,1784843814389.632
1.47,-0.376,-0.217,-28.87,-5.52,-12.02,1784843814390.388
1.436,-0.348,-0.24,-42.6,-11.54,-12.12,1784843814391.162
1.41,-0.289,-0.269,-51.67,-16.94,-16.05,1784843814391.78
1.447,-0.256,-0.28,-61.46,-22.19,-18.49,1784843814392.483
1.486,-0.269,-0.281,-72.05,-26.34,-16.79,1784843814393.074
1.497,-0.287,-0.265,-79.38,-28.53,-11.29,1784843814393.659
1.464,-0.298,-0.282,-79.2,-29.69,-4.97,1784843814394.245
1.432,-0.284,-0.331,-75.2,-29.91,-0.67,1784843814394.824
1.439,-0.244,-0.365,-71.66,-30.85,1.95,1784843814395.4001
1.485,-0.216,-0.379,-70.44,-35.98,4.82,1784843814395.9802
1.537,-0.201,-0.407,-73.73,-41.26,7.63,1784843814396.5618
1.555,-0.14,-0.44,-83.59,-46.42,7.29,1784843814397.1409
1.555,-0.026,-0.509,-99.06,-54.38,8.82,1784843814397.706
1.561,0.127,-0.614,-122.1,-63.33,14.1,1784843814398.299
1.575,0.279,-0.693,-149.82,-70.07,21.3,1784843814398.887
1.6,0.332,-0.795,-174.75,-73.21,26.52,1784843814399.478
1.601,0.337,-0.865,-197.3,-70.99,25.7,1784843814400.065
1.533,0.382,-0.808,-207.83,-62.14,27.34,1784843814400.671
1.489,0.331,-0.679,-191.17,-53.38,36.13,1784843814401.2139
1.452,0.17,-0.567,-157.26,-50.45,41.11,1784843814401.699
1.41,0.079,-0.471,-122.32,-46.45,45.5,1784843814402.1758
1.371,0.105,-0.446,-89.57,-38.94,58.08,1784843814402.6648
1.292,0.201,-0.491,-65.61,-28.11,80.42,1784843814403.1428
1.184,0.306,-0.524,-60.73,-16.33,110.23,1784843814403.6711
1.124,0.313,-0.526,-76.36,-7.02,142.12,1784843814404.5562
1.124,0.313,-0.526,-102.02,0.18,169.32,1784843814405.062
1.05,0.22,-0.473,-124.15,4.03,195.07,1784843814405.563
0.893,0.138,-0.364,-134.46,2.08,225.14,1784843814406.0513
0.696,0.134,-0.265,-135.81,-4.94,258.58,1784843814406.529
0.483,0.12,-0.225,-139.1,-13.7,289.56,1784843814407.02
0.223,0.074,-0.227,-139.1,-13.7,289.56,1784843814407.504
-0.088,0.031,-0.28,-143.8,-20.39,321.39,1784843814407.988
-0.436,-0.078,-0.421,-141.58,-25.36,357.77,1784843814408.469
-0.847,-0.216,-0.538,-135.75,-29.88,394.09,1784843814408.9548
-1.396,-0.352,-0.595,-128.64,-34.73,428.79,1784843814409.442
-2.159,-0.522,-0.453,-119.82,-43.37,462.32,1784843814409.9277
-3.098,-0.709,-0.362,-109.81,-68.33,493.64,1784843814410.4111
-3.764,-1.028,-0.518,-88.75,-81.27,522.63,1784843814410.892
-3.418,-1.718,-0.707,-26.12,-50.48,511.92,1784843814411.396
-2.25,-2.52,-0.743,82.83,13.46,434.34,1784843814411.8801
-0.876,-3.161,-0.389,190.47,63.2,313.61,1784843814412.364
-0.034,-3.083,-0.119,252.45,57.25,124.91,1784843814412.837
-0.098,-1.416,0.322,236.4,9.7,-67.57,1784843814413.248
-0.139,0.105,0.057,204.41,-57.13,-138.95,1784843814413.67
0.02,-0.042,-0.954,166.81,-92.5,-146.31,1784843814414.1108
-0.239,-0.259,-1.507,49.81,-79.53,-163.34,1784843814414.5278
-0.472,-0.141,-1.443,-44.13,-29.94,-122.81,1784843814414.9492
-0.559,-0.093,-1.006,-52.95,13.95,-44.34,1784843814415.3582
-0.478,0.018,-0.664,-22.0,28.78,8.48,1784843814415.822
-0.182,-0.128,-0.541,11.26,23.96,32.59,1784843814416.243
-0.087,-0.408,-0.387,33.97,13.79,36.1,1784843814416.898
-0.174,-0.702,-0.236,61.49,2.93,30.76,1784843814417.315
-0.218,-1.07,-0.216,101.99,-5.52,14.37,1784843814417.7222
-0.204,-1.37,-0.257,134.07,-10.56,-10.68,1784843814418.14
-0.2,-1.363,-0.286,142.43,-11.41,-40.07,1784843814418.5632
-0.24,-1.192,-0.362,126.19,-13.7,-70.83,1784843814418.977
-0.263,-1.123,-0.438,75.78,-23.5,-95.49,1784843814419.383
-0.282,-1.148,-0.381,4.0,-35.31,-112.13,1784843814419.822
-0.278,-1.217,-0.261,-44.19,-44.1,-122.07,1784843814420.251
-0.291,-1.3,-0.209,-48.86,-48.16,-135.75,1784843814420.664
-0.361,-1.31,-0.182,-26.83,-46.66,-154.76,1784843814421.088
-0.445,-1.247,-0.172,6.99,-41.63,-171.85,1784843814421.5
-0.507,-1.119,-0.152,40.16,-37.45,-185.74,1784843814421.916
-0.436,-1.043,-0.239,67.38,-39.0,-191.5,1784843814422.3262
-0.28,-1.056,-0.342,82.71,-41.81,-193.12,1784843814422.739
-0.168,-1.04,-0.362,84.54,-43.79,-197.15,1784843814423.106
-0.123,-0.991,-0.404,83.1,-44.74,-199.99,1784843814423.479
-0.122,-0.952,-0.476,79.2,-41.17,-197.36,1784843814423.8433
-0.102,-0.911,-0.446,70.8,-34.55,-192.94,1784843814424.204
-0.026,-0.887,-0.4,65.83,-31.16,-190.89,1784843814424.573
0.06,-0.903,-0.396,66.47,-30.64,-188.15,1784843814424.932
0.146,-0.898,-0.357,69.34,-27.31,-182.26,1784843814425.286
0.261,-0.86,-0.341,75.32,-25.36,-176.4,1784843814425.646
0.347,-0.808,-0.367,81.03,-23.53,-172.4,1784843814426.007
0.377,-0.736,-0.381,83.41,-18.13,-166.81,1784843814426.364
0.373,-0.669,-0.389,81.79,-12.27,-158.97,1784843814426.7212
0.349,-0.613,-0.395,72.36,-5.89,-152.01,1784843814427.0752
0.342,-0.587,-0.346,59.21,2.56,-145.48,1784843814427.433
0.397,-0.598,-0.295,53.56,10.5,-139.96,1784843814427.789
0.504,-0.571,-0.297,55.42,17.94,-134.86,1784843814428.141
0.618,-0.538,-0.271,61.65,26.18,-128.3,1784843814428.5
0.696,-0.543,-0.215,67.02,32.35,-122.59,1784843814428.8562
0.73,-0.549,-0.157,70.22,38.73,-118.72,1784843814429.2102
0.74,-0.519,-0.104,74.37,45.32,-112.89,1784843814429.56
0.741,-0.426,-0.097,80.81,50.14,-101.08,1784843814429.914
0.783,-0.376,-0.105,88.47,52.64,-81.36,1784843814430.2722
0.773,-0.27,-0.096,92.68,56.06,-72.73,1784843814430.623
0.845,-0.143,-0.107,91.28,55.73,-63.02,1784843814430.9749
1.098,-0.103,-0.136,89.63,53.93,-47.0,1784843814431.343
1.342,-0.141,-0.153,88.11,52.67,-35.31,1784843814431.6978
1.523,-0.176,-0.199,82.03,51.33,-25.57,1784843814432.0461
1.657,-0.138,-0.295,76.39,53.07,-15.23,1784843814432.3972
1.738,-0.1,-0.381,72.48,55.33,-4.43,1784843814432.7131
1.725,-0.025,-0.412,57.62,54.11,3.14,1784843814433.022
1.652,-0.014,-0.414,33.33,48.07,13.15,1784843814433.3298
1.629,-0.069,-0.44,4.67,39.74,15.75,1784843814433.645
1.587,-0.073,-0.473,-29.57,25.18,1.8,1784843814433.956
1.664,-0.136,-0.437,-62.53,14.89,-1.28,1784843814434.266
1.802,-0.252,-0.38,-81.64,7.2,1.19,1784843814434.586
1.775,-0.309,-0.352,-84.02,0.06,-6.87,1784843814434.894
1.672,-0.304,-0.306,-80.75,-5.92,-19.75,1784843814435.204
1.66,-0.31,-0.232,-74.13,-11.51,-26.8,1784843814435.532
1.703,-0.369,-0.174,-60.49,-17.18,-28.84,1784843814435.8542
1.686,-0.417,-0.14,-43.0,-22.4,-29.6,1784843814436.168
1.622,-0.408,-0.154,-25.03,-26.95,-30.88,1784843814436.485
1.578,-0.375,-0.193,-11.02,-31.92,-30.82,1784843814436.793
1.546,-0.314,-0.219,-7.78,-38.39,-29.27,1784843814437.105
1.511,-0.239,-0.255,-14.13,-43.64,-27.01,1784843814437.4211
1.48,-0.215,-0.27,-25.48,-47.24,-24.96,1784843814437.736
1.425,-0.257,-0.252,-38.97,-51.18,-23.41,1784843814438.045
1.387,-0.301,-0.184,-47.88,-55.02,-21.03,1784843814438.3792
1.402,-0.339,-0.124,-43.09,-58.66,-18.92,1784843814438.6921
1.429,-0.356,-0.089,-27.34,-62.72,-17.91,1784843814439.003
1.436,-0.31,-0.102,-9.55,-67.81,-15.72,1784843814439.315
1.45,-0.196,-0.215,1.83,-76.11,-9.92,1784843814439.636
1.547,-0.036,-0.374,0.95,-87.56,1.4,1784843814439.95
1.675,0.18,-0.506,-15.05,-97.17,3.42,1784843814440.258
1.714,0.4,-0.595,-45.05,-106.91,-8.67,1784843814440.5762
1.959,0.272,-0.611,-81.82,-124.06,35.37,1784843814440.8938
1.975,0.236,-0.53,-118.96,-129.64,41.57,1784843814441.217
1.571,0.381,-0.42,-138.77,-126.77,31.59,1784843814441.532
1.443,0.337,-0.408,-142.52,-127.2,51.18,1784843814441.859
1.441,0.301,-0.39,-141.94,-125.8,65.55,1784843814442.1812
1.311,0.356,-0.38,-137.76,-116.61,73.43,1784843814442.5
1.187,0.392,-0.388,-136.94,-104.68,93.23,1784843814442.814
1.038,0.452,-0.392,-146.92,-95.31,118.66,1784843814443.146
0.84,0.515,-0.348,-160.34,-80.54,147.25,1784843814443.4712
0.619,0.536,-0.3,-170.6,-64.06,181.95,1784843814443.7913
0.385,0.542,-0.265,-177.68,-53.56,222.91,1784843814444.119
0.162,0.494,-0.274,-180.24,-46.27,267.65,1784843814444.4448
-0.089,0.419,-0.348,-185.19,-42.39,314.13,1784843814444.77
-0.427,0.313,-0.445,-191.99,-38.18,359.32,1784843814445.087
-0.772,0.11,-0.628,-197.61,-29.21,400.65,1784843814445.4092
-1.14,-0.173,-0.827,-203.34,-19.26,434.37,1784843814445.729
-1.623,-0.475,-0.97,-205.85,-14.98,455.31,1784843814446.061
-2.264,-0.614,-0.913,-215.64,-20.75,468.58,1784843814446.3843
-3.024,-0.502,-0.568,-232.92,-38.97,487.62,1784843814446.708
-3.673,-0.486,-0.58,-231.45,-60.49,519.82,1784843814447.031
-3.743,-0.915,-0.653,-200.6,-38.94,541.7,1784843814447.356
-2.982,-1.815,-0.486,-131.72,10.65,505.45,1784843814447.677
-1.762,-3.256,-0.756,-26.61,53.22,412.95,1784843814447.999
-0.511,-4.0,-0.853,72.6,83.44,218.15,1784843814448.3281
0.102,-3.074,0.09,117.1,58.11,-33.14,1784843814448.6511
-0.026,-0.218,-0.121,181.92,-45.56,-145.82,1784843814448.968
0.086,0.789,-1.065,234.75,-132.69,-146.18,1784843814449.418
-0.112,0.302,-1.689,152.71,-130.65,-205.73,1784843814449.7468
-0.526,-0.087,-1.553,21.55,-60.64,-251.78,1784843814450.0688
-0.48,-0.497,-1.33,-8.91,-0.89,-197.27,1784843814450.3801
-0.34,-0.618,-1.07,27.89,28.53,-126.53,1784843814450.7039
-0.263,-0.397,-0.876,83.99,31.43,-85.54,1784843814451.0232
-0.17,-0.364,-0.931,118.96,17.55,-65.31,1784843814451.341
-0.145,-0.527,-0.934,107.85,2.01,-61.4,1784843814451.6501
-0.173,-0.777,-0.756,97.2,-5.25,-71.5,1784843814451.963
-0.188,-0.98,-0.65,109.44,-5.04,-91.22,1784843814452.28
-0.188,-0.98,-0.65,122.17,-5.46,-108.92,1784843814452.5981
-0.195,-1.055,-0.641,122.9,-9.8,-120.67,1784843814452.912
-0.239,-1.008,-0.636,113.22,-13.73,-136.33,1784843814453.2358
-0.289,-0.943,-0.664,97.99,-18.37,-151.89,1784843814453.555
-0.366,-0.959,-0.7,81.55,-16.21,-159.0,1784843814454.179
-0.442,-1.079,-0.608,69.37,-10.8,-168.43,1784843814454.497
1.04,-0.164,-0.226,138.55,93.08,-29.97,1784843814455.219
1.122,-0.133,-0.337,140.11,98.61,-21.27,1784843814455.532
1.195,-0.065,-0.334,124.91,103.03,-16.21,1784843814455.847
1.332,-0.006,-0.292,101.9,103.55,-11.14,1784843814456.165
1.493,0.004,-0.279,77.61,101.38,-7.54,1784843814456.4778
1.612,-0.003,-0.273,53.47,95.58,-4.24,1784843814468.664
1.691,-0.063,-0.311,34.15,87.5,0.7,1784843814474.251
1.744,-0.135,-0.367,15.32,78.19,7.81,1784843814484.8489
1.751,-0.143,-0.376,-1.31,70.8,5.68,1784843814495.379
1.686,-0.145,-0.387,-14.4,65.25,-2.08,1784843814508.6082
1.678,-0.236,-0.354,-29.48,56.55,-1.04,1784843814514.26
1.648,-0.326,-0.308,-41.87,46.54,-0.49,1784843814524.733
1.613,-0.368,-0.278,-44.19,39.46,-3.2,1784843814535.372
1.578,-0.378,-0.256,-38.64,32.72,-6.38,1784843814548.615
1.519,-0.39,-0.239,-32.32,24.45,-7.72,1784843814554.3108
1.468,-0.421,-0.218,-28.02,14.5,-4.27,1784843814564.872
1.408,-0.448,-0.202,-20.94,5.68,-2.38,1784843814575.265
1.378,-0.456,-0.221,-11.96,-3.51,-2.41,1784843814588.59
1.372,-0.436,-0.259,-5.16,-12.57,-2.87,1784843814594.2551
1.351,-0.407,-0.271,-2.38,-17.21,-2.59,1784843814604.5173
1.349,-0.402,-0.278,-3.6,-21.58,2.29,1784843814614.9812
1.378,-0.403,-0.266,-5.04,-28.08,9.55,1784843814625.4932
1.389,-0.406,-0.25,-3.97,-32.11,12.85,1784843814638.8118
1.372,-0.41,-0.236,-4.43,-35.13,10.28,1784843814644.618
1.355,-0.393,-0.233,-9.34,-40.8,5.28,1784843814654.871
1.374,-0.384,-0.271,-15.47,-48.83,2.87,1784843814665.417
1.432,-0.371,-0.366,-24.6,-56.58,-1.68,1784843814678.869
1.385,-0.334,-0.473,-41.23,-63.26,-2.75,1784843814684.818
1.605,-0.396,-0.637,-69.34,-70.13,5.16,1784843814696.728
1.632,-0.253,-0.833,-113.04,-74.04,-8.27,1784843814705.611
1.599,-0.086,-0.972,-164.37,-68.94,-19.29,1784843814718.856
1.774,-0.021,-0.992,-221.69,-62.53,-16.42,1784843814724.4182
2.054,0.101,-0.736,-269.97,-50.75,-16.08,1784843814735.6602
2.284,0.273,-0.342,-277.78,-37.32,-14.16,1784843814748.9578
2.512,0.397,0.016,-239.08,-21.7,-3.23,1784843814754.668
2.898,0.414,0.218,-187.23,-24.08,19.47,1784843814765.491
2.69,0.568,0.292,-140.78,-46.66,41.02,1784843814778.819
2.252,0.746,0.35,-97.48,-48.65,61.13,1784843814784.547
1.93,0.91,0.314,-79.44,-52.34,87.07,1784843814795.532
1.681,1.079,0.307,-87.22,-62.29,120.21,1784843814808.497
1.353,1.109,0.269,-101.9,-72.54,161.53,1784843814814.4573
0.928,1.171,0.231,-127.08,-82.19,219.67,1784843814825.387
0.381,1.26,0.078,-147.13,-97.99,297.62,1784843814838.8213
-0.218,1.095,-0.354,-154.85,-108.37,387.34,1784843814844.657
-0.88,0.387,-1.093,-150.27,-95.28,470.87,1784843814855.624
-2.058,-0.493,-1.803,-161.08,-79.13,543.11,1784843814869.057
-3.684,-0.696,-1.313,-216.1,-92.56,631.31,1784843814874.864
-4.0,-0.291,-0.438,-266.82,-180.97,717.15,1784843814888.6777
-3.989,-0.775,-1.822,-296.0,-188.12,755.55,1784843814894.4011
-3.718,-1.613,-1.15,-319.53,27.28,635.15,1784843814905.48
-2.178,-3.754,-1.152,-214.36,124.61,415.27,1784843814918.918
0.364,-4.0,0.819,-114.23,149.88,122.2,1784843814924.759
0.722,-2.233,1.751,85.33,57.53,-179.82,1784843814935.827
0.032,-0.633,-0.035,404.1,-78.34,-301.03,1784843814949.114
-0.795,-0.787,-1.509,575.88,-93.69,-344.25,1784843814955.061
-1.356,-0.819,-2.206,501.88,-52.52,-307.08,1784843814968.6147
-1.52,0.023,-1.728,318.74,-5.98,-209.88,1784843814974.2852
-1.008,0.883,-0.969,171.58,1.01,-122.14,1784843814985.3408
-0.162,1.013,-0.845,38.42,-10.77,-96.01,1784843814996.08
0.108,0.554,-0.942,-112.19,-18.46,-116.61,1784843815009.4998
-0.035,0.021,-0.668,-213.29,-20.91,-116.0,1784843815015.371
-0.097,-0.641,-0.383,-207.19,-23.71,-87.16,1784843815028.8022
-0.129,-1.027,-0.281,-127.17,-26.86,-73.76,1784843815034.536
-0.089,-1.122,-0.364,-23.87,-26.86,-67.35,1784843815045.423
0.003,-1.006,-0.6,56.73,-23.77,-66.29,1784843815055.9722
0.039,-0.854,-0.857,84.81,-20.05,-73.64,1784843815069.1829
-0.039,-0.849,-0.956,62.04,-16.39,-89.18,1784843815074.7322
-0.18,-0.892,-0.844,19.2,-12.18,-107.82,1784843815085.768
-0.23,-0.95,-0.685,0.52,-6.13,-121.13,1784843815098.87
-0.21,-1.03,-0.581,15.96,0.12,-132.88,1784843815104.908
-0.214,-1.053,-0.51,48.13,3.94,-145.63,1784843815115.399
-0.168,-1.021,-0.491,88.78,4.27,-155.06,1784843815139.004
-0.069,-0.97,-0.548,126.93,0.52,-160.44,1784843815139.555
-0.02,-0.887,-0.592,149.36,-1.13,-166.08,1784843815144.754
-0.017,-0.809,-0.628,155.34,-2.26,-166.36,1784843815155.589
-0.021,-0.766,-0.656,150.82,-1.5,-166.02,1784843815168.8389
-0.021,-0.719,-0.605,137.58,-0.27,-163.7,1784843815174.716
0.082,-0.68,-0.524,126.74,5.83,-160.19,1784843815185.7478
0.24,-0.718,-0.518,121.83,7.97,-157.54,1784843815199.1182
0.354,-0.744,-0.476,113.59,3.33,-150.61,1784843815205.142
0.409,-0.71,-0.414,107.39,-0.15,-142.4,1784843815215.765
0.424,-0.69,-0.43,105.53,-2.75,-133.12,1784843815231.851
0.439,-0.646,-0.524,96.84,-4.97,-126.26,1784843815234.7798
0.459,-0.611,-0.621,82.37,-3.78,-121.59,1784843815245.6528
0.518,-0.646,-0.605,66.23,0.09,-115.85,1784843815258.903
0.605,-0.707,-0.515,58.26,3.88,-113.5,1784843815264.774
0.693,-0.706,-0.436,62.62,6.2,-111.64,1784843815275.445
0.753,-0.657,-0.352,78.37,11.41,-108.31,1784843815288.6208
0.761,-0.618,-0.313,96.19,15.53,-101.29,1784843815294.381
0.762,-0.548,-0.306,104.19,17.61,-91.46,1784843815305.2622
0.759,-0.497,-0.355,104.4,20.36,-83.93,1784843815318.709
0.738,-0.475,-0.401,93.54,24.17,-78.74,1784843815324.547
0.713,-0.458,-0.376,75.72,28.87,-74.16,1784843815335.1199
0.738,-0.435,-0.302,64.06,33.05,-70.65,1784843815345.799
0.853,-0.46,-0.257,66.96,33.94,-67.35,1784843815359.106
0.952,-0.535,-0.224,74.34,30.92,-66.71,1784843815365.1072
0.984,-0.547,-0.188,78.74,26.31,-66.87,1784843815375.5178
0.997,-0.519,-0.245,85.79,22.77,-62.5,1784843815390.083
1.005,-0.478,-0.349,87.47,20.84,-56.73,1784843815397.211
1.005,-0.478,-0.349,73.89,20.57,-52.86,1784843815405.1763
0.988,-0.436,-0.456,43.49,22.46,-50.63,1784843815415.7078
0.955,-0.412,-0.49,5.28,25.45,-48.83,1784843815429.0503
0.927,-0.417,-0.468,-29.63,31.62,-48.62,1784843815435.071
0.937,-0.435,-0.385,-47.49,37.39,-49.1,1784843815445.2769
0.983,-0.442,-0.258,-47.49,37.39,-49.1,1784843815458.7268
1.046,-0.421,-0.16,-41.14,41.2,-46.66,1784843815464.253
1.099,-0.438,-0.126,-15.66,43.09,-42.21,1784843815475.015
1.056,-0.455,-0.133,11.05,40.83,-38.27,1784843815485.62
0.989,-0.394,-0.171,30.73,38.12,-32.99,1784843815499.073
0.949,-0.321,-0.311,44.62,35.65,-30.98,1784843815504.664
0.836,-0.271,-0.54,36.59,25.18,-22.98,1784843815515.313
0.831,-0.233,-0.636,4.15,14.25,-1.8,1784843815525.856
0.743,-0.077,-0.566,-29.15,16.05,0.37,1784843815539.16
0.794,-0.051,-0.418,-48.28,11.2,10.68,1784843815544.81
0.966,-0.167,-0.22,-52.52,-1.31,24.84,1784843815555.359
1.11,-0.226,-0.066,-35.0,-12.15,35.1,1784843815568.669
1.312,-0.311,-0.057,8.94,-24.51,51.48,1784843815574.376
1.456,-0.402,-0.145,59.94,-36.84,69.73,1784843815584.94
1.689,-0.458,-0.254,100.07,-41.05,79.87,1784843815595.875
1.751,-0.352,-0.382,118.69,-42.7,62.72,1784843815609.025
1.679,-0.234,-0.441,110.29,-37.57,61.49,1784843815614.867
1.756,-0.217,-0.483,76.75,-38.73,80.63,1784843815625.6243
1.84,-0.182,-0.52,32.2,-45.23,84.23,1784843815638.9338
1.913,-0.107,-0.545,-17.06,-50.2,67.26,1784843815644.619
1.963,0.003,-0.51,-69.09,-55.39,42.45,1784843815655.301
1.98,0.1,-0.446,-113.5,-61.31,20.23,1784843815668.6147
2.018,0.127,-0.414,-139.71,-69.34,4.18,1784843815674.449
2.06,0.088,-0.359,-143.56,-80.81,-5.52,1784843815685.153
2.033,0.108,-0.33,-128.12,-92.72,-14.89,1784843815695.8918
1.986,0.226,-0.411,-100.31,-98.91,-24.23,1784843815709.124
2.014,0.343,-0.504,-72.76,-99.34,-30.73,1784843815714.9958
2.026,0.423,-0.526,-57.92,-100.71,-34.06,1784843815725.739
1.952,0.561,-0.45,-57.74,-101.75,-29.63,1784843815739.1401
1.89,0.716,-0.385,-57.5,-99.58,-11.96,1784843815744.8572
1.932,0.768,-0.415,-50.81,-92.65,10.8,1784843815755.865
1.91,0.809,-0.422,-48.52,-84.78,26.09,1784843815768.827
1.8,0.835,-0.466,-53.29,-77.27,49.65,1784843815774.642
1.618,0.803,-0.553,-58.14,-63.91,84.11,1784843815785.418
1.432,0.781,-0.552,-60.7,-40.47,119.33,1784843815798.527
1.223,0.777,-0.521,-58.96,-25.39,166.78,1784843815804.3662
0.918,0.704,-0.411,-48.16,-17.33,258.34,1784843815815.211
0.458,0.624,-0.254,-14.34,18.8,341.44,1784843815828.355
0.024,0.486,-0.361,23.53,41.44,406.14,1784843815834.09
-0.576,0.455,-0.599,17.55,46.63,449.81,1784843815845.227
-1.434,0.542,-0.536,-55.27,44.28,499.25,1784843815855.896
-2.545,0.723,-0.262,-192.27,19.1,578.97,1784843815869.4102
-3.85,0.721,-0.534,-379.41,-24.9,670.28,1784843815875.542
-4.0,0.086,-1.73,-612.11,-51.94,727.23,1784843815888.4832
-3.985,-1.636,-3.057,-807.03,-60.49,689.26,1784843815894.394
-3.994,-3.155,-2.185,-801.42,-48.07,536.94,1784843815905.4668
-3.618,-4.0,-0.132,-498.43,-16.66,401.56,1784843815918.646
-1.841,-3.967,0.758,-34.09,24.87,274.27,1784843815924.5032
-0.237,-2.619,0.353,328.5,35.22,96.22,1784843815935.51
-0.026,-1.095,-0.586,463.18,-2.96,-82.22,1784843815948.668
-0.375,-0.194,-1.081,388.23,-38.64,-211.16,1784843815954.438
-0.803,0.029,-1.344,285.87,-35.77,-271.86,1784843815965.499
-1.139,-0.452,-1.426,207.37,-8.18,-274.85,1784843815978.75
-1.438,-0.42,-1.049,130.71,19.99,-262.83,1784843815984.61
-1.512,-0.125,-0.936,94.94,26.06,-244.7,1784843815995.5552
-1.358,-0.037,-1.003,53.56,18.4,-235.45,1784843816008.853
-1.156,-0.236,-0.877,-8.15,9.74,-241.74,1784843816014.395
-0.941,-0.564,-0.574,-26.03,8.36,-244.76,1784843816025.275
-0.736,-0.751,-0.415,27.34,5.19,-236.58,1784843816038.532
-0.468,-0.902,-0.555,114.72,-1.04,-212.9,1784843816044.1978
-0.113,-1.067,-0.765,180.18,-0.76,-192.75,1784843816055.33
-0.035,-0.919,-0.882,197.42,4.67,-196.45,1784843816068.4968
0.096,-0.789,-0.909,173.71,10.22,-173.53,1784843816074.308
0.291,-0.771,-0.926,117.56,8.12,-148.17,1784843816085.2812
0.418,-0.782,-0.863,52.0,-4.09,-130.47,1784843816098.635
0.582,-0.867,-0.717,14.13,-1.56,-116.25,1784843816104.228
0.573,-0.953,-0.653,11.81,4.52,-118.2,1784843816114.942
0.585,-1.021,-0.603,29.57,8.3,-113.8,1784843816125.7278
0.627,-1.042,-0.579,58.69,15.14,-110.87,1784843816139.105
0.586,-0.962,-0.567,88.47,24.75,-117.4,1784843816144.885
0.567,-0.837,-0.554,110.39,31.92,-116.86,1784843816155.963
0.596,-0.718,-0.533,120.76,36.01,-107.67,1784843816169.2048
0.66,-0.677,-0.492,123.14,39.98,-99.15,1784843816174.9949
0.622,-0.636,-0.436,119.24,41.81,-97.54,1784843816185.993
0.593,-0.627,-0.388,115.21,42.97,-91.37,1784843816199.272
0.566,-0.611,-0.405,111.58,44.68,-90.4,1784843816205.2832
0.541,-0.545,-0.45,104.04,44.86,-93.51,1784843816215.6401
0.537,-0.486,-0.456,92.23,46.72,-93.02,1784843816228.9448
0.542,-0.472,-0.416,78.07,48.49,-87.62,1784843816234.6958
0.562,-0.475,-0.37,68.51,51.36,-79.41,1784843816245.375
0.581,-0.472,-0.31,69.49,55.33,-72.02,1784843816258.909
0.631,-0.452,-0.272,79.35,58.6,-64.0,1784843816264.981
0.705,-0.434,-0.248,91.37,63.11,-57.22,1784843816275.29
0.756,-0.399,-0.212,100.07,69.19,-54.87,1784843816285.959
0.793,-0.354,-0.19,105.47,72.79,-54.14,1784843816299.347
0.784,-0.322,-0.2,100.31,67.45,-40.59,1784843816305.201
0.868,-0.377,-0.218,88.5,65.98,-20.48,1784843816315.804
0.847,-0.384,-0.244,73.24,71.44,-24.45,1784843816329.2349
0.824,-0.382,-0.255,53.77,74.1,-28.78,1784843816335.0989
0.861,-0.415,-0.215,34.3,75.2,-24.29,1784843816345.546
0.9,-0.472,-0.155,20.75,76.54,-19.78,1784843816358.877
0.944,-0.561,-0.095,16.79,76.3,-18.07,1784843816364.738
0.99,-0.607,-0.066,21.42,74.53,-18.16,1784843816375.29
1.033,-0.617,-0.06,31.1,72.18,-16.82,1784843816385.963
1.064,-0.593,-0.057,39.95,70.07,-15.81,1784843816399.2751
1.067,-0.51,-0.067,43.43,67.2,-14.74,1784843816405.153
1.069,-0.482,-0.091,40.1,63.51,-10.83,1784843816415.8972
1.067,-0.553,-0.103,26.15,57.47,-3.39,1784843816429.054
1.111,-0.608,-0.071,11.75,54.96,-3.97,1784843816434.8318
1.159,-0.623,-0.063,6.96,51.03,-17.27,1784843816445.138
1.254,-0.653,-0.026,7.81,42.6,-17.06,1784843816455.6
1.386,-0.708,0.003,15.26,31.5,-6.96,1784843816470.222
1.461,-0.732,-0.009,27.22,18.86,1.86,1784843816474.8108
1.468,-0.683,-0.072,39.67,9.25,0.95,1784843816485.051
1.427,-0.626,-0.165,41.84,-1.74,-5.77,1784843816495.4849
1.412,-0.581,-0.227,26.03,-15.47,-9.89,1784843816505.949
1.437,-0.562,-0.265,0.15,-28.17,-14.34,1784843816519.499
1.471,-0.534,-0.276,-27.31,-40.04,-19.14,1784843816524.873
1.497,-0.482,-0.246,-49.9,-50.23,-22.58,1784843816535.573
1.522,-0.425,-0.201,-65.03,-57.99,-26.22,1784843816548.8582
1.524,-0.357,-0.153,-72.97,-63.75,-32.07,1784843816554.6724
1.527,-0.297,-0.131,-75.41,-69.43,-37.54,1784843816565.377
1.522,-0.214,-0.131,-75.26,-75.47,-40.89,1784843816576.01
1.52,-0.136,-0.152,-70.86,-82.77,-41.54,1784843816589.23
1.555,-0.08,-0.182,-67.38,-89.33,-38.79,1784843816595.0889
1.643,-0.003,-0.199,-68.3,-93.26,-33.91,1784843816605.591
1.668,0.143,-0.187,-71.54,-94.58,-27.5,1784843816618.9128
1.633,0.312,-0.166,-74.83,-94.33,-15.14,1784843816624.6929
1.663,0.431,-0.122,-76.72,-91.83,0.24,1784843816635.169
1.712,0.516,-0.068,-78.49,-88.78,14.1,1784843816645.914
1.768,0.585,-0.068,-81.73,-85.48,31.53,1784843816659.209
1.827,0.708,-0.08,-83.68,-79.78,56.73,1784843816665.094
1.831,0.885,-0.058,-76.72,-75.14,91.31,1784843816675.6511
1.761,0.96,-0.1,-60.46,-74.19,130.04,1784843816688.98
1.761,0.96,-0.1,-48.34,-70.68,168.03,1784843816694.809
1.591,0.923,-0.157,-42.09,-62.44,208.38,1784843816705.6638
1.314,0.773,-0.265,-41.17,-47.85,252.24,1784843816718.873
0.918,0.632,-0.484,-57.19,-31.95,303.32,1784843816724.722
0.424,0.493,-0.795,-106.69,-13.43,359.57,1784843816735.7122
-0.143,0.257,-1.142,-106.69,-13.43,359.57,1784843816748.925
-0.845,-0.001,-1.422,-177.83,16.36,421.06,1784843816754.619
-1.683,-0.307,-1.425,-239.72,47.33,496.81,1784843816765.666
-2.777,-0.574,-0.923,-285.68,57.31,583.0,1784843816779.3027
-3.99,-0.66,-0.242,-313.21,16.72,645.56,1784843816785.003
-4.0,-0.896,-0.18,-295.6,-49.81,675.37,1784843816798.757
-3.924,-2.0,-0.3,-204.38,-14.07,612.2,1784843816804.401
-3.194,-2.769,0.316,-73.89,79.96,419.87,1784843816815.426
-1.905,-3.357,0.332,91.95,71.05,248.08,1784843816828.7307
-0.761,-3.199,-0.094,226.91,13.06,69.19,1784843816834.569
-0.337,-2.123,-0.365,267.8,-31.46,-102.63,1784843816845.587
-0.102,-1.125,-0.617,246.35,-55.18,-186.28,1784843816858.93
-0.086,-0.774,-0.97,198.22,-63.05,-223.91,1784843816864.882
-0.503,-0.567,-1.029,100.96,-64.73,-257.48,1784843816875.8909
-0.866,-0.431,-0.834,-8.45,-62.01,-263.47,1784843816889.366
-0.856,-0.57,-0.689,-70.89,-53.71,-254.13,1784843816894.992
-0.766,-0.777,-0.585,-85.63,-49.01,-259.65,1784843816905.621
-0.7,-0.87,-0.489,-72.79,-49.32,-263.44,1784843816918.6912
-0.574,-0.878,-0.416,-34.97,-45.17,-256.45,1784843816924.694
-0.461,-0.809,-0.416,19.62,-39.52,-253.0,1784843816935.555
-0.359,-0.724,-0.497,71.47,-39.4,-245.77,1784843816948.812
-0.27,-0.663,-0.575,105.2,-41.11,-230.6,1784843816954.911
-0.202,-0.61,-0.614,119.24,-41.87,-208.9,1784843816965.7888
-0.115,-0.622,-0.639,121.43,-41.47,-182.41,1784843816979.017
-0.033,-0.655,-0.626,114.41,-37.81,-161.9,1784843816984.8499
0.048,-0.629,-0.582,103.7,-29.54,-151.22,1784843816996.0142
0.146,-0.628,-0.563,95.68,-23.77,-140.63,1784843817010.102
0.287,-0.683,-0.538,87.92,-20.48,-127.14,1784843817015.624
0.362,-0.702,-0.513,78.68,-16.72,-117.44,1784843817025.603
0.402,-0.72,-0.514,68.73,-12.88,-103.58,1784843817041.301
0.403,-0.752,-0.513,55.02,-8.03,-90.98,1784843817046.3062
0.365,-0.77,-0.49,35.74,-1.92,-85.24,1784843817055.636
0.324,-0.775,-0.442,16.91,5.8,-82.19,1784843817068.696
0.328,-0.789,-0.36,8.03,13.86,-79.2,1784843817074.481
0.333,-0.802,-0.285,13.49,20.29,-78.34,1784843817084.888
0.344,-0.82,-0.254,29.21,24.35,-77.21,1784843817095.6611
0.379,-0.834,-0.254,46.94,25.7,-76.94,1784843817109.014
0.41,-0.847,-0.272,61.68,25.67,-76.72,1784843817114.368
0.441,-0.825,-0.334,71.05,27.01,-76.36,1784843817125.098
0.446,-0.782,-0.403,70.16,26.86,-70.53,1784843817135.8809
0.478,-0.771,-0.451,58.08,29.85,-61.25,1784843817149.597
0.485,-0.79,-0.456,37.39,32.96,-57.77,1784843817155.0852
0.498,-0.761,-0.377,15.08,35.34,-54.6,1784843817165.438
0.616,-0.759,-0.244,6.41,37.87,-45.81,1784843817178.7788
0.738,-0.726,-0.13,9.67,38.36,-39.46,1784843817184.491
0.844,-0.622,-0.053,18.56,38.48,-36.93,1784843817194.9739
0.98,-0.61,-0.063,29.21,35.43,-35.34,1784843817205.619
1.045,-0.685,-0.172,29.24,24.87,-25.27,1784843817219.006
1.129,-0.809,-0.309,23.87,21.88,-10.5,1784843817224.989
1.051,-0.859,-0.415,17.15,27.47,-16.57,1784843817235.6492
0.934,-0.805,-0.4,3.63,27.71,-24.45,1784843817249.053
0.943,-0.69,-0.338,-7.9,24.72,-24.38,1784843817254.9893
1.009,-0.619,-0.313,-10.71,22.83,-23.07,1784843817265.2148
1.035,-0.563,-0.279,-12.67,19.56,-23.32,1784843817275.875
1.007,-0.519,-0.253,-15.84,13.18,-23.74,1784843817289.117
0.96,-0.49,-0.267,-20.29,6.5,-24.41,1784843817294.942
0.934,-0.493,-0.332,-24.66,3.27,-24.6,1784843817305.265
0.884,-0.512,-0.393,-33.48,1.89,-27.59,1784843817315.868
0.826,-0.496,-0.404,-49.75,2.32,-28.63,1784843817329.406
0.826,-0.465,-0.363,-63.91,4.39,-23.65,1784843817334.7761
0.873,-0.433,-0.296,-66.99,5.4,-18.74,1784843817345.5242
0.915,-0.415,-0.272,-58.02,6.23,-15.66,1784843817356.052
0.932,-0.429,-0.324,-42.3,6.74,-11.57,1784843817369.356
0.968,-0.435,-0.366,-24.35,6.32,-6.65,1784843817375.28
1.012,-0.404,-0.385,-7.02,3.88,-3.54,1784843817385.116
