ax,ay,az,gx,gy,gz,timestamp_ms
-0.452,-1.308,-1.03,-14.92,9.61,88.56,1785107860094.9558
-0.425,-1.453,-0.828,-32.87,10.1,49.26,1785107860122.69
-0.33,-1.252,-0.582,-36.41,2.99,13.15,1785107860123.193
-0.26,-0.991,-0.699,-7.02,-5.52,-14.65,1785107860123.6072
-0.356,-0.737,-0.955,23.53,-8.27,-44.56,1785107860124.0398
-0.472,-0.505,-1.058,29.6,-9.8,-65.49,1785107860124.4878
-0.483,-0.43,-1.029,19.1,-10.35,-68.0,1785107860124.912
-0.462,-0.439,-0.934,3.72,-4.12,-57.99,1785107860125.345
-0.467,-0.467,-0.847,-4.67,3.08,-42.24,1785107860125.7559
-0.499,-0.489,-0.803,-0.09,5.55,-30.18,1785107860126.1719
-0.554,-0.517,-0.803,13.55,2.44,-26.46,1785107860126.578
-0.578,-0.59,-0.828,28.87,-2.84,-29.54,1785107860127.008
-0.559,-0.678,-0.864,43.46,-7.84,-37.29,1785107860127.378
-0.516,-0.756,-0.931,58.11,-11.47,-48.28,1785107860127.7617
-0.517,-0.802,-0.975,67.57,-12.76,-62.01,1785107860128.1172
-0.55,-0.8,-0.959,64.33,-13.25,-76.08,1785107860128.481
-0.576,-0.78,-0.902,51.15,-12.3,-90.12,1785107860128.86
-0.591,-0.778,-0.841,33.88,-10.53,-104.1,1785107860129.2312
-0.576,-0.816,-0.812,18.37,-7.57,-117.98,1785107860129.598
-0.588,-0.831,-0.774,7.9,-3.72,-132.51,1785107860129.958
-0.582,-0.843,-0.742,7.51,-0.7,-143.99,1785107860130.319
-0.539,-0.878,-0.71,16.51,1.34,-152.56,1785107860130.672
-0.488,-0.92,-0.691,31.28,2.87,-159.98,1785107860131.0332
-0.451,-0.962,-0.682,49.44,4.73,-166.81,1785107860131.387
-0.427,-0.956,-0.645,64.09,7.51,-170.66,1785107860131.7817
-0.415,-0.924,-0.6,75.32,12.05,-171.7,1785107860132.139
-0.423,-0.869,-0.52,84.6,17.94,-173.5,1785107860132.524
-0.38,-0.789,-0.397,95.68,21.3,-173.86,1785107860132.962
-0.216,-0.791,-0.323,115.51,20.87,-171.45,1785107860133.389
-0.059,-0.826,-0.305,139.59,18.77,-169.9,1785107860133.7722
0.05,-0.822,-0.328,161.72,17.3,-165.38,1785107860134.135
0.133,-0.817,-0.377,180.03,16.66,-159.31,1785107860134.5278
0.167,-0.763,-0.44,188.06,15.96,-155.22,1785107860134.939
0.232,-0.659,-0.49,182.65,18.52,-149.33,1785107860135.2861
0.318,-0.577,-0.472,166.23,23.07,-145.3,1785107860135.6218
0.441,-0.522,-0.456,142.12,27.62,-143.5,1785107860135.946
0.536,-0.521,-0.44,119.3,34.36,-141.24,1785107860136.271
0.506,-0.545,-0.406,98.91,40.71,-140.78,1785107860136.59
0.454,-0.531,-0.36,78.71,46.72,-139.65,1785107860136.92
0.446,-0.519,-0.338,65.95,53.5,-137.52,1785107860137.249
0.467,-0.499,-0.294,61.46,60.27,-134.07,1785107860137.571
0.499,-0.465,-0.206,64.36,64.03,-129.76,1785107860137.8933
0.499,-0.465,-0.206,75.75,64.67,-124.3,1785107860138.226
0.573,-0.448,-0.142,89.48,64.21,-118.63,1785107860138.556
0.649,-0.433,-0.163,99.4,64.39,-111.55,1785107860138.887
0.716,-0.383,-0.207,104.89,62.75,-105.44,1785107860139.209
0.746,-0.354,-0.249,98.82,60.46,-99.46,1785107860139.5378
0.768,-0.314,-0.294,98.82,60.46,-99.46,1785107860139.867
0.828,-0.274,-0.313,83.99,59.24,-91.31,1785107860140.185
0.904,-0.234,-0.269,63.54,58.11,-83.99,1785107860140.513
0.963,-0.249,-0.225,41.6,56.18,-77.85,1785107860140.84
1.004,-0.293,-0.174,22.34,55.12,-71.08,1785107860141.1682
1.04,-0.368,-0.172,11.93,53.41,-65.03,1785107860141.49
1.085,-0.417,-0.197,5.37,50.2,-61.22,1785107860141.823
1.139,-0.49,-0.233,0.55,44.65,-58.72,1785107860142.1519
1.183,-0.566,-0.249,-6.65,38.67,-56.55,1785107860142.463
1.249,-0.605,-0.226,-14.37,32.75,-51.18,1785107860142.757
1.31,-0.643,-0.226,-17.64,27.38,-45.2,1785107860143.0579
1.351,-0.641,-0.233,-24.38,23.5,-40.38,1785107860143.359
1.383,-0.63,-0.196,-37.35,20.33,-36.1,1785107860143.647
1.427,-0.65,-0.153,-52.86,16.91,-32.17,1785107860143.945
1.482,-0.69,-0.106,-64.73,13.67,-26.98,1785107860144.237
1.512,-0.735,-0.054,-63.48,10.16,-22.49,1785107860144.531
1.522,-0.75,-0.007,-48.1,5.62,-18.95,1785107860145.212
1.513,-0.72,0.004,-24.32,-0.98,-16.27,1785107860145.501
1.472,-0.656,-0.042,0.03,-7.08,-13.73,1785107860145.7898
1.434,-0.553,-0.109,14.44,-12.27,-9.8,1785107860146.08
1.412,-0.448,-0.178,15.2,-17.3,-4.24,1785107860146.369
1.401,-0.364,-0.255,4.52,-21.24,2.5,1785107860146.651
1.382,-0.302,-0.325,-12.6,-24.14,10.93,1785107860146.938
1.372,-0.263,-0.37,-31.4,-27.07,20.97,1785107860147.228
1.419,-0.214,-0.382,-48.16,-30.34,31.98,1785107860147.5168
1.473,-0.176,-0.381,-56.4,-32.81,42.73,1785107860147.8027
1.44,-0.164,-0.392,-55.91,-34.79,51.7,1785107860148.087
1.37,-0.163,-0.395,-49.47,-37.35,59.82,1785107860148.3818
1.318,-0.191,-0.398,-37.69,-41.32,68.21,1785107860148.669
1.278,-0.233,-0.374,-21.21,-45.56,78.86,1785107860148.967
1.277,-0.258,-0.361,-2.44,-49.71,92.47,1785107860149.2622
1.279,-0.243,-0.304,17.09,-52.98,107.61,1785107860149.56
1.266,-0.147,-0.218,31.74,-57.22,124.79,1785107860149.8591
1.237,-0.039,-0.189,37.45,-59.82,143.19,1785107860150.1592
1.107,-0.014,-0.229,28.5,-59.05,160.01,1785107860150.44
0.913,-0.03,-0.278,-0.31,-54.2,175.79,1785107860150.714
0.743,-0.068,-0.331,-38.36,-47.21,192.66,1785107860150.993
0.568,-0.139,-0.365,-73.27,-39.09,210.85,1785107860151.2717
0.357,-0.216,-0.381,-102.11,-30.73,230.41,1785107860151.5542
0.126,-0.271,-0.367,-124.27,-23.59,252.33,1785107860151.839
-0.123,-0.261,-0.303,-140.32,-20.6,274.67,1785107860152.1257
-0.386,-0.245,-0.314,-149.42,-21.52,296.18,1785107860152.411
-0.669,-0.283,-0.365,-156.25,-23.44,314.04,1785107860152.6921
-0.998,-0.313,-0.417,-165.87,-26.46,323.98,1785107860152.974
-1.359,-0.368,-0.49,-175.21,-28.66,334.6,1785107860153.2568
-1.666,-0.448,-0.551,-181.31,-29.66,345.53,1785107860153.537
-1.889,-0.536,-0.658,-187.75,-26.18,349.13,1785107860153.824
-1.978,-0.676,-0.791,-199.01,-14.16,341.38,1785107860154.134
-1.868,-0.899,-0.801,-208.17,2.96,320.57,1785107860154.428
-1.597,-1.192,-0.651,-195.84,14.5,287.76,1785107860154.697
-1.238,-1.442,-0.359,-143.8,15.44,236.21,1785107860154.972
-0.915,-1.561,-0.202,-58.84,8.88,161.66,1785107860155.2388
-0.782,-1.547,-0.173,27.5,-1.8,81.18,1785107860155.5012
-0.71,-1.353,-0.212,86.55,-13.52,19.26,1785107860155.768
-0.613,-1.059,-0.346,115.54,-13.49,-23.59,1785107860156.033
-0.567,-0.823,-0.523,120.33,-6.99,-57.47,1785107860156.301
-0.568,-0.653,-0.654,102.82,-6.1,-78.62,1785107860156.566
-0.562,-0.598,-0.744,74.62,-9.89,-86.52,1785107860156.827
-0.582,-0.68,-0.745,43.52,-11.02,-88.93,1785107860157.0898
-0.597,-0.802,-0.671,14.47,-11.26,-90.7,1785107860157.352
-0.627,-0.877,-0.619,-0.85,-10.93,-99.03,1785107860157.606
-0.653,-0.98,-0.602,2.59,-9.58,-106.48,1785107860157.8528
-0.689,-1.052,-0.586,23.5,-11.69,-116.89,1785107860158.103
-0.699,-1.093,-0.596,54.41,-16.57,-128.42,1785107860158.356
-0.64,-1.066,-0.601,80.17,-18.56,-137.0,1785107860158.609
-0.621,-1.037,-0.631,98.36,-18.89,-142.4,1785107860158.862
-0.631,-1.026,-0.648,106.54,-21.06,-143.65,1785107860159.113
-0.643,-1.035,-0.667,102.94,-22.98,-141.27,1785107860159.3708
-0.569,-1.04,-0.668,88.9,-22.61,-135.93,1785107860159.6238
-0.511,-1.049,-0.609,74.22,-19.2,-135.72,1785107860159.8762
-0.451,-1.1,-0.491,62.32,-18.71,-135.99,1785107860160.1238
-0.334,-1.037,-0.43,53.07,-19.44,-132.69,1785107860160.3782
-0.219,-1.101,-0.401,62.01,-15.69,-126.83,1785107860160.63
-0.155,-1.095,-0.373,69.61,-18.19,-129.18,1785107860160.883
-0.06,-1.023,-0.432,76.39,-18.37,-125.58,1785107860161.13
0.005,-1.032,-0.489,87.04,-14.1,-121.16,1785107860161.382
0.027,-0.956,-0.509,85.67,-10.65,-121.43,1785107860161.633
0.061,-0.866,-0.532,78.07,-5.68,-117.86,1785107860161.885
0.105,-0.798,-0.54,70.5,1.62,-114.87,1785107860162.166
0.137,-0.768,-0.541,65.74,10.38,-114.38,1785107860162.423
0.161,-0.742,-0.508,61.59,17.55,-111.67,1785107860162.6802
0.205,-0.722,-0.456,62.5,22.71,-106.05,1785107860162.944
0.254,-0.709,-0.397,69.25,27.89,-101.75,1785107860163.1958
0.296,-0.683,-0.318,77.15,31.22,-97.51,1785107860163.449
0.322,-0.677,-0.24,83.25,32.65,-92.84,1785107860163.7012
0.316,-0.645,-0.161,84.9,33.75,-88.96,1785107860163.99
0.329,-0.615,-0.091,87.16,33.88,-84.29,1785107860164.227
0.347,-0.617,-0.037,90.85,31.43,-81.82,1785107860164.4712
0.36,-0.618,0.001,91.56,26.67,-81.39,1785107860164.712
0.398,-0.635,-0.003,90.46,21.36,-80.32,1785107860164.947
0.419,-0.691,-0.063,89.54,18.34,-81.51,1785107860165.188
0.444,-0.718,-0.128,84.84,19.2,-83.16,1785107860165.428
0.487,-0.707,-0.128,78.52,21.12,-83.16,1785107860165.668
0.518,-0.692,-0.105,74.68,20.94,-82.98,1785107860165.905
0.541,-0.678,-0.091,72.08,22.28,-82.16,1785107860166.1492
0.548,-0.651,-0.05,66.65,24.66,-81.21,1785107860166.391
0.565,-0.606,-0.022,58.29,26.64,-79.38,1785107860166.63
0.624,-0.586,-0.012,52.34,29.69,-75.72,1785107860166.872
0.672,-0.641,-0.006,50.33,31.1,-74.34,1785107860167.1282
0.69,-0.689,-0.048,46.14,30.79,-74.43,1785107860167.375
0.735,-0.71,-0.094,42.48,32.47,-71.02,1785107860167.615
0.787,-0.746,-0.126,41.75,33.69,-68.24,1785107860167.894
0.819,-0.751,-0.136,37.45,34.3,-68.54,1785107860168.14
0.878,-0.721,-0.131,31.74,34.55,-67.78,1785107860168.3809
0.955,-0.719,-0.107,26.98,31.95,-67.81,1785107860168.617
1.011,-0.742,-0.101,17.24,27.62,-70.22,1785107860168.864
1.07,-0.78,-0.088,5.77,24.63,-72.21,1785107860169.108
1.138,-0.815,-0.093,-1.71,20.39,-73.67,1785107860169.3472
1.19,-0.818,-0.104,-3.91,14.95,-74.71,1785107860169.589
1.222,-0.786,-0.155,-3.94,8.88,-75.14,1785107860169.826
1.285,-0.722,-0.219,-5.83,3.69,-73.27,1785107860170.068
1.378,-0.675,-0.257,-9.0,-1.19,-69.0,1785107860170.2932
1.475,-0.649,-0.281,-13.73,-5.13,-63.33,1785107860170.5278
1.552,-0.6,-0.267,-18.89,-8.18,-55.91,1785107860170.775
1.589,-0.555,-0.244,-20.23,-11.96,-46.88,1785107860171.004
1.586,-0.509,-0.231,-21.09,-16.48,-36.81,1785107860171.2341
1.58,-0.438,-0.209,-24.81,-21.09,-24.6,1785107860171.469
1.561,-0.377,-0.182,-31.34,-25.24,-11.75,1785107860171.701
1.499,-0.361,-0.162,-40.89,-28.81,-0.82,1785107860171.925
1.441,-0.365,-0.119,-52.58,-31.74,9.31,1785107860172.18
1.391,-0.385,-0.067,-62.2,-35.04,19.32,1785107860172.404
1.329,-0.379,-0.009,-70.83,-43.37,42.02,1785107860172.927
1.329,-0.379,-0.009,-68.45,-47.12,54.84,1785107860173.177
0.745,-0.557,-0.36,-18.04,-0.12,-6.13,1785107860173.4897
0.75,-0.552,-0.357,-16.14,0.24,-4.58,1785107860173.708
0.759,-0.547,-0.355,-13.98,0.06,-3.17,1785107860173.9268
0.763,-0.548,-0.362,-12.18,-0.03,-2.47,1785107860174.145
0.762,-0.539,-0.371,-10.83,0.21,-2.08,1785107860181.3271
0.762,-0.536,-0.376,-9.55,0.27,-1.71,1785107860194.565
0.759,-0.547,-0.38,-9.06,-0.03,-1.95,1785107860199.945
0.754,-0.556,-0.371,-9.89,-0.03,-2.35,1785107860210.263
0.754,-0.557,-0.364,-10.1,0.12,-1.74,1785107860220.793
0.756,-0.555,-0.366,-9.22,0.18,-0.98,1785107860231.147
0.756,-0.551,-0.373,-8.45,0.24,-0.55,1785107860241.583
0.753,-0.539,-0.374,-8.64,0.58,0.09,1785107860254.8079
0.756,-0.527,-0.373,-7.93,0.52,1.28,1785107860260.2507
0.758,-0.519,-0.378,-6.78,0.34,2.32,1785107860270.497
0.75,-0.508,-0.378,-6.35,0.49,2.53,1785107860280.8608
0.747,-0.502,-0.378,-6.26,0.61,3.08,1785107860291.257
0.749,-0.514,-0.383,-6.23,0.79,3.81,1785107860301.681
0.745,-0.525,-0.385,-7.66,1.4,3.91,1785107860315.0
0.743,-0.533,-0.384,-9.49,1.92,4.49,1785107860320.4082
0.741,-0.543,-0.375,-10.65,2.26,5.16,1785107860330.773
0.743,-0.545,-0.367,-11.02,2.26,5.71,1785107860341.1782
0.748,-0.547,-0.364,-10.59,2.14,6.26,1785107860351.653
0.747,-0.548,-0.361,-10.01,1.86,6.44,1785107860365.0198
0.746,-0.547,-0.358,-9.64,1.71,6.32,1785107860370.888
0.748,-0.552,-0.367,-9.64,1.5,6.26,1785107860380.903
0.749,-0.559,-0.38,-9.83,1.46,6.1,1785107860391.214
0.745,-0.567,-0.378,-10.38,1.65,6.13,1785107860401.727
0.739,-0.566,-0.396,-11.57,1.28,6.2,1785107860415.1191
0.748,-0.567,-0.403,-13.34,2.01,5.95,1785107860420.859
0.745,-0.571,-0.388,-15.17,2.66,5.65,1785107860430.8748
0.739,-0.566,-0.379,-16.69,3.36,5.8,1785107860441.354
0.74,-0.569,-0.381,-16.91,3.85,6.26,1785107860451.842
0.742,-0.567,-0.387,-17.43,4.3,6.41,1785107860465.27
0.756,-0.561,-0.392,-17.64,5.34,6.65,1785107860471.044
0.773,-0.561,-0.408,-16.48,5.89,6.01,1785107860481.005
0.777,-0.555,-0.434,-15.2,5.86,4.91,1785107860491.4648
0.78,-0.553,-0.453,-14.16,6.44,4.55,1785107860504.5813
0.782,-0.544,-0.448,-12.79,7.48,4.52,1785107860510.6418
0.79,-0.531,-0.439,-10.53,8.06,4.85,1785107860520.513
0.803,-0.516,-0.437,-8.55,8.18,5.25,1785107860531.0762
0.814,-0.491,-0.445,-7.51,8.73,5.37,1785107860541.461
0.83,-0.466,-0.456,-6.68,9.22,6.07,1785107860551.8667
0.841,-0.447,-0.474,-7.42,9.46,6.56,1785107860565.158
0.854,-0.422,-0.493,-10.38,9.98,7.45,1785107860570.975
0.876,-0.402,-0.522,-13.98,10.25,8.42,1785107860581.037
0.91,-0.381,-0.548,-18.22,10.53,9.74,1785107860591.637
0.953,-0.349,-0.563,-22.34,10.71,11.32,1785107860604.892
1.007,-0.316,-0.572,-26.28,9.7,13.31,1785107860610.858
1.06,-0.279,-0.589,-30.92,8.15,15.63,1785107860621.117
1.104,-0.22,-0.605,-36.59,6.71,18.86,1785107860631.652
1.136,-0.146,-0.619,-42.33,5.16,23.47,1785107860644.872
1.151,-0.075,-0.631,-47.21,3.63,29.85,1785107860650.891
1.159,-0.012,-0.634,-52.4,2.47,37.32,1785107860661.086
1.16,0.032,-0.624,-58.41,1.31,44.83,1785107860671.662
1.138,0.051,-0.61,-64.03,-0.34,52.46,1785107860684.9412
1.103,0.049,-0.591,-68.94,-1.53,60.82,1785107860690.8857
1.066,0.039,-0.576,-72.7,-2.5,69.89,1785107860701.107
1.046,0.015,-0.57,-74.98,-3.66,79.59,1785107860711.633
1.03,-0.006,-0.552,-76.54,-4.46,90.03,1785107860724.8882
1.026,-0.016,-0.538,-78.13,-5.77,101.38,1785107860731.072
1.037,-0.031,-0.541,-79.65,-6.9,113.44,1785107860741.3098
1.024,-0.042,-0.527,-82.95,-7.23,125.61,1785107860751.908
0.99,-0.051,-0.501,-87.13,-7.42,138.46,1785107860765.188
0.969,-0.065,-0.48,-90.64,-6.87,150.98,1785107860771.1748
0.936,-0.09,-0.462,-93.57,-5.74,163.46,1785107860781.655
0.868,-0.128,-0.453,-96.53,-5.16,176.43,1785107860794.875
0.788,-0.169,-0.446,-97.81,-5.52,189.43,1785107860800.8972
0.724,-0.201,-0.46,-95.8,-7.02,203.31,1785107860811.3333
0.67,-0.228,-0.494,-91.74,-8.94,218.48,1785107860824.57
0.582,-0.257,-0.525,-87.62,-9.58,234.69,1785107860830.598
0.421,-0.31,-0.547,-86.95,-8.06,251.69,1785107860841.0283
0.206,-0.362,-0.542,-91.95,-4.49,267.19,1785107860851.699
0.03,-0.37,-0.553,-99.34,-4.46,282.2,1785107860864.9668
-0.12,-0.391,-0.608,-101.2,-6.93,299.23,1785107860870.994
-0.332,-0.461,-0.649,-99.22,-8.18,317.45,1785107860881.4778
-0.595,-0.517,-0.664,-97.72,-8.42,334.45,1785107860894.6938
-0.91,-0.535,-0.71,-94.67,-8.91,350.29,1785107860900.765
-1.222,-0.579,-0.79,-90.03,-11.57,369.61,1785107860911.308
-1.473,-0.572,-0.844,-87.37,-12.54,382.92,1785107860924.573
-1.679,-0.54,-0.923,-89.05,-8.27,388.41,1785107860930.5898
-1.888,-0.56,-1.012,-99.67,0.09,386.94,1785107860940.827
-2.0,-0.646,-1.035,-113.32,7.93,377.03,1785107860951.8508
-1.877,-0.876,-0.957,-116.49,14.04,356.03,1785107860965.133
-1.499,-1.197,-0.857,-99.49,24.32,313.55,1785107860971.0842
-1.011,-1.829,-0.795,-56.92,39.52,244.39,1785107860982.0193
-0.51,-2.392,-0.386,-5.31,54.81,141.24,1785107860995.088
-0.068,-2.055,0.242,60.27,42.24,32.75,1785107861001.176
0.016,-1.413,0.045,195.87,4.76,-63.17,1785107861011.508
-0.465,-1.235,-0.735,337.29,-17.67,-162.57,1785107861024.8242
-0.913,-1.176,-1.252,368.72,-19.59,-245.43,1785107861030.8218
-1.098,-0.999,-1.271,315.13,-9.83,-280.34,1785107861041.6582
-1.09,-0.938,-1.092,241.13,4.06,-280.89,1785107861054.931
-1.058,-0.884,-0.961,161.69,13.82,-284.43,1785107861060.962
-0.993,-0.84,-0.866,95.86,15.75,-294.66,1785107861071.729
-0.869,-0.937,-0.733,63.88,16.63,-302.29,1785107861085.0051
-0.775,-1.088,-0.531,58.66,17.03,-301.98,1785107861090.993
-0.64,-1.195,-0.396,76.97,13.06,-290.87,1785107861101.7458
-0.439,-1.155,-0.346,114.84,13.0,-272.84,1785107861115.046
-0.26,-0.981,-0.331,162.27,12.48,-255.53,1785107861121.002
-0.056,-0.777,-0.407,200.45,3.97,-237.83,1785107861131.878
0.172,-0.602,-0.509,208.87,-5.43,-218.48,1785107861145.164
0.372,-0.458,-0.526,187.87,-12.54,-198.77,1785107861151.624
0.546,-0.404,-0.529,150.94,-15.75,-180.18,1785107861164.314
0.676,-0.458,-0.469,109.65,-11.9,-165.72,1785107861170.182
0.803,-0.456,-0.369,69.64,-7.29,-156.71,1785107861181.4102
0.883,-0.535,-0.321,41.63,-5.07,-140.69,1785107861191.7178
0.897,-0.605,-0.23,26.49,-2.72,-129.22,1785107861204.844
0.897,-0.605,-0.23,22.1,-4.7,-120.12,1785107861211.173
0.872,-0.593,-0.12,30.3,-7.78,-111.18,1785107861221.506
0.872,-0.599,-0.092,42.09,-9.25,-107.0,1785107861234.889
0.85,-0.613,-0.097,52.67,-10.47,-103.24,1785107861240.855
0.822,-0.601,-0.083,52.67,-10.47,-103.24,1785107861251.497
0.792,-0.624,-0.087,65.52,-13.55,-97.75,1785107861264.697
0.763,-0.611,-0.096,76.11,-17.85,-92.56,1785107861270.725
0.776,-0.549,-0.118,83.93,-23.22,-87.77,1785107861281.1301
0.787,-0.539,-0.171,82.09,-27.5,-79.17,1785107861291.821
0.802,-0.526,-0.189,67.48,-27.86,-74.4,1785107861304.82
0.8,-0.499,-0.2,44.31,-27.25,-70.71,1785107861310.499
0.819,-0.509,-0.221,20.29,-25.39,-66.81,1785107861321.5588
0.826,-0.559,-0.216,0.09,-23.1,-66.19,1785107861334.794
0.82,-0.592,-0.196,-15.23,-21.03,-66.74,1785107861340.623
0.832,-0.6,-0.158,-21.12,-19.29,-65.4,1785107861350.841
0.834,-0.645,-0.155,-16.75,-18.37,-66.07,1785107861361.7432
0.816,-0.626,-0.161,-13.76,-17.09,-67.93,1785107861375.0369
0.851,-0.608,-0.192,-7.9,-16.33,-66.44,1785107861380.9841
0.883,-0.6,-0.194,2.01,-14.44,-66.81,1785107861391.299
0.895,-0.586,-0.182,10.65,-12.42,-66.07,1785107861401.944
0.894,-0.569,-0.184,17.21,-10.38,-63.57,1785107861416.4219
0.896,-0.573,-0.224,21.45,-8.39,-61.46,1785107861421.2961
0.901,-0.532,-0.26,18.13,-6.35,-60.82,1785107861431.5222
0.925,-0.466,-0.296,10.01,-4.73,-58.47,1785107861444.685
0.94,-0.449,-0.336,0.73,-4.46,-55.24,1785107861450.863
0.939,-0.44,-0.368,-10.41,-4.15,-53.99,1785107861460.8682
0.931,-0.395,-0.379,-21.61,-2.56,-52.61,1785107861471.416
0.934,-0.359,-0.387,-26.86,-2.93,-49.2,1785107861481.839
0.949,-0.309,-0.394,-26.0,-4.52,-44.77,1785107861495.168
0.965,-0.258,-0.406,-19.04,-6.99,-39.19,1785107861501.196
0.962,-0.215,-0.421,-9.77,-10.65,-33.45,1785107861511.342
0.958,-0.165,-0.442,-2.87,-13.98,-28.02,1785107861521.899
0.962,-0.131,-0.459,-0.46,-16.05,-22.61,1785107861535.1858
0.951,-0.095,-0.475,-6.68,-18.59,-17.52,1785107861541.1257
0.958,-0.066,-0.501,-20.57,-23.1,-11.41,1785107861551.4988
0.984,-0.08,-0.52,-38.03,-26.34,-6.26,1785107861564.749
0.997,-0.125,-0.502,-56.76,-28.44,-2.69,1785107861570.7012
1.021,-0.162,-0.453,-70.74,-31.28,1.22,1785107861580.96
1.041,-0.18,-0.397,-72.45,-35.52,5.98,1785107861591.216
1.051,-0.171,-0.368,-62.07,-41.47,11.11,1785107861604.7822
1.078,-0.154,-0.391,-46.14,-48.4,15.35,1785107861610.782
1.122,-0.139,-0.422,-30.76,-55.09,18.77,1785107861621.1619
1.162,-0.117,-0.459,-19.65,-60.0,23.01,1785107861631.82
1.188,-0.093,-0.5,-14.07,-62.41,28.5,1785107861645.042
1.222,-0.071,-0.525,-14.86,-63.14,34.18,1785107861651.1318
1.275,-0.051,-0.511,-19.96,-62.35,39.8,1785107861661.5032
1.32,-0.043,-0.498,-27.28,-60.67,44.71,1785107861674.7852
1.336,-0.045,-0.491,-37.05,-59.45,48.62,1785107861680.794
1.334,-0.057,-0.485,-47.03,-57.95,53.1,1785107861691.23
1.309,-0.076,-0.503,-56.28,-55.64,58.05,1785107861701.88
1.273,-0.084,-0.531,-65.86,-51.48,63.36,1785107861715.199
1.242,-0.103,-0.54,-74.89,-46.88,69.52,1785107861721.178
1.214,-0.13,-0.528,-84.26,-43.0,76.6,1785107861731.811
1.187,-0.156,-0.512,-92.56,-39.25,84.87,1785107861744.8872
1.145,-0.186,-0.486,-97.72,-35.65,94.24,1785107861750.878
1.083,-0.199,-0.475,-102.18,-32.2,104.31,1785107861762.993
1.019,-0.194,-0.473,-107.58,-29.85,116.31,1785107861774.825
0.976,-0.192,-0.464,-112.13,-28.35,130.38,1785107861780.775
0.925,-0.178,-0.461,-116.0,-26.8,144.51,1785107861791.687
0.863,-0.142,-0.427,-119.17,-25.94,161.84,1785107861804.951
0.791,-0.122,-0.377,-119.17,-27.25,182.53,1785107861810.955
0.668,-0.077,-0.323,-119.27,-31.34,204.93,1785107861821.918
0.502,-0.031,-0.35,-120.55,-37.78,230.32,1785107861835.162
0.318,-0.019,-0.443,-125.0,-42.66,257.33,1785107861841.164
0.109,-0.027,-0.534,-134.71,-45.41,283.18,1785107861854.572
-0.131,-0.071,-0.61,-145.91,-48.55,309.0,1785107861860.643
-0.352,-0.169,-0.683,-152.04,-56.15,335.58,1785107861871.5862
-0.59,-0.222,-0.707,-154.12,-69.43,361.52,1785107861884.821
-0.991,-0.219,-0.727,-154.24,-85.51,393.05,1785107861890.8281
-1.567,-0.214,-0.719,-156.25,-102.02,430.71,1785107861901.8838
-2.378,-0.259,-0.886,-166.54,-121.1,463.52,1785107861915.245
-3.062,-0.263,-1.56,-193.85,-126.87,482.19,1785107861921.428
-3.655,-0.186,-2.493,-260.32,-93.66,487.11,1785107861934.792
-3.122,-0.852,-2.477,-363.11,-28.72,480.79,1785107861940.7349
-1.779,-2.556,-1.712,-405.59,67.93,391.37,1785107861951.73
-0.692,-4.0,-0.528,-365.18,178.08,195.04,1785107861965.0613
0.268,-3.079,1.272,-267.74,157.14,-16.17,1785107861971.123
0.296,-1.342,1.109,69.28,3.11,-183.42,1785107861981.926
-0.343,-1.62,-0.719,464.92,-73.46,-281.84,1785107861995.067
-1.068,-1.623,-1.649,584.34,-66.53,-308.63,1785107862001.222
-1.34,-0.172,-2.216,518.72,-55.67,-263.5,1785107862014.571
-0.725,1.249,-2.505,338.42,-31.83,-192.63,1785107862020.536
-0.046,1.465,-2.112,31.22,18.37,-171.0,1785107862031.383
-0.023,0.632,-1.22,-286.11,74.16,-184.39,1785107862044.759
-0.353,-0.209,-0.412,-393.96,102.57,-188.36,1785107862050.9272
-0.472,-0.888,-0.085,-271.83,91.8,-185.95,1785107862061.6929
-0.41,-1.259,-0.144,-61.71,65.58,-183.66,1785107862074.927
-0.299,-0.977,-0.566,137.61,45.84,-180.91,1785107862080.9841
-0.31,-0.602,-1.087,261.12,27.07,-165.29,1785107862091.86
-0.299,-0.306,-1.278,281.41,23.62,-162.02,1785107862105.148
-0.21,-0.214,-1.223,239.42,33.05,-163.85,1785107862111.176
-0.154,-0.383,-1.026,177.83,40.31,-161.63,1785107862124.501
-0.084,-0.575,-0.828,129.49,50.29,-161.69,1785107862130.572
0.01,-0.686,-0.739,110.9,57.8,-160.13,1785107862141.505
0.073,-0.725,-0.683,113.44,57.59,-154.12,1785107862154.749
0.121,-0.72,-0.647,128.76,52.55,-150.15,1785107862160.773
0.24,-0.675,-0.61,143.83,48.74,-147.95,1785107862171.723
0.317,-0.664,-0.576,153.08,46.82,-143.89,1785107862185.059
0.364,-0.661,-0.568,151.77,45.53,-139.23,1785107862190.998
0.409,-0.644,-0.542,144.32,44.62,-135.62,1785107862201.95
0.406,-0.664,-0.518,136.88,43.89,-131.2,1785107862215.29
0.397,-0.696,-0.476,130.95,43.28,-126.8,1785107862221.271
0.433,-0.673,-0.456,126.16,39.86,-123.39,1785107862234.6409
0.546,-0.636,-0.447,124.12,33.63,-117.37,1785107862240.6367
0.636,-0.629,-0.457,125.06,26.83,-111.76,1785107862251.5781
0.683,-0.634,-0.444,124.7,21.03,-107.46,1785107862264.831
0.716,-0.608,-0.431,121.19,16.57,-104.22,1785107862270.872
0.782,-0.573,-0.449,114.14,16.36,-100.25,1785107862281.913
0.837,-0.571,-0.44,105.01,18.19,-97.26,1785107862294.976
0.833,-0.615,-0.433,94.42,19.2,-96.32,1785107862301.0837
0.866,-0.566,-0.452,73.61,20.45,-93.57,1785107862311.522
0.953,-0.535,-0.508,51.18,23.77,-91.92,1785107862324.841
0.944,-0.552,-0.497,23.8,28.63,-95.86,1785107862330.879
0.913,-0.525,-0.36,-9.34,30.7,-95.49,1785107862341.1682
0.87,-0.583,-0.304,-25.94,30.27,-94.21,1785107862351.853
0.821,-0.651,-0.307,-28.53,30.73,-93.87,1785107862365.259
0.808,-0.666,-0.305,-18.49,28.05,-91.01,1785107862371.1738
0.824,-0.652,-0.292,6.96,21.91,-87.62,1785107862381.461
0.875,-0.622,-0.331,39.37,14.98,-84.75,1785107862394.706
0.94,-0.565,-0.384,65.77,9.55,-81.09,1785107862400.748
0.992,-0.461,-0.456,78.68,5.25,-75.44,1785107862410.92
0.991,-0.39,-0.521,77.39,4.49,-72.08,1785107862421.578
0.985,-0.348,-0.556,58.57,6.01,-69.49,1785107862434.8062
1.017,-0.349,-0.552,31.31,8.55,-66.41,1785107862440.784
1.013,-0.33,-0.503,6.65,10.83,-65.37,1785107862450.972
1.023,-0.306,-0.444,-3.23,11.32,-62.65,1785107862461.472
1.015,-0.29,-0.387,5.95,8.48,-59.36,1785107862474.7463
1.009,-0.26,-0.377,27.89,4.0,-53.77,1785107862480.758
1.009,-0.26,-0.377,53.44,0.37,-48.31,1785107862490.909
1.013,-0.213,-0.422,71.72,-3.05,-43.28,1785107862501.426
1.0,-0.184,-0.471,75.78,-5.92,-37.97,1785107862514.6758
0.991,-0.128,-0.493,67.45,-9.22,-31.89,1785107862520.6753
1.006,-0.08,-0.53,47.58,-9.67,-28.11,1785107862530.8499
1.014,-0.061,-0.56,47.58,-9.67,-28.11,1785107862541.388
1.001,-0.052,-0.549,22.19,-8.45,-25.03,1785107862554.6748
0.995,-0.05,-0.513,1.53,-8.51,-21.12,1785107862560.737
1.013,-0.057,-0.481,-9.95,-8.64,-16.88,1785107862570.736
1.007,-0.05,-0.44,-13.28,-9.64,-12.76,1785107862581.2878
1.01,-0.02,-0.423,-8.24,-12.36,-6.2,1785107862591.688
1.019,0.013,-0.431,0.15,-14.92,0.89,1785107862604.9832
1.034,0.034,-0.451,5.8,-17.0,7.66,1785107862610.852
1.067,0.058,-0.496,7.35,-19.1,15.2,1785107862621.003
1.124,0.083,-0.55,3.42,-20.75,23.9,1785107862631.521
1.19,0.092,-0.586,-7.02,-21.64,31.31,1785107862644.824
1.27,0.098,-0.605,-23.47,-21.67,37.6,1785107862650.832
1.358,0.116,-0.601,-41.81,-23.38,43.21,1785107862661.3108
1.427,0.125,-0.619,-58.87,-27.07,49.78,1785107862671.8608
1.533,0.12,-0.631,-73.79,-30.98,57.22,1785107862685.073
1.685,0.109,-0.641,-84.48,-36.53,64.61,1785107862691.092
1.79,0.092,-0.688,-90.67,-41.75,73.49,1785107862701.483
1.815,0.103,-0.73,-95.92,-42.42,81.51,1785107862714.7861
1.721,0.114,-0.704,-103.4,-40.89,89.85,1785107862720.762
1.578,0.116,-0.615,-111.51,-39.49,103.7,1785107862731.4739
1.442,0.168,-0.5,-115.94,-40.38,123.78,1785107862744.754
1.268,0.207,-0.455,-116.55,-42.02,148.84,1785107862750.8428
1.076,0.18,-0.435,-117.8,-40.07,175.97,1785107862761.7202
0.868,0.156,-0.361,-120.06,-38.82,203.71,1785107862774.942
0.668,0.155,-0.289,-118.23,-40.74,233.44,1785107862781.012
0.499,0.089,-0.301,-114.63,-43.0,266.06,1785107862791.966
0.26,-0.031,-0.366,-112.86,-45.26,298.35,1785107862805.197
-0.076,-0.118,-0.483,-112.37,-48.25,330.94,1785107862811.235
-0.385,-0.157,-0.632,-111.67,-51.36,362.99,1785107862824.645
-0.713,-0.165,-0.769,-116.95,-51.88,387.86,1785107862830.728
-1.142,-0.171,-0.916,-139.77,-48.74,410.44,1785107862841.659
-1.685,-0.152,-1.046,-178.78,-40.93,433.12,1785107862854.608
-2.346,-0.12,-1.07,-225.9,-36.44,455.82,1785107862860.887
-2.924,-0.178,-1.177,-269.39,-36.01,477.1,1785107862871.876
-3.292,-0.545,-1.229,-297.56,-27.65,490.95,1785107862885.094
-3.209,-1.119,-0.917,-292.31,-21.09,489.39,1785107862891.16
-2.554,-1.86,-0.577,-228.03,-19.2,467.24,1785107862904.5288
-1.38,-2.75,-0.458,-105.69,5.01,380.47,1785107862910.471
-0.321,-3.232,-0.567,26.7,27.04,184.15,1785107862921.3518
0.035,-2.657,-0.299,96.38,-1.86,-17.55,1785107862931.9128
-0.084,-1.628,-0.307,143.1,-40.47,-132.82,1785107862945.0637
-0.422,-1.33,-0.824,222.27,-28.44,-205.42,1785107862951.246
-0.885,-1.17,-1.194,269.63,-6.5,-267.31,1785107862961.986
-0.981,-0.76,-1.378,248.97,7.32,-272.87,1785107862975.2642
-0.76,-0.47,-1.301,184.27,23.22,-253.06,1785107862981.3938
-0.524,-0.321,-1.045,104.34,36.35,-257.0,1785107862994.5422
-0.384,-0.388,-0.79,43.76,45.17,-268.26,1785107863000.659
-0.379,-0.619,-0.497,24.51,46.17,-264.23,1785107863011.331
-0.208,-0.69,-0.359,50.81,39.92,-251.93,1785107863024.613
-0.194,-0.64,-0.48,100.25,36.26,-241.86,1785107863030.7222
-0.152,-0.568,-0.62,139.59,33.69,-223.76,1785107863041.467
-0.125,-0.493,-0.624,157.44,32.69,-209.94,1785107863054.7322
-0.135,-0.517,-0.6,157.75,28.63,-195.04,1785107863060.743
-0.074,-0.511,-0.527,146.28,30.15,-182.9,1785107863071.759
0.144,-0.506,-0.5,137.97,31.37,-174.69,1785107863085.0571
0.394,-0.57,-0.527,131.96,28.53,-170.78,1785107863090.987
0.474,-0.673,-0.533,120.79,25.88,-166.45,1785107863101.9731
