ax,ay,az,gx,gy,gz,timestamp_ms
1.329,-0.542,0.191,-58.84,-10.53,-48.07,1785098616040.8572
1.266,-0.56,0.168,-40.53,-16.27,-45.9,1785098616041.387
1.222,-0.602,0.152,-29.21,-22.28,-44.8,1785098616041.923
1.18,-0.687,0.153,-26.49,-29.08,-43.67,1785098616042.444
1.128,-0.783,0.161,-28.87,-34.61,-46.36,1785098616043.02
1.064,-0.88,0.15,-36.56,-40.53,-52.4,1785098616043.566
0.983,-0.944,0.131,-47.24,-49.01,-55.27,1785098616044.05
0.886,-0.938,0.117,-58.32,-60.55,-52.25,1785098616044.5518
0.84,-0.906,0.09,-65.68,-72.02,-45.72,1785098616045.0352
0.827,-0.881,0.026,-68.82,-80.97,-39.55,1785098616045.5251
0.816,-0.823,-0.052,-71.11,-85.94,-34.06,1785098616045.917
0.824,-0.778,-0.101,-72.02,-88.14,-26.95,1785098616046.308
0.8,-0.761,-0.194,-73.06,-89.24,-21.3,1785098616046.7
0.697,-0.689,-0.265,-81.64,-89.97,-16.79,1785098616047.0989
0.599,-0.631,-0.307,-91.56,-92.62,-9.89,1785098616047.489
0.522,-0.59,-0.373,-100.96,-96.41,-3.57,1785098616047.8909
0.465,-0.519,-0.419,-111.7,-97.96,1.83,1785098616048.28
0.436,-0.469,-0.45,-118.96,-97.57,7.42,1785098616048.689
0.422,-0.479,-0.499,-119.24,-95.58,10.38,1785098616049.092
0.368,-0.471,-0.54,-115.51,-92.38,10.59,1785098616049.487
0.284,-0.438,-0.573,-108.16,-89.45,13.37,1785098616049.8792
0.219,-0.445,-0.611,-96.8,-86.61,19.62,1785098616050.2773
0.163,-0.498,-0.657,-84.48,-84.29,25.73,1785098616050.6912
0.086,-0.517,-0.671,-76.39,-82.89,29.85,1785098616051.083
0.021,-0.508,-0.671,-69.61,-83.19,35.43,1785098616051.468
-0.007,-0.549,-0.707,-59.42,-81.09,39.89,1785098616051.811
-0.03,-0.643,-0.759,-46.75,-73.92,35.83,1785098616052.173
-0.085,-0.716,-0.818,-33.33,-63.26,27.1,1785098616052.527
-0.126,-0.81,-0.846,-13.49,-50.23,22.61,1785098616052.866
-0.155,-0.927,-0.896,13.7,-36.41,17.09,1785098616053.2073
-0.178,-1.043,-0.971,41.29,-21.0,6.87,1785098616053.5413
-0.178,-1.043,-0.971,60.67,-3.3,-5.71,1785098616053.866
-0.208,-1.08,-0.998,73.58,13.92,-17.27,1785098616054.199
-0.232,-1.097,-0.953,80.81,29.05,-29.51,1785098616054.535
-0.253,-1.127,-0.915,80.48,43.09,-45.96,1785098616054.867
-0.289,-1.108,-0.861,80.48,43.09,-45.96,1785098616055.207
-0.328,-0.976,-0.754,75.29,53.47,-63.08,1785098616055.5461
-0.308,-0.831,-0.693,76.05,61.46,-74.8,1785098616055.881
-0.266,-0.719,-0.676,78.62,68.91,-82.77,1785098616056.2087
-0.241,-0.587,-0.593,76.2,74.74,-87.92,1785098616056.552
-0.182,-0.521,-0.536,78.52,76.69,-90.49,1785098616056.884
-0.12,-0.5,-0.516,80.66,76.78,-96.01,1785098616057.2212
-0.101,-0.442,-0.441,76.48,75.84,-101.26,1785098616057.5518
-0.028,-0.412,-0.375,73.24,75.5,-101.2,1785098616057.889
0.109,-0.443,-0.333,76.27,76.45,-101.17,1785098616058.2412
0.25,-0.476,-0.3,83.5,77.61,-100.56,1785098616058.584
0.371,-0.507,-0.269,90.33,79.84,-93.42,1785098616058.934
0.449,-0.454,-0.219,92.23,80.32,-78.01,1785098616059.2607
0.536,-0.367,-0.13,93.45,78.34,-53.35,1785098616059.5552
0.599,-0.298,-0.024,96.35,72.7,-25.45,1785098616059.837
0.646,-0.26,0.035,100.83,65.31,0.67,1785098616060.128
0.724,-0.205,0.1,103.34,58.93,24.93,1785098616060.4229
0.883,-0.194,0.173,108.07,54.66,47.3,1785098616060.729
1.056,-0.213,0.242,111.12,49.96,65.68,1785098616061.034
1.165,-0.217,0.294,103.67,37.14,83.71,1785098616061.3298
1.201,-0.2,0.302,86.64,16.66,103.37,1785098616061.6309
1.205,-0.197,0.284,68.06,-4.91,123.81,1785098616061.9253
1.235,-0.236,0.216,55.42,-24.99,140.84,1785098616062.2139
1.3,-0.295,0.11,48.01,-41.41,150.52,1785098616062.5122
1.357,-0.329,0.009,42.66,-53.62,155.64,1785098616062.867
1.412,-0.396,-0.124,37.75,-60.73,157.32,1785098616063.2031
1.487,-0.445,-0.26,28.5,-63.26,153.26,1785098616063.494
1.549,-0.488,-0.352,15.35,-62.93,144.51,1785098616063.801
1.567,-0.562,-0.446,2.5,-61.98,134.04,1785098616064.1
1.597,-0.649,-0.519,-8.64,-56.95,124.3,1785098616064.39
1.642,-0.72,-0.571,-15.23,-49.41,115.18,1785098616064.6829
1.695,-0.773,-0.618,-17.09,-40.68,104.71,1785098616064.9888
1.737,-0.811,-0.671,-20.08,-29.63,86.49,1785098616065.283
1.792,-0.814,-0.696,-30.52,-16.66,59.63,1785098616065.563
1.796,-0.813,-0.667,-46.02,-4.33,30.34,1785098616065.8518
1.743,-0.82,-0.619,-57.74,8.06,3.72,1785098616066.1409
1.673,-0.814,-0.565,-61.86,20.66,-17.79,1785098616066.457
1.594,-0.78,-0.506,-59.45,32.56,-31.68,1785098616066.7388
1.511,-0.709,-0.454,-55.33,41.63,-40.59,1785098616067.0237
1.442,-0.64,-0.387,-54.72,47.88,-48.49,1785098616067.2852
1.398,-0.613,-0.326,-58.9,52.1,-57.31,1785098616067.5479
1.352,-0.608,-0.277,-67.51,54.66,-65.92,1785098616067.805
1.29,-0.611,-0.229,-78.37,54.78,-71.32,1785098616068.0662
1.222,-0.599,-0.196,-89.18,52.67,-73.21,1785098616068.325
1.152,-0.553,-0.173,-99.46,49.01,-71.35,1785098616068.5771
1.093,-0.503,-0.143,-107.06,43.76,-64.67,1785098616068.844
1.038,-0.481,-0.136,-107.82,37.26,-55.39,1785098616069.132
0.979,-0.443,-0.141,-104.86,31.28,-45.41,1785098616069.396
0.934,-0.376,-0.13,-99.31,26.18,-32.56,1785098616069.65
0.919,-0.346,-0.118,-88.75,20.26,-16.3,1785098616069.906
0.895,-0.361,-0.118,-74.28,13.12,0.18,1785098616070.163
0.824,-0.421,-0.101,-58.9,5.01,17.27,1785098616070.416
0.69,-0.498,-0.103,-43.67,-5.71,34.36,1785098616070.668
0.545,-0.517,-0.133,-31.95,-16.33,51.09,1785098616070.931
0.451,-0.501,-0.141,-24.2,-26.09,70.47,1785098616071.194
0.357,-0.508,-0.16,-18.37,-36.65,86.55,1785098616071.449
0.276,-0.551,-0.2,-19.96,-43.89,95.34,1785098616071.706
0.182,-0.61,-0.23,-28.44,-53.83,103.95,1785098616071.9722
0.096,-0.719,-0.261,-34.85,-66.53,108.1,1785098616072.242
0.023,-0.87,-0.322,-34.3,-73.46,106.97,1785098616072.4968
-0.074,-0.947,-0.383,-28.78,-73.27,100.86,1785098616072.7942
-0.194,-0.945,-0.426,-16.11,-73.92,99.06,1785098616073.056
-0.264,-0.972,-0.479,6.1,-74.86,104.56,1785098616073.3098
-0.293,-1.019,-0.564,32.56,-73.4,107.64,1785098616073.577
-0.323,-1.077,-0.654,56.83,-66.65,102.6,1785098616073.8408
-0.394,-1.137,-0.722,71.02,-55.57,88.44,1785098616074.103
-0.482,-1.145,-0.768,67.66,-44.13,70.86,1785098616074.358
-0.514,-1.164,-0.768,52.28,-32.56,55.09,1785098616074.619
-0.515,-1.183,-0.706,31.16,-22.19,38.09,1785098616074.86
-0.507,-1.144,-0.607,13.03,-12.33,20.36,1785098616075.105
-0.481,-1.091,-0.522,7.72,-3.54,3.3,1785098616075.331
-0.467,-1.019,-0.468,12.67,4.12,-15.35,1785098616075.5688
-0.448,-0.931,-0.446,22.0,10.74,-32.93,1785098616075.831
-0.407,-0.871,-0.449,32.65,16.08,-49.26,1785098616076.061
-0.37,-0.821,-0.44,38.85,19.68,-65.77,1785098616076.3071
-0.328,-0.821,-0.426,41.11,21.18,-79.62,1785098616076.555
-0.304,-0.843,-0.428,39.37,22.52,-91.62,1785098616076.813
-0.281,-0.832,-0.409,34.06,23.87,-97.14,1785098616077.075
-0.199,-0.836,-0.384,31.71,24.29,-96.26,1785098616077.3152
-0.126,-0.829,-0.394,30.7,23.83,-95.92,1785098616077.556
-0.045,-0.797,-0.397,26.43,25.36,-91.49,1785098616077.795
0.081,-0.733,-0.384,19.81,29.24,-85.24,1785098616078.0261
0.166,-0.669,-0.362,13.79,34.46,-82.19,1785098616078.266
0.217,-0.674,-0.347,8.09,35.98,-71.23,1785098616078.5051
0.268,-0.672,-0.313,2.56,34.91,-54.17,1785098616078.7358
0.307,-0.633,-0.264,4.12,31.04,-37.2,1785098616078.978
0.346,-0.571,-0.224,15.78,29.3,-23.22,1785098616079.217
0.448,-0.549,-0.244,33.63,28.93,-11.11,1785098616079.456
0.574,-0.569,-0.286,48.1,30.09,-3.57,1785098616079.6853
0.688,-0.582,-0.315,52.49,31.5,9.64,1785098616079.926
0.824,-0.59,-0.346,51.0,33.81,31.22,1785098616080.1667
0.923,-0.528,-0.327,44.5,34.82,52.74,1785098616080.405
0.978,-0.435,-0.266,36.65,33.78,69.61,1785098616080.638
0.998,-0.434,-0.193,29.73,28.08,82.98,1785098616080.867
0.984,-0.567,-0.077,26.22,16.69,94.49,1785098616081.093
0.981,-0.751,0.01,34.73,6.87,99.73,1785098616081.3088
1.027,-0.884,-0.009,51.55,3.97,105.69,1785098616081.535
1.1,-0.873,-0.033,65.52,3.85,124.0,1785098616081.762
1.17,-0.8,-0.049,75.08,2.44,147.19,1785098616081.997
1.184,-0.752,-0.086,74.53,0.03,159.4,1785098616082.221
1.147,-0.734,-0.097,57.25,-1.8,156.68,1785098616082.4631
1.085,-0.74,-0.088,28.05,-1.98,142.83,1785098616082.731
1.063,-0.77,-0.111,-3.36,-0.15,126.53,1785098616082.971
1.197,-0.835,-0.192,-26.43,6.01,113.56,1785098616083.199
1.551,-0.948,-0.319,-38.91,22.31,109.13,1785098616083.4282
2.14,-1.04,-0.073,-36.81,58.63,101.81,1785098616083.648
1.042,-0.751,0.384,-46.14,50.33,69.37,1785098616083.894
0.329,-0.659,0.175,-23.1,-7.11,78.16,1785098616084.1182
0.851,-0.824,-0.111,20.23,-13.55,80.48,1785098616084.343
1.135,-0.714,-0.136,37.75,8.3,59.54,1785098616084.558
1.142,-0.741,-0.236,34.64,18.8,47.06,1785098616084.785
0.936,-0.79,-0.284,18.46,9.46,35.0,1785098616085.0151
0.798,-0.888,-0.252,13.95,-0.92,28.69,1785098616085.243
0.719,-1.081,-0.253,25.88,-8.36,21.42,1785098616085.465
0.606,-1.262,-0.245,32.2,-12.57,14.16,1785098616085.707
0.558,-1.327,-0.237,24.93,-12.85,13.64,1785098616085.9312
0.57,-1.289,-0.276,10.59,-15.41,16.48,1785098616086.1492
0.63,-1.19,-0.298,-6.13,-19.01,17.09,1785098616086.365
0.632,-1.049,-0.322,-24.54,-21.52,4.43,1785098616086.577
0.574,-0.917,-0.362,-49.17,-22.55,-17.21,1785098616086.784
0.506,-0.846,-0.368,-79.65,-23.56,-34.12,1785098616086.991
0.478,-0.886,-0.307,-105.26,-26.18,-41.26,1785098616087.2031
0.448,-1.039,-0.262,-112.55,-29.94,-47.43,1785098616087.4119
0.365,-1.126,-0.264,-105.04,-33.54,-53.71,1785098616087.6191
0.365,-1.126,-0.264,-87.16,-35.62,-52.64,1785098616087.831
0.327,-1.094,-0.273,-63.05,-38.21,-47.33,1785098616088.0398
0.352,-1.01,-0.291,-39.92,-41.35,-44.04,1785098616088.267
0.385,-0.946,-0.33,-20.54,-43.49,-45.11,1785098616088.47
0.387,-0.952,-0.384,-9.61,-43.18,-48.55,1785098616088.679
0.335,-0.958,-0.43,-9.61,-43.18,-48.55,1785098616088.9102
0.287,-0.943,-0.436,-6.13,-40.1,-48.28,1785098616089.121
0.277,-0.946,-0.417,-4.21,-36.19,-43.61,1785098616089.3262
0.278,-0.942,-0.396,-0.89,-33.14,-38.58,1785098616089.528
0.29,-0.887,-0.338,10.71,-28.96,-30.12,1785098616089.932
0.287,-0.859,-0.323,16.6,-26.67,-27.47,1785098616090.137
-0.701,-0.793,-0.555,-39.83,-0.92,5.68,1785098616090.604
-0.738,-0.871,-0.553,-38.64,0.06,-1.86,1785098616090.804
-0.801,-0.937,-0.608,-33.27,2.56,-13.49,1785098616091.009
-0.852,-0.974,-0.666,-28.02,7.48,-25.94,1785098616100.1558
-0.889,-1.024,-0.648,-22.49,13.43,-39.8,1785098616105.7751
-0.946,-1.075,-0.598,-14.07,18.77,-54.29,1785098616116.545
-0.994,-1.084,-0.574,2.26,24.6,-65.16,1785098616129.7842
-1.01,-1.051,-0.608,27.34,31.19,-72.94,1785098616135.448
-1.018,-0.99,-0.649,49.35,37.35,-82.25,1785098616146.153
-1.02,-0.921,-0.68,59.91,41.75,-92.17,1785098616156.801
-0.997,-0.871,-0.694,58.53,43.98,-99.19,1785098616170.021
-0.959,-0.844,-0.678,47.67,44.34,-104.19,1785098616175.766
-0.906,-0.835,-0.658,32.29,43.34,-108.83,1785098616186.7112
-0.831,-0.839,-0.625,17.7,41.72,-112.0,1785098616199.959
-0.744,-0.872,-0.596,8.24,39.89,-113.5,1785098616205.7148
-0.688,-0.937,-0.574,5.16,39.86,-115.6,1785098616216.495
-0.667,-1.037,-0.538,9.28,41.66,-118.53,1785098616229.801
-0.674,-1.1,-0.506,17.09,42.76,-121.1,1785098616235.5
-0.648,-1.068,-0.462,24.9,39.31,-117.86,1785098616246.423
-0.537,-0.963,-0.474,31.74,30.73,-108.65,1785098616259.729
-0.403,-0.829,-0.495,34.09,22.0,-98.24,1785098616265.8298
-0.301,-0.721,-0.515,30.82,14.4,-88.63,1785098616276.416
-0.232,-0.648,-0.532,22.0,8.97,-80.9,1785098616286.9312
-0.189,-0.601,-0.55,10.8,5.65,-75.84,1785098616300.152
-0.171,-0.597,-0.561,1.56,4.09,-70.71,1785098616306.175
-0.161,-0.641,-0.561,-2.93,3.91,-63.63,1785098616316.2297
-0.169,-0.687,-0.532,-3.08,4.91,-56.12,1785098616326.6392
-0.183,-0.696,-0.492,-1.56,5.49,-48.86,1785098616337.113
-0.151,-0.677,-0.474,-0.7,3.75,-40.38,1785098616350.432
-0.081,-0.68,-0.472,-2.26,0.21,-32.84,1785098616357.286
-0.032,-0.727,-0.471,-4.94,-2.75,-29.11,1785098616366.3218
-0.032,-0.824,-0.476,-7.57,-4.73,-29.36,1785098616376.8298
-0.068,-0.921,-0.477,-10.01,-6.04,-31.43,1785098616390.031
-0.119,-0.96,-0.504,-11.66,-6.23,-31.86,1785098616395.925
-0.15,-0.963,-0.578,-11.02,-4.12,-28.26,1785098616406.2358
-0.154,-0.971,-0.679,-8.48,0.76,-24.23,1785098616416.6929
-0.156,-0.991,-0.757,-6.9,7.75,-23.56,1785098616427.217
-0.163,-0.963,-0.804,-7.84,17.18,-25.18,1785098616440.444
-0.146,-0.918,-0.802,-7.23,29.21,-25.91,1785098616446.3801
-0.114,-0.909,-0.768,-3.45,42.18,-27.25,1785098616456.5981
-0.111,-0.933,-0.711,-1.16,54.41,-32.75,1785098616467.196
-0.14,-0.96,-0.635,-1.71,64.39,-39.92,1785098616480.4458
-0.165,-1.042,-0.59,-1.04,71.14,-46.48,1785098616486.426
-0.206,-1.134,-0.59,-3.05,76.63,-54.38,1785098616496.605
-0.242,-1.153,-0.611,-10.99,81.76,-59.97,1785098616507.263
-0.245,-1.123,-0.63,-20.33,87.53,-60.58,1785098616520.51
-0.21,-1.087,-0.631,-27.22,93.75,-60.61,1785098616526.46
-0.158,-1.065,-0.636,-30.18,100.28,-63.36,1785098616536.9292
-0.109,-1.072,-0.685,-28.78,108.77,-68.85,1785098616550.372
-0.081,-1.093,-0.767,-23.41,120.79,-76.48,1785098616556.327
-0.077,-1.096,-0.807,-17.82,134.65,-85.6,1785098616567.029
-0.063,-1.095,-0.814,-11.02,147.74,-93.63,1785098616580.249
-0.02,-1.122,-0.754,0.37,161.99,-101.38,1785098616585.793
0.094,-1.213,-0.715,13.95,176.27,-107.27,1785098616597.087
0.266,-1.356,-0.741,26.28,193.37,-112.8,1785098616610.383
0.34,-1.347,-0.637,29.48,208.04,-116.18,1785098616616.321
0.334,-1.035,-0.443,25.67,211.25,-100.53,1785098616629.738
0.453,-0.605,-0.258,32.11,210.03,-66.81,1785098616635.6978
0.725,-0.259,-0.083,46.69,207.8,-38.48,1785098616646.558
1.092,-0.112,-0.034,62.29,198.43,-35.52,1785098616657.286
1.361,-0.016,-0.077,70.65,182.87,-61.89,1785098616670.5862
1.502,0.102,-0.05,74.37,161.93,-98.73,1785098616676.471
1.561,0.18,-0.029,85.21,134.16,-131.5,1785098616689.8591
1.619,0.212,-0.114,104.31,105.78,-156.25,1785098616695.762
1.614,0.236,-0.223,120.33,82.43,-177.8,1785098616706.898
1.525,0.233,-0.236,123.42,66.41,-196.81,1785098616720.075
1.49,0.167,-0.231,113.01,60.79,-212.93,1785098616726.066
1.491,0.115,-0.236,83.62,64.61,-226.05,1785098616736.975
1.509,0.058,-0.261,35.4,72.05,-228.89,1785098616750.228
1.51,0.004,-0.273,-26.18,75.78,-219.0,1785098616756.295
1.554,-0.112,-0.223,-83.07,71.66,-193.58,1785098616766.9592
1.563,-0.191,-0.186,-116.79,61.34,-168.98,1785098616780.225
1.507,-0.077,-0.158,-131.53,59.21,-155.58,1785098616786.2139
1.501,0.028,-0.118,-140.08,68.76,-145.09,1785098616797.2
1.442,0.002,-0.09,-147.43,73.7,-135.56,1785098616810.4373
1.342,-0.086,-0.04,-148.2,71.38,-127.69,1785098616816.348
1.204,-0.194,-0.011,-137.46,61.95,-115.36,1785098616830.558
1.154,-0.319,0.004,-116.76,48.98,-92.68,1785098616835.98
1.154,-0.319,0.004,-91.65,29.88,-65.07,1785098616846.585
1.081,-0.362,-0.02,-69.43,11.41,-37.35,1785098616857.212
1.011,-0.32,-0.056,-52.13,-5.04,-3.63,1785098616870.373
0.906,-0.343,-0.104,-41.02,-24.41,28.72,1785098616876.0378
0.769,-0.342,-0.142,-35.77,-42.39,52.61,1785098616886.7112
0.658,-0.278,-0.177,-35.77,-42.39,52.61,1785098616899.9749
0.568,-0.252,-0.203,-36.65,-57.47,76.27,1785098616905.924
0.435,-0.276,-0.234,-39.61,-74.86,96.93,1785098616916.387
0.284,-0.317,-0.31,-44.53,-90.27,109.9,1785098616927.135
0.165,-0.313,-0.375,-54.05,-100.31,119.17,1785098616940.502
0.049,-0.264,-0.386,-64.0,-110.29,127.17,1785098616946.387
-0.081,-0.234,-0.379,-70.59,-125.16,134.31,1785098616959.869
-0.282,-0.278,-0.356,-72.21,-142.34,142.09,1785098616965.739
-0.529,-0.43,-0.363,-63.63,-159.18,148.14,1785098616976.6772
-0.755,-0.562,-0.426,-47.88,-172.49,145.94,1785098616990.122
-0.881,-0.666,-0.515,-29.18,-180.06,138.58,1785098616996.073
-0.93,-0.879,-0.678,-5.43,-180.52,123.23,1785098617006.9749
-0.987,-1.094,-0.906,10.8,-170.69,99.31,1785098617020.176
-1.009,-1.241,-1.165,17.46,-148.56,77.46,1785098617026.1382
-0.94,-1.412,-1.413,22.68,-115.91,60.61,1785098617036.8992
-0.843,-1.483,-1.513,14.37,-77.58,39.52,1785098617050.095
-0.781,-1.358,-1.373,-7.9,-36.5,9.49,1785098617056.138
-0.744,-1.173,-1.121,-29.11,-2.26,-24.17,1785098617066.3218
-0.704,-0.977,-0.863,-45.56,21.55,-54.93,1785098617077.0728
-0.685,-0.768,-0.664,-56.61,38.36,-80.42,1785098617090.2842
-0.656,-0.648,-0.583,-57.16,52.22,-101.9,1785098617096.134
-0.59,-0.661,-0.543,-50.02,62.93,-127.93,1785098617106.8643
-0.575,-0.69,-0.502,-36.29,70.07,-158.57,1785098617120.0781
-0.575,-0.75,-0.496,-11.51,76.39,-180.49,1785098617126.0647
-0.585,-0.823,-0.531,19.44,83.01,-192.3,1785098617136.807
-0.602,-0.795,-0.548,46.02,88.96,-194.28,1785098617150.028
-0.575,-0.745,-0.574,71.29,93.05,-184.91,1785098617156.1
-0.44,-0.739,-0.623,92.23,95.52,-173.07,1785098617166.804
-0.204,-0.68,-0.681,102.15,96.87,-167.67,1785098617180.1082
-0.01,-0.584,-0.692,104.19,97.38,-164.43,1785098617186.111
0.214,-0.537,-0.723,101.6,101.23,-158.27,1785098617197.14
0.392,-0.462,-0.728,91.59,107.36,-150.82,1785098617210.376
0.536,-0.352,-0.657,75.5,113.8,-138.4,1785098617216.307
0.688,-0.237,-0.541,60.12,119.91,-121.59,1785098617229.795
0.854,-0.194,-0.439,52.0,124.0,-103.61,1785098617235.848
0.969,-0.138,-0.336,46.24,126.41,-87.28,1785098617246.649
1.096,-0.053,-0.235,41.75,127.23,-68.64,1785098617259.8828
1.259,0.05,-0.118,39.55,124.3,-47.79,1785098617265.818
1.455,0.118,0.013,38.06,117.34,-27.41,1785098617276.598
1.661,0.132,0.128,35.98,111.42,-12.15,1785098617289.844
1.82,0.166,0.242,32.72,107.64,-1.31,1785098617295.764
1.935,0.236,0.326,30.24,103.4,7.14,1785098617306.416
2.131,0.36,0.418,29.88,97.45,10.22,1785098617317.012
2.339,0.523,0.458,30.88,88.17,9.98,1785098617330.2961
2.51,0.691,0.48,31.25,77.7,8.7,1785098617336.193
2.607,0.822,0.454,35.8,66.41,3.72,1785098617346.4429
2.572,0.893,0.398,41.05,56.09,-5.52,1785098617357.0293
2.504,0.899,0.34,45.84,45.66,-14.16,1785098617370.2988
2.41,0.861,0.281,50.11,33.63,-22.83,1785098617376.2441
2.286,0.78,0.208,45.69,20.11,-34.73,1785098617386.798
2.105,0.674,0.144,24.78,9.03,-50.36,1785098617399.947
1.956,0.569,0.102,-10.38,1.5,-64.42,1785098617405.943
1.836,0.477,0.096,-49.84,-4.94,-69.73,1785098617416.1821
1.748,0.441,0.106,-82.95,-9.83,-68.76,1785098617426.714
1.728,0.367,0.134,-108.83,-14.16,-59.24,1785098617439.99
1.646,0.354,0.155,-122.62,-19.71,-44.71,1785098617445.924
1.581,0.385,0.155,-127.69,-24.14,-34.58,1785098617456.68
1.531,0.326,0.159,-132.36,-25.94,-20.69,1785098617470.022
1.458,0.253,0.154,-130.34,-26.95,-5.19,1785098617475.627
1.367,0.204,0.133,-120.52,-29.27,14.65,1785098617486.5977
1.265,0.163,0.099,-107.15,-34.67,38.03,1785098617499.8423
1.183,0.147,0.037,-95.74,-42.02,62.87,1785098617505.8848
1.087,0.151,-0.016,-90.3,-51.91,87.47,1785098617516.3572
0.975,0.067,-0.064,-85.51,-64.09,111.97,1785098617527.1199
0.845,-0.078,-0.113,-78.98,-77.12,134.22,1785098617540.4421
0.706,-0.191,-0.165,-73.82,-90.0,150.15,1785098617546.314
0.535,-0.278,-0.197,-73.21,-101.96,162.48,1785098617557.19
0.337,-0.337,-0.198,-75.78,-116.61,172.8,1785098617570.43
0.116,-0.372,-0.182,-75.35,-136.42,181.52,1785098617576.428
-0.07,-0.389,-0.174,-67.29,-161.57,190.31,1785098617589.92
-0.222,-0.39,-0.176,-53.38,-189.18,197.91,1785098617595.775
-0.416,-0.452,-0.216,-33.05,-215.43,200.29,1785098617606.904
-0.689,-0.652,-0.375,-10.62,-236.98,195.44,1785098617620.0728
-1.001,-0.787,-0.613,-3.97,-251.41,187.41,1785098617626.013
-1.168,-0.727,-0.808,-13.73,-255.75,188.88,1785098617636.941
-1.1,-0.756,-1.09,-15.2,-246.65,193.95,1785098617650.188
-1.063,-0.849,-1.457,-12.6,-222.05,176.31,1785098617656.3252
-1.092,-0.956,-1.85,-15.38,-182.07,141.88,1785098617667.1702
-0.996,-1.053,-2.107,-31.74,-126.41,108.43,1785098617680.423
-0.763,-1.085,-2.013,-58.96,-66.44,80.08,1785098617686.379
-0.526,-1.099,-1.635,-78.8,-19.07,52.98,1785098617697.053
-0.391,-1.049,-1.141,-84.96,13.21,23.5,1785098617710.287
-0.364,-0.955,-0.687,-75.72,31.71,-4.85,1785098617716.1812
-0.399,-0.854,-0.439,-48.4,37.69,-34.24,1785098617726.6619
-0.429,-0.756,-0.409,-8.24,39.52,-64.49,1785098617737.206
-0.435,-0.712,-0.511,37.97,43.31,-97.81,1785098617750.4482
-0.498,-0.701,-0.667,77.67,48.07,-137.27,1785098617756.5652
-0.636,-0.697,-0.832,99.67,54.72,-174.17,1785098617767.095
-0.784,-0.741,-0.906,104.34,64.12,-199.38,1785098617780.3591
-0.865,-0.821,-0.945,104.37,74.47,-212.71,1785098617786.376
-0.789,-0.958,-1.015,108.77,88.23,-217.93,1785098617799.766
-0.708,-0.987,-0.999,109.68,104.01,-216.86,1785098617805.846
-0.516,-0.946,-0.995,110.17,119.27,-205.82,1785098617817.0713
-0.345,-0.831,-0.931,106.05,131.99,-195.01,1785098617830.183
-0.242,-0.679,-0.807,93.02,139.56,-184.67,1785098617836.246
-0.2,-0.532,-0.664,75.11,143.22,-174.5,1785098617847.167
-0.173,-0.399,-0.501,63.3,142.67,-160.04,1785098617860.532
0.072,-0.428,-0.472,73.34,140.2,-147.19,1785098617866.467
0.397,-0.475,-0.519,95.68,143.22,-143.93,1785098617879.689
0.688,-0.362,-0.496,110.78,153.51,-137.52,1785098617885.773
0.954,-0.2,-0.41,113.44,163.0,-113.99,1785098617896.753
1.063,-0.113,-0.18,105.87,164.04,-74.19,1785098617910.059
1.18,-0.125,0.04,105.14,153.45,-29.91,1785098617916.074
1.172,-0.047,0.217,121.07,135.2,5.86,1785098617926.988
1.298,-0.034,0.333,148.87,120.0,39.46,1785098617940.358
1.61,0.041,0.372,163.82,111.82,55.48,1785098617946.219
1.858,0.169,0.465,154.27,111.18,59.02,1785098617959.7068
2.092,0.232,0.553,136.23,112.13,57.74,1785098617965.556
2.266,0.286,0.555,117.86,106.66,51.21,1785098617976.6929
2.392,0.348,0.501,96.29,95.07,43.24,1785098617989.918
2.484,0.402,0.422,76.36,77.0,37.57,1785098617995.6338
2.55,0.46,0.314,68.21,54.48,41.54,1785098618006.534
2.603,0.534,0.182,64.27,32.47,48.25,1785098618017.177
2.611,0.619,0.093,56.64,13.37,46.72,1785098618030.488
2.533,0.631,0.115,37.6,-2.9,35.95,1785098618036.4658
2.399,0.543,0.206,10.96,-14.8,15.44,1785098618046.842
2.254,0.409,0.294,-15.96,-22.06,-12.02,1785098618060.008
2.072,0.331,0.345,-43.58,-26.37,-39.22,1785098618065.981
1.992,0.316,0.391,-67.32,-26.28,-67.11,1785098618076.534
1.903,0.181,0.403,-81.55,-24.99,-80.26,1785098618087.1099
1.817,0.169,0.328,-79.68,-27.13,-80.78,1785098618100.4028
1.771,0.199,0.259,-79.68,-26.95,-83.83,1785098618106.392
1.681,0.106,0.228,-87.5,-25.3,-79.71,1785098618116.833
1.617,0.052,0.237,-89.88,-23.68,-71.26,1785098618130.131
1.617,0.052,0.237,-84.75,-23.07,-56.0,1785098618136.3242
1.538,-0.012,0.238,-79.44,-23.41,-39.4,1785098618146.579
1.477,-0.051,0.22,-77.88,-22.83,-19.23,1785098618157.196
1.434,-0.094,0.23,-75.17,-23.71,5.19,1785098618170.512
1.351,-0.175,0.25,-69.09,-29.05,26.06,1785098618176.3552
1.262,-0.289,0.245,-69.09,-29.05,26.06,1785098618186.825
1.193,-0.369,0.17,-66.77,-37.9,39.52,1785098618200.0698
1.114,-0.378,0.084,-77.21,-45.41,45.66,1785098618206.0051
1.017,-0.365,0.029,-93.78,-50.9,52.64,1785098618216.4941
0.889,-0.355,-0.021,-104.46,-55.15,63.91,1785098618227.222
0.732,-0.345,-0.037,-104.77,-60.0,80.45,1785098618240.4722
0.603,-0.368,-0.031,-94.03,-68.42,101.29,1785098618246.437
0.444,-0.522,-0.061,-69.64,-81.24,119.79,1785098618257.229
0.181,-0.629,-0.119,-45.41,-95.92,127.87,1785098618270.457
0.008,-0.61,-0.181,-32.26,-107.88,136.23,1785098618276.395
-0.057,-0.574,-0.242,-26.86,-120.18,152.41,1785098618289.7908
-0.152,-0.611,-0.311,-22.77,-137.73,166.78,1785098618295.727
-0.305,-0.619,-0.38,-23.93,-157.11,173.31,1785098618306.818
-0.463,-0.652,-0.474,-27.41,-169.71,175.73,1785098618320.03
-0.633,-0.786,-0.598,-26.37,-175.21,172.25,1785098618325.9722
-0.778,-0.889,-0.76,-28.23,-175.57,162.36,1785098618336.988
-0.8,-0.897,-0.952,-33.75,-166.36,151.37,1785098618350.21
-0.731,-0.952,-1.163,-34.49,-147.16,136.08,1785098618356.171
-0.695,-1.078,-1.36,-32.69,-122.38,109.16,1785098618367.198
-0.664,-1.18,-1.546,-37.75,-93.51,73.58,1785098618380.428
-0.598,-1.18,-1.622,-55.02,-60.15,38.21,1785098618386.376
-0.486,-1.163,-1.561,-72.63,-25.7,5.77,1785098618396.8179
-0.441,-1.171,-1.37,-80.26,7.26,-28.99,1785098618410.069
-0.499,-1.13,-1.078,-72.42,33.72,-61.59,1785098618415.972
-0.598,-1.062,-0.814,-40.56,51.09,-89.36,1785098618426.412
-0.678,-0.965,-0.723,11.84,62.35,-113.28,1785098618437.148
-0.673,-0.919,-0.795,68.82,73.73,-133.61,1785098618450.4268
-0.636,-0.824,-0.85,105.38,85.06,-154.82,1785098618456.429
-0.623,-0.77,-0.852,124.73,93.87,-170.42,1785098618467.296
-0.6,-0.781,-0.848,133.73,99.34,-182.04,1785098618480.412
-0.54,-0.772,-0.815,133.0,105.2,-193.52,1785098618486.615
-0.432,-0.733,-0.821,125.49,112.77,-203.07,1785098618500.0588
-0.317,-0.639,-0.78,108.92,119.79,-206.92,1785098618506.1528
-0.211,-0.517,-0.678,89.48,124.0,-200.05,1785098618517.194
-0.126,-0.447,-0.548,81.03,126.38,-186.77,1785098618530.427
0.034,-0.461,-0.464,91.49,129.55,-174.72,1785098618536.4138
0.201,-0.454,-0.466,113.25,134.74,-168.1,1785098618549.8508
0.357,-0.323,-0.406,128.42,143.59,-154.91,1785098618555.8872
0.581,-0.208,-0.291,135.99,151.31,-130.47,1785098618567.096
0.751,-0.131,-0.207,135.5,152.75,-106.3,1785098618580.399
0.84,-0.062,-0.001,127.54,151.92,-87.34,1785098618586.319
0.961,-0.081,0.184,133.06,149.91,-71.02,1785098618599.8652
1.195,-0.094,0.269,148.38,149.17,-55.06,1785098618605.8938
1.401,0.034,0.369,148.2,148.35,-37.48,1785098618616.7979
1.566,0.21,0.545,130.92,143.8,-19.87,1785098618630.054
1.758,0.323,0.697,107.36,134.86,-11.81,1785098618636.0698
1.869,0.396,0.86,84.75,128.3,-14.95,1785098618646.921
1.959,0.425,0.935,66.96,123.36,-17.98,1785098618660.218
2.106,0.605,0.943,49.04,116.34,-17.7,1785098618666.1958
2.236,0.766,0.907,33.45,104.13,-9.92,1785098618676.814
2.296,0.959,0.864,20.05,87.44,-5.16,1785098618690.1592
2.304,1.124,0.806,13.12,69.19,2.96,1785098618696.013
2.239,1.163,0.769,16.79,49.96,12.97,1785098618706.3857
2.171,1.121,0.715,31.43,31.5,19.75,1785098618717.365
2.093,0.978,0.65,45.01,15.23,22.92,1785098618730.239
1.998,0.83,0.578,43.67,-1.07,18.92,1785098618736.332
1.894,0.713,0.489,23.16,-19.14,7.81,1785098618746.5432
1.77,0.578,0.427,-9.67,-36.16,-4.27,1785098618757.0032
1.655,0.456,0.371,-40.38,-49.84,-10.71,1785098618770.303
1.561,0.383,0.318,-62.04,-59.02,-9.92,1785098618776.3179
1.469,0.318,0.281,-77.09,-63.69,-1.5,1785098618786.524
1.391,0.267,0.251,-87.28,-63.69,8.55,1785098618797.072
1.349,0.211,0.239,-95.95,-62.29,19.75,1785098618810.3528
1.324,0.21,0.238,-102.54,-62.17,29.48,1785098618816.2551
1.299,0.201,0.241,-110.11,-61.13,34.52,1785098618827.014
1.273,0.113,0.274,-117.98,-60.55,46.21,1785098618840.3079
1.212,0.043,0.279,-117.1,-61.77,64.73,1785098618846.25
1.156,0.022,0.267,-113.41,-62.9,82.98,1785098618856.969
1.113,-0.026,0.26,-113.65,-65.34,96.53,1785098618870.1958
1.052,-0.121,0.229,-116.49,-69.55,105.69,1785098618876.1643
0.989,-0.206,0.177,-121.59,-73.52,112.74,1785098618887.1318
0.93,-0.264,0.132,-129.61,-79.78,122.29,1785098618900.341
0.848,-0.316,0.097,-136.14,-87.56,134.8,1785098618906.411
0.7,-0.388,0.078,-131.05,-93.72,145.24,1785098618917.3179
0.537,-0.527,0.038,-113.25,-97.84,149.82,1785098618930.5642
0.408,-0.66,-0.049,-96.59,-105.47,151.71,1785098618936.537
0.31,-0.668,-0.122,-90.52,-119.54,157.72,1785098618949.9678
0.198,-0.631,-0.16,-89.14,-139.23,168.25,1785098618956.0981
0.031,-0.66,-0.152,-84.32,-160.16,176.15,1785098618966.9277
-0.165,-0.807,-0.16,-68.73,-177.47,178.53,1785098618980.267
-0.347,-0.918,-0.279,-48.1,-188.48,171.61,1785098618986.2102
-0.52,-0.99,-0.482,-32.04,-194.07,162.02,1785098618997.206
-0.591,-1.018,-0.733,-28.78,-196.6,155.74,1785098619010.514
-0.608,-1.01,-0.95,-40.41,-192.42,147.83,1785098619017.491
-0.643,-1.09,-1.145,-56.34,-179.54,136.85,1785098619034.338
-0.707,-1.238,-1.381,-70.77,-159.15,119.39,1785098619035.5562
-0.732,-1.335,-1.629,-83.93,-127.63,92.5,1785098619046.4858
-0.651,-1.378,-1.78,-93.05,-85.15,57.68,1785098619059.9238
-0.568,-1.381,-1.732,-100.28,-40.93,15.47,1785098619065.469
-0.55,-1.298,-1.476,-107.55,-2.66,-25.7,1785098619076.4338
-0.53,-1.219,-1.126,-98.85,27.28,-58.38,1785098619087.241
-0.533,-1.106,-0.887,-71.29,47.18,-86.61,1785098619100.4072
-0.518,-0.97,-0.783,-33.48,62.23,-110.48,1785098619106.3892
-0.527,-0.855,-0.745,5.31,72.24,-133.79,1785098619116.9531
-0.557,-0.786,-0.731,39.0,79.1,-154.21,1785098619130.065
-0.552,-0.852,-0.798,67.54,84.41,-172.77,1785098619136.2231
-0.626,-0.834,-0.801,79.32,91.49,-188.51,1785098619146.932
-0.571,-0.788,-0.794,83.5,101.35,-187.69,1785098619160.176
-0.386,-0.723,-0.736,87.77,111.27,-184.67,1785098619166.105
-0.214,-0.674,-0.701,94.55,117.5,-181.28,1785098619177.197
-0.028,-0.642,-0.672,98.39,124.21,-174.96,1785098619190.409
0.076,-0.569,-0.574,95.61,128.36,-166.3,1785098619196.351
0.152,-0.518,-0.479,92.2,127.72,-154.18,1785098619209.9631
0.154,-0.426,-0.367,87.8,123.29,-142.58,1785098619215.7812
0.217,-0.384,-0.273,89.3,117.89,-129.92,1785098619226.868
0.471,-0.376,-0.296,95.86,116.4,-121.62,1785098619240.037
0.634,-0.271,-0.218,96.87,117.25,-113.07,1785098619246.01
0.82,-0.183,-0.117,101.54,118.26,-91.92,1785098619257.011
1.013,-0.165,-0.026,112.0,122.1,-63.75,1785098619270.262
1.138,-0.123,0.109,121.68,123.26,-35.04,1785098619276.24
1.222,-0.047,0.257,130.71,119.69,-8.73,1785098619287.179
1.313,0.037,0.362,133.21,113.9,9.46,1785098619300.3562
1.445,0.097,0.483,121.98,106.57,18.19,1785098619306.4001
1.606,0.086,0.539,106.81,101.63,20.63,1785098619317.264
1.813,0.092,0.571,88.9,101.05,25.24,1785098619330.555
1.989,0.166,0.584,70.35,99.77,34.3,1785098619336.492
2.122,0.273,0.57,54.48,97.02,44.62,1785098619347.049
2.137,0.361,0.571,33.63,89.11,53.19,1785098619360.31
2.15,0.448,0.569,9.03,76.57,54.02,1785098619366.241
2.166,0.483,0.544,-10.32,63.45,48.92,1785098619376.679
2.211,0.543,0.487,-25.88,49.84,40.38,1785098619389.955
2.228,0.483,0.445,-35.8,32.01,42.97,1785098619395.8599
2.183,0.457,0.373,-40.8,9.31,46.63,1785098619406.3252
2.163,0.5,0.331,-51.15,-10.07,31.68,1785098619416.9412
2.163,0.5,0.331,-68.12,-26.55,12.02,1785098619430.157
2.043,0.408,0.339,-80.6,-41.02,-8.45,1785098619436.097
1.931,0.311,0.3,-88.53,-50.26,-28.29,1785098619446.567
1.787,0.274,0.265,-97.72,-51.79,-43.58,1785098619457.1672
1.695,0.225,0.232,-105.9,-53.07,-49.35,1785098619470.4548
1.58,0.186,0.239,-105.9,-53.07,-49.35,1785098619476.0352
1.541,0.136,0.232,-108.04,-55.09,-48.46,1785098619487.1428
1.518,0.105,0.243,-111.88,-56.18,-45.56,1785098619500.418
1.439,0.044,0.286,-119.57,-58.2,-37.11,1785098619506.1829
1.402,-0.013,0.32,-126.35,-60.46,-28.93,1785098619517.129
1.381,-0.066,0.354,-132.69,-66.16,-17.61,1785098619530.3628
1.324,-0.08,0.361,-135.84,-74.77,-3.3,1785098619536.291
1.275,-0.023,0.347,-136.51,-79.62,5.22,1785098619546.907
1.216,-0.002,0.33,-137.97,-83.68,15.5,1785098619560.196
1.157,-0.032,0.28,-136.02,-91.49,29.79,1785098619566.101
1.095,-0.104,0.21,-127.93,-95.86,38.3,1785098619576.93
1.054,-0.191,0.142,-121.77,-99.52,45.84,1785098619590.228
0.978,-0.271,0.09,-118.99,-109.41,62.81,1785098619596.171
0.761,-0.364,0.033,-110.05,-121.92,81.36,1785098619607.064
0.582,-0.476,-0.049,-97.29,-131.32,94.7,1785098619620.3188
0.419,-0.474,-0.153,-93.94,-139.41,101.35,1785098619626.2842
0.282,-0.382,-0.224,-104.07,-147.04,110.08,1785098619637.355
0.208,-0.297,-0.235,-116.64,-156.8,124.12,1785098619650.513
0.101,-0.326,-0.248,-118.17,-175.12,134.19,1785098619656.6292
-0.092,-0.436,-0.303,-113.22,-199.56,137.94,1785098619670.1638
-0.345,-0.561,-0.411,-109.26,-221.02,140.66,1785098619676.152
-0.583,-0.605,-0.541,-109.23,-235.36,149.05,1785098619687.4321
-0.686,-0.614,-0.677,-106.88,-242.84,162.6,1785098619700.638
-0.757,-0.584,-0.89,-101.9,-245.58,167.46,1785098619706.738
-0.895,-0.559,-1.173,-102.6,-237.56,162.05,1785098619720.211
-1.038,-0.577,-1.512,-114.26,-215.55,150.36,1785098619726.197
-1.122,-0.615,-1.836,-133.3,-178.53,133.88,1785098619739.861
-1.107,-0.686,-1.993,-150.46,-130.31,115.02,1785098619745.7832
-0.97,-0.787,-1.936,-160.28,-82.77,92.87,1785098619756.8618
-0.777,-0.888,-1.656,-155.58,-42.42,65.65,1785098619770.0522
-0.609,-0.972,-1.318,-128.61,-9.0,36.77,1785098619776.0361
-0.538,-1.036,-1.008,-81.91,19.07,9.67,1785098619786.488
-0.572,-1.014,-0.778,-26.09,37.2,-17.06,1785098619797.152
-0.62,-0.902,-0.699,30.43,48.13,-40.86,1785098619810.425
-0.669,-0.796,-0.755,83.1,58.32,-66.62,1785098619816.339
-0.743,-0.768,-0.878,119.82,67.87,-102.73,1785098619827.075
-0.871,-0.739,-0.929,129.89,76.11,-142.34,1785098619840.427
-0.93,-0.741,-1.021,122.2,85.94,-168.25,1785098619846.2988
-0.849,-0.753,-1.069,104.86,99.92,-180.09,1785098619857.4321
-0.683,-0.797,-1.037,88.44,112.89,-184.85,1785098619870.521
-0.592,-0.826,-0.999,77.88,117.59,-189.64,1785098619876.5251
-0.507,-0.837,-0.988,72.51,122.2,-189.25,1785098619889.993
-0.377,-0.773,-0.912,68.36,131.53,-183.51,1785098619895.8972
-0.182,-0.698,-0.829,71.54,139.71,-172.31,1785098619907.021
0.063,-0.609,-0.745,74.28,144.66,-159.86,1785098619920.288
0.202,-0.415,-0.618,68.76,141.3,-146.82,1785098619926.186
0.238,-0.263,-0.521,67.81,131.38,-126.93,1785098619937.182
0.503,-0.291,-0.526,74.22,126.01,-106.91,1785098619950.3948
0.786,-0.223,-0.452,75.56,123.11,-97.99,1785098619956.528
1.035,-0.138,-0.387,75.38,121.28,-81.91,1785098619967.17
1.258,-0.09,-0.328,70.65,119.42,-52.37,1785098619980.4531
1.363,0.012,-0.203,62.56,108.58,-16.45,1785098619986.3801
1.413,0.116,-0.095,63.33,92.23,19.35,1785098619997.058
1.59,0.201,-0.016,71.84,78.98,44.07,1785098620010.304
1.782,0.318,0.041,75.05,68.76,55.02,1785098620016.22
2.021,0.37,0.067,74.65,66.26,56.31,1785098620028.281
2.213,0.366,0.092,73.55,69.37,47.82,1785098620040.179
2.338,0.376,0.099,73.06,70.89,40.77,1785098620046.251
2.446,0.413,0.045,77.76,70.59,36.13,1785098620056.5051
2.49,0.452,-0.027,81.45,62.69,33.78,1785098620067.168
2.485,0.432,-0.092,81.3,50.51,35.19,1785098620080.409
2.458,0.421,-0.138,76.05,44.65,31.83,1785098620086.4329
2.39,0.381,-0.137,57.99,43.82,16.27,1785098620096.8289
2.285,0.306,-0.062,23.93,42.82,-8.36,1785098620110.021
2.143,0.192,0.036,-16.45,41.08,-34.0,1785098620115.9229
1.997,0.122,0.097,-52.86,36.56,-55.64,1785098620126.401
1.874,0.112,0.127,-79.96,29.48,-70.8,1785098620137.0728
1.757,0.112,0.171,-97.2,22.55,-79.78,1785098620150.292
1.641,0.072,0.196,-99.25,18.65,-83.19,1785098620156.38
1.581,0.023,0.145,-88.47,18.86,-85.33,1785098620166.815
1.519,-0.028,0.102,-78.25,17.58,-86.73,1785098620180.043
1.478,-0.113,0.082,-72.15,13.12,-85.7,1785098620185.9673
1.433,-0.196,0.062,-68.39,6.16,-77.88,1785098620196.358
1.394,-0.217,0.048,-66.1,-1.8,-64.27,1785098620206.985
1.371,-0.166,0.041,-65.77,-9.74,-48.83,1785098620220.288
1.345,-0.083,0.038,-68.82,-18.01,-32.72,1785098620226.182
1.337,-0.004,0.049,-73.0,-24.6,-16.85,1785098620236.5718
1.301,0.031,0.058,-75.62,-30.09,0.85,1785098620247.113
1.194,0.02,0.056,-75.72,-38.15,21.12,1785098620260.3892
1.068,-0.04,0.044,-71.05,-49.1,42.45,1785098620266.295
0.902,-0.141,0.011,-63.97,-63.63,61.89,1785098620276.8508
0.739,-0.171,-0.043,-59.14,-79.96,78.77,1785098620290.05
0.635,-0.15,-0.114,-55.97,-95.89,96.16,1785098620296.009
0.52,-0.148,-0.171,-53.41,-114.41,113.68,1785098620306.7131
0.37,-0.203,-0.245,-49.1,-135.07,128.51,1785098620319.993
0.214,-0.285,-0.319,-46.36,-153.6,140.11,1785098620326.2131
0.053,-0.33,-0.322,-46.42,-170.14,151.1,1785098620337.155
-0.149,-0.341,-0.271,-43.18,-191.99,165.62,1785098620350.161
-0.373,-0.363,-0.241,-32.38,-215.46,179.39,1785098620356.2932
-0.61,-0.413,-0.301,-20.11,-239.91,189.58,1785098620367.179
-0.905,-0.46,-0.437,-12.82,-263.56,192.66,1785098620380.503
-1.081,-0.556,-0.659,-15.99,-279.95,194.13,1785098620386.398
-1.197,-0.627,-1.011,-29.79,-279.21,186.25,1785098620399.8188
-1.234,-0.643,-1.366,-50.05,-252.85,170.6,1785098620405.85
-1.191,-0.692,-1.716,-71.81,-212.04,150.55,1785098620416.8179
-1.039,-0.699,-1.992,-92.38,-156.41,114.44,1785098620430.027
-0.785,-0.719,-2.138,-115.36,-104.95,75.23,1785098620436.003
-0.524,-0.814,-2.004,-140.54,-60.4,42.42,1785098620446.9558
-0.367,-0.918,-1.567,-154.45,-15.35,13.67,1785098620460.163
-0.331,-0.996,-1.061,-139.32,24.08,-12.82,1785098620466.11
-0.353,-1.03,-0.662,-93.26,48.19,-37.23,1785098620476.5818
-0.437,-0.953,-0.437,-26.64,56.7,-64.09,1785098620490.083
-0.499,-0.826,-0.457,47.7,58.5,-91.4,1785098620496.0142
-0.572,-0.725,-0.607,109.71,60.73,-123.17,1785098620506.759
-0.673,-0.643,-0.815,140.35,67.02,-158.54,1785098620519.9622
-0.75,-0.608,-0.996,139.53,79.59,-189.0,1785098620525.9858
-0.83,-0.599,-1.098,120.12,94.09,-209.94,1785098620536.9038
-0.837,-0.645,-1.122,97.26,108.86,-215.55,1785098620550.187
-0.73,-0.681,-1.071,78.86,123.11,-212.74,1785098620556.194
-0.585,-0.726,-0.981,73.03,135.81,-204.08,1785098620567.152
-0.368,-0.75,-0.975,77.82,147.65,-197.64,1785098620580.405
-0.21,-0.621,-0.946,76.05,153.81,-190.04,1785098620586.361
-0.076,-0.446,-0.814,69.4,156.71,-171.79,1785098620599.8281
0.033,-0.342,-0.678,70.93,156.04,-151.16,1785098620605.882
0.17,-0.28,-0.641,81.39,156.01,-134.34,1785098620616.9011
0.358,-0.198,-0.611,93.33,156.96,-120.55,1785098620630.078
0.583,-0.15,-0.626,101.02,156.77,-110.72,1785098620636.051
0.773,-0.053,-0.526,93.69,155.13,-97.63,1785098620647.0598
1.021,-0.06,-0.378,84.84,152.29,-76.51,1785098620660.275
1.166,-0.065,-0.223,77.33,144.81,-53.25,1785098620667.3113
1.243,-0.01,-0.044,74.43,135.26,-22.31,1785098620677.396
1.267,0.058,0.064,82.43,125.4,10.04,1785098620690.33
1.428,0.121,0.112,91.19,118.96,35.43,1785098620696.2659
1.631,0.178,0.181,88.41,111.82,48.13,1785098620706.979
1.631,0.178,0.181,71.11,105.26,52.61,1785098620720.209
1.867,0.255,0.244,55.54,101.93,54.63,1785098620726.1719
2.021,0.28,0.299,50.26,96.5,55.79,1785098620736.806
2.12,0.275,0.286,48.71,88.02,56.31,1785098620750.044
2.126,0.304,0.254,48.71,88.02,56.31,1785098620756.0361
2.142,0.324,0.215,47.94,79.23,56.18,1785098620766.52
2.144,0.31,0.168,47.43,68.7,55.82,1785098620777.148
2.126,0.315,0.165,43.86,55.21,57.34,1785098620790.481
2.113,0.373,0.2,36.62,41.32,53.65,1785098620796.3308
2.08,0.452,0.256,19.84,29.27,38.3,1785098620806.888
2.004,0.393,0.33,-7.9,18.8,14.65,1785098620820.113
1.882,0.146,0.338,-36.47,-1.68,2.96,1785098620826.05
1.754,0.144,0.311,-49.56,-25.73,3.17,1785098620836.192
1.67,0.255,0.24,-52.61,-34.33,-3.27,1785098620846.846
1.631,0.26,0.166,-60.85,-32.07,-18.71,1785098620860.068
1.476,0.219,0.112,-69.15,-28.63,-36.68,1785098620865.969
1.547,0.093,0.133,-71.14,-20.78,-44.77,1785098620876.492
1.448,-0.027,0.093,-64.61,-28.9,-41.51,1785098620887.1592
1.322,-0.064,0.042,-56.46,-39.34,-34.12,1785098620900.3708
1.312,-0.017,0.014,-57.89,-37.97,-33.45,1785098620906.438
1.415,-0.038,-0.004,-70.65,-32.47,-32.29,1785098620917.13
1.424,-0.065,-0.033,-85.48,-43.09,-29.82,1785098620930.1372
1.241,-0.127,-0.014,-87.65,-56.61,-19.17,1785098620936.0781
1.166,-0.233,-0.01,-74.92,-54.08,-3.6,1785098620946.462
1.176,-0.301,-0.079,-59.69,-50.63,5.34,1785098620957.018
1.117,-0.33,-0.16,-54.11,-58.53,13.25,1785098620970.239
1.082,-0.309,-0.209,-54.08,-63.57,20.48,1785098620976.2603
1.1,-0.288,-0.248,-53.83,-66.44,27.28,1785098620986.8071
1.047,-0.256,-0.269,-54.02,-73.09,36.9,1785098620999.9849
0.974,-0.252,-0.255,-49.62,-77.7,51.36,1785098621005.586
0.887,-0.362,-0.254,-36.5,-82.46,65.74,1785098621016.4639
0.73,-0.494,-0.29,-24.23,-90.18,75.93,1785098621027.0688
