ax,ay,az,gx,gy,gz,timestamp_ms
0.499,-1.412,-0.39,39.7,-12.33,173.07,1785098650578.561
0.487,-1.401,-0.445,47.4,-6.78,166.57,1785098650578.819
0.471,-1.386,-0.467,43.43,0.24,157.69,1785098650579.0457
0.465,-1.424,-0.457,34.52,7.29,148.35,1785098650579.2798
0.553,-1.508,-0.425,25.82,11.9,142.22,1785098650579.509
0.565,-1.379,-0.374,22.83,19.87,121.86,1785098650579.772
0.49,-1.247,-0.38,20.69,27.38,102.76,1785098650580.031
0.475,-1.268,-0.374,11.17,27.5,98.21,1785098650580.273
0.512,-1.315,-0.318,-1.62,26.43,95.46,1785098650580.487
0.494,-1.324,-0.275,-6.41,26.64,92.04,1785098650580.696
0.524,-1.319,-0.251,-0.06,28.29,91.34,1785098650580.9128
0.492,-1.257,-0.248,9.58,28.66,82.0,1785098650581.126
0.532,-1.221,-0.258,14.28,27.38,74.1,1785098650581.393
0.507,-1.125,-0.257,12.79,26.73,58.53,1785098650581.645
0.467,-1.108,-0.247,7.9,27.38,49.78,1785098650581.865
0.517,-1.15,-0.228,3.05,24.87,46.75,1785098650582.081
0.465,-1.106,-0.204,0.79,22.74,33.02,1785098650582.298
0.445,-1.132,-0.205,3.17,22.4,24.96,1785098650582.51
0.449,-1.158,-0.208,6.29,20.39,16.6,1785098650582.722
0.422,-1.11,-0.214,8.0,19.01,3.02,1785098650582.93
0.399,-1.074,-0.222,7.63,18.98,-7.26,1785098650583.1418
0.395,-1.078,-0.218,3.85,18.22,-13.18,1785098650583.356
0.386,-1.07,-0.206,-1.86,16.42,-20.17,1785098650583.5679
0.363,-1.059,-0.195,-7.84,14.83,-27.38,1785098650583.784
0.345,-1.067,-0.189,-13.43,13.49,-32.93,1785098650584.003
0.326,-1.072,-0.179,-19.62,11.81,-38.12,1785098650584.218
0.318,-1.067,-0.171,-24.48,10.01,-43.37,1785098650584.435
0.303,-1.051,-0.164,-27.62,8.51,-48.37,1785098650584.6392
0.287,-1.051,-0.16,-28.78,6.84,-52.06,1785098650584.8489
0.273,-1.054,-0.151,-29.27,4.52,-55.76,1785098650585.06
0.262,-1.069,-0.143,-28.96,2.17,-59.42,1785098650585.273
0.248,-1.087,-0.134,-27.74,0.18,-63.75,1785098650585.486
0.224,-1.098,-0.135,-26.09,-2.66,-68.33,1785098650585.699
0.209,-1.113,-0.136,-24.08,-6.07,-70.93,1785098650585.912
0.199,-1.115,-0.137,-22.03,-8.7,-73.46,1785098650586.124
0.18,-1.1,-0.141,-20.69,-11.75,-75.72,1785098650586.371
0.181,-1.111,-0.145,-18.83,-15.05,-76.05,1785098650586.596
0.178,-1.136,-0.158,-15.56,-17.7,-77.79,1785098650586.809
0.152,-1.129,-0.17,-12.02,-19.93,-80.54,1785098650587.021
0.137,-1.106,-0.185,-8.3,-21.61,-81.42,1785098650587.2341
0.134,-1.065,-0.201,-6.01,-23.62,-81.39,1785098650587.457
0.135,-1.015,-0.213,-6.68,-24.78,-81.42,1785098650587.684
0.134,-0.982,-0.209,-9.55,-25.06,-81.7,1785098650587.9
0.13,-0.987,-0.205,-12.97,-26.03,-82.19,1785098650588.1128
0.12,-0.998,-0.189,-15.69,-27.62,-81.82,1785098650588.325
0.116,-1.012,-0.173,-15.2,-29.76,-79.99,1785098650588.5342
0.114,-1.023,-0.161,-9.89,-31.8,-77.7,1785098650588.7393
0.109,-1.018,-0.155,-0.89,-34.0,-75.38,1785098650588.948
0.108,-1.004,-0.169,10.19,-36.29,-73.27,1785098650589.1562
0.107,-0.976,-0.201,19.96,-37.6,-71.75,1785098650589.365
0.105,-0.937,-0.221,26.58,-38.12,-69.49,1785098650589.598
0.111,-0.904,-0.242,30.09,-38.42,-67.23,1785098650589.8362
0.124,-0.881,-0.245,31.07,-38.24,-65.58,1785098650590.061
0.13,-0.871,-0.24,30.18,-37.97,-65.25,1785098650590.2688
0.13,-0.871,-0.24,29.24,-37.54,-65.07,1785098650590.483
0.13,-0.881,-0.229,29.88,-37.93,-63.66,1785098650590.6948
0.122,-0.904,-0.205,33.14,-39.37,-60.4,1785098650590.9053
0.121,-0.923,-0.176,39.34,-41.47,-56.49,1785098650591.1118
0.124,-0.923,-0.148,47.27,-44.16,-52.86,1785098650591.3223
0.129,-0.913,-0.128,47.27,-44.16,-52.86,1785098650591.53
0.131,-0.88,-0.114,54.6,-47.3,-49.53,1785098650591.74
0.138,-0.865,-0.1,61.22,-50.54,-45.84,1785098650591.944
0.141,-0.863,-0.091,66.13,-54.17,-42.88,1785098650592.153
0.144,-0.868,-0.095,70.47,-58.08,-40.38,1785098650592.36
0.147,-0.879,-0.128,75.08,-61.31,-37.93,1785098650592.565
0.156,-0.868,-0.161,77.88,-63.11,-34.64,1785098650592.774
0.169,-0.855,-0.195,79.53,-64.12,-29.57,1785098650592.983
0.18,-0.836,-0.22,79.29,-64.24,-24.14,1785098650593.19
0.192,-0.808,-0.231,77.27,-63.88,-18.37,1785098650593.392
0.21,-0.795,-0.236,75.38,-62.35,-12.45,1785098650593.604
0.219,-0.796,-0.238,71.35,-60.73,-8.33,1785098650593.812
0.237,-0.799,-0.221,65.0,-60.67,-6.23,1785098650594.016
0.23,-0.805,-0.247,58.38,-61.25,-6.99,1785098650594.219
0.238,-0.828,-0.25,51.88,-58.47,-2.08,1785098650594.423
0.272,-0.863,-0.244,48.37,-54.08,4.09,1785098650594.6309
0.28,-0.863,-0.263,44.62,-52.25,6.23,1785098650594.837
0.288,-0.843,-0.265,38.58,-49.9,8.42,1785098650595.0378
0.302,-0.845,-0.267,32.65,-46.78,12.02,1785098650595.2483
0.311,-0.837,-0.268,25.97,-45.05,16.02,1785098650595.4531
0.318,-0.835,-0.254,19.07,-44.19,18.71,1785098650595.657
0.334,-0.876,-0.229,16.97,-43.06,20.94,1785098650595.863
0.35,-0.942,-0.242,22.64,-41.81,21.97,1785098650596.069
0.354,-0.952,-0.256,30.34,-40.8,22.19,1785098650596.292
0.358,-0.927,-0.262,38.0,-41.66,23.87,1785098650596.499
0.371,-0.931,-0.267,45.69,-41.02,25.21,1785098650596.707
0.378,-0.963,-0.272,52.61,-38.91,24.72,1785098650596.915
0.365,-0.986,-0.276,56.31,-37.57,22.71,1785098650597.12
0.356,-0.975,-0.266,56.0,-37.51,22.61,1785098650597.3242
0.361,-0.981,-0.262,54.69,-37.51,24.02,1785098650597.5308
0.355,-0.997,-0.256,51.42,-36.47,23.41,1785098650597.74
0.359,-1.03,-0.241,46.42,-35.34,20.57,1785098650597.9468
0.372,-1.069,-0.231,41.66,-34.24,16.88,1785098650598.1519
0.374,-1.07,-0.222,37.08,-33.3,12.7,1785098650598.361
0.385,-1.045,-0.214,31.92,-33.36,9.83,1785098650598.5688
0.377,-1.007,-0.193,26.49,-33.05,6.84,1785098650598.7708
0.37,-1.004,-0.174,21.82,-32.07,4.58,1785098650598.979
0.362,-1.004,-0.16,16.21,-31.68,1.43,1785098650599.187
0.354,-1.004,-0.149,10.8,-30.95,-1.22,1785098650599.3918
0.355,-1.015,-0.146,7.51,-29.88,-3.72,1785098650599.594
0.348,-1.013,-0.145,5.19,-28.78,-6.5,1785098650599.7979
0.346,-1.008,-0.137,3.91,-27.19,-7.35,1785098650600.001
0.346,-1.001,-0.128,3.91,-25.48,-7.81,1785098650600.2031
0.336,-0.989,-0.124,4.24,-23.71,-8.3,1785098650600.405
0.335,-0.972,-0.122,3.39,-21.94,-8.27,1785098650600.612
0.326,-0.947,-0.123,1.31,-20.51,-7.87,1785098650600.815
0.323,-0.93,-0.124,-0.92,-18.74,-6.1,1785098650601.016
0.322,-0.911,-0.116,-3.6,-16.94,-5.28,1785098650601.2642
0.318,-0.907,-0.102,-7.26,-15.44,-4.36,1785098650601.5051
0.314,-0.928,-0.09,-10.07,-14.28,-2.99,1785098650601.708
0.312,-0.946,-0.089,-12.3,-13.4,-2.93,1785098650601.92
0.308,-0.94,-0.086,-13.43,-12.24,-3.85,1785098650602.132
0.305,-0.94,-0.097,-13.37,-10.86,-3.6,1785098650602.341
0.303,-0.936,-0.096,-14.44,-8.88,-1.83,1785098650602.546
0.297,-0.922,-0.09,-15.66,-6.99,-0.73,1785098650602.752
0.291,-0.926,-0.088,-16.36,-4.97,-0.37,1785098650602.9592
0.293,-0.947,-0.083,-17.49,-2.87,-0.37,1785098650603.1658
0.289,-0.961,-0.081,-18.98,-1.1,-1.43,1785098650603.3708
0.286,-0.961,-0.078,-21.06,0.15,-1.8,1785098650603.5789
0.286,-0.944,-0.076,-22.77,1.34,-0.92,1785098650603.783
0.293,-0.951,-0.075,-22.58,3.05,0.85,1785098650603.9832
0.294,-0.968,-0.079,-21.58,4.55,1.25,1785098650604.194
0.294,-0.986,-0.097,-19.38,5.98,0.76,1785098650604.4001
0.28,-0.984,-0.115,-15.87,7.93,1.46,1785098650604.611
0.27,-0.948,-0.13,-12.39,9.77,4.46,1785098650604.814
0.277,-0.93,-0.157,-8.73,11.29,7.32,1785098650605.023
0.272,-0.934,-0.155,-7.05,12.97,7.63,1785098650605.227
0.273,-0.951,-0.146,-6.01,14.77,7.9,1785098650605.448
0.276,-0.971,-0.138,-5.68,16.39,8.7,1785098650605.692
0.271,-0.958,-0.142,-6.47,17.03,9.7,1785098650605.918
0.267,-0.938,-0.15,-7.66,16.91,11.08,1785098650606.145
0.264,-0.926,-0.153,-10.22,16.33,12.63,1785098650606.3699
0.266,-0.919,-0.148,-13.58,15.99,15.08,1785098650606.594
0.269,-0.931,-0.147,-14.68,15.23,17.79,1785098650606.827
0.265,-0.945,-0.156,-12.57,14.19,19.01,1785098650607.053
0.267,-0.951,-0.178,-8.48,14.16,19.35,1785098650607.272
0.259,-0.98,-0.202,-2.44,14.62,18.62,1785098650607.494
0.251,-0.999,-0.208,1.16,15.23,16.57,1785098650607.719
0.257,-0.981,-0.208,3.94,16.39,14.77,1785098650607.9358
0.267,-0.958,-0.212,5.58,17.43,15.56,1785098650608.1592
0.269,-0.955,-0.213,4.91,18.77,16.54,1785098650608.381
0.278,-0.981,-0.202,3.17,19.68,16.97,1785098650608.604
0.276,-0.996,-0.178,1.31,19.9,15.59,1785098650608.824
0.274,-0.994,-0.145,-0.18,18.74,14.16,1785098650609.045
0.287,-0.994,-0.124,0.64,17.3,12.91,1785098650609.2642
0.295,-0.986,-0.122,3.97,15.96,11.14,1785098650609.492
0.298,-0.975,-0.126,7.02,14.8,10.1,1785098650609.73
0.291,-0.964,-0.14,6.68,13.49,9.46,1785098650609.969
0.287,-0.957,-0.17,4.0,13.58,10.32,1785098650610.2112
0.271,-0.968,-0.175,1.4,15.26,10.83,1785098650610.446
0.265,-0.993,-0.146,-2.26,14.68,9.67,1785098650610.676
0.269,-0.982,-0.135,-6.87,13.31,7.51,1785098650610.906
0.283,-0.973,-0.117,-9.19,12.7,6.62,1785098650611.1392
0.283,-0.96,-0.119,-9.09,12.24,6.13,1785098650611.371
0.291,-0.952,-0.116,-8.64,11.93,7.17,1785098650611.605
0.28,-0.947,-0.125,-7.48,11.44,7.78,1785098650611.8347
0.283,-0.95,-0.12,-8.15,10.59,8.06,1785098650612.061
0.285,-0.958,-0.124,-9.06,10.28,8.06,1785098650612.291
0.278,-0.963,-0.129,-8.97,10.35,7.2,1785098650612.521
0.282,-0.967,-0.119,-8.15,10.16,6.2,1785098650612.7551
0.287,-0.983,-0.121,-5.98,10.13,5.25,1785098650612.985
0.286,-1.004,-0.111,-3.3,10.35,5.49,1785098650613.219
0.298,-0.998,-0.102,-1.56,9.13,5.01,1785098650613.472
0.293,-0.978,-0.119,-0.12,8.3,3.36,1785098650613.7202
0.292,-0.979,-0.122,0.55,8.7,4.0,1785098650613.9688
0.287,-0.98,-0.123,0.64,8.06,3.88,1785098650614.2202
0.287,-0.983,-0.113,0.4,7.11,3.42,1785098650614.469
0.286,-0.976,-0.115,0.67,6.13,2.41,1785098650614.731
0.286,-0.964,-0.107,1.1,4.85,1.98,1785098650614.988
0.287,-0.949,-0.108,1.92,3.42,2.23,1785098650615.243
0.281,-0.945,-0.115,2.01,2.35,2.99,1785098650615.488
0.27,-0.96,-0.132,-3.42,0.58,3.94,1785098650615.9812
0.257,-0.961,-0.066,-4.76,-1.5,4.18,1785098650616.225
-0.881,-0.77,-0.641,-26.18,-3.05,-6.99,1785098650616.737
-0.909,-0.82,-0.615,-24.9,-1.37,-13.12,1785098650616.988
-0.956,-0.873,-0.583,-15.9,-0.06,-17.61,1785098650620.2542
-1.029,-0.899,-0.561,-4.21,-0.21,-25.06,1785098650625.9917
-1.082,-0.917,-0.594,7.66,1.22,-32.38,1785098650636.342
-1.101,-0.928,-0.621,19.96,3.42,-40.01,1785098650646.889
-1.11,-0.889,-0.646,32.5,4.58,-49.29,1785098650657.475
-1.096,-0.827,-0.673,42.33,6.13,-56.34,1785098650670.7131
-1.062,-0.781,-0.715,47.61,8.48,-62.04,1785098650676.275
-1.047,-0.755,-0.756,45.56,11.66,-69.49,1785098650686.9868
-1.049,-0.754,-0.78,36.26,15.93,-77.94,1785098650700.161
-1.053,-0.762,-0.791,23.16,21.06,-85.09,1785098650705.981
-1.039,-0.793,-0.759,12.54,26.61,-89.94,1785098650716.7842
-1.004,-0.814,-0.701,7.69,29.21,-92.26,1785098650727.379
-0.94,-0.822,-0.66,9.55,28.81,-91.49,1785098650740.63
-0.874,-0.808,-0.652,13.12,26.95,-89.94,1785098650746.2668
-0.816,-0.767,-0.64,12.63,24.96,-87.68,1785098650757.189
-0.772,-0.764,-0.646,8.18,22.0,-85.21,1785098650767.756
-0.744,-0.776,-0.65,-0.06,19.71,-83.35,1785098650780.979
-0.707,-0.793,-0.648,-7.08,18.8,-79.53,1785098650786.7588
-0.623,-0.81,-0.626,-7.9,19.78,-75.05,1785098650796.973
-0.557,-0.809,-0.617,-3.69,19.1,-71.6,1785098650807.473
-0.482,-0.787,-0.631,0.49,16.14,-66.07,1785098650820.7
-0.42,-0.764,-0.643,4.12,15.63,-60.58,1785098650826.354
-0.396,-0.777,-0.639,6.65,15.69,-55.76,1785098650836.964
-0.379,-0.794,-0.62,6.84,14.31,-51.67,1785098650847.41
-0.37,-0.822,-0.614,6.35,12.88,-47.3,1785098650860.68
-0.366,-0.855,-0.615,7.87,12.57,-42.94,1785098650866.312
-0.35,-0.874,-0.631,13.34,14.13,-40.41,1785098650876.96
-0.323,-0.843,-0.678,20.05,17.82,-38.42,1785098650890.285
-0.274,-0.784,-0.704,26.34,22.74,-34.03,1785098650895.9019
-0.213,-0.742,-0.749,31.4,27.68,-30.27,1785098650906.656
-0.17,-0.721,-0.791,32.2,35.04,-29.66,1785098650917.307
-0.146,-0.761,-0.809,29.08,44.19,-31.68,1785098650930.914
-0.15,-0.835,-0.799,22.46,53.47,-37.39,1785098650936.6519
-0.175,-0.896,-0.79,14.59,62.26,-43.21,1785098650947.0872
-0.184,-0.915,-0.808,9.61,71.05,-45.05,1785098650960.63
-0.179,-0.894,-0.804,8.15,80.23,-43.15,1785098650965.9531
-0.154,-0.866,-0.769,9.37,88.38,-40.16,1785098650976.799
-0.12,-0.862,-0.733,11.41,96.19,-40.22,1785098650987.581
-0.105,-0.862,-0.682,10.77,103.37,-43.67,1785098651000.6
-0.09,-0.857,-0.662,8.51,109.53,-47.94,1785098651006.443
-0.068,-0.872,-0.675,6.29,116.76,-53.29,1785098651016.937
-0.061,-0.893,-0.681,5.4,124.91,-61.37,1785098651027.61
-0.059,-0.873,-0.671,6.44,132.82,-69.95,1785098651041.0728
-0.016,-0.848,-0.656,13.7,141.15,-76.17,1785098651047.117
0.034,-0.84,-0.637,27.83,148.69,-82.28,1785098651057.5007
0.074,-0.861,-0.627,45.81,154.64,-89.39,1785098651070.773
0.13,-0.899,-0.596,65.71,159.64,-95.83,1785098651077.0217
0.192,-0.937,-0.583,85.27,163.09,-100.13,1785098651087.47
0.228,-0.928,-0.614,97.02,165.07,-99.19,1785098651101.185
0.245,-0.809,-0.603,95.07,165.62,-91.34,1785098651106.678
0.315,-0.683,-0.585,86.21,164.01,-81.7,1785098651117.488
0.408,-0.605,-0.553,72.15,163.3,-82.22,1785098651131.025
0.552,-0.548,-0.455,52.8,165.5,-97.54,1785098651136.649
0.752,-0.544,-0.311,39.4,176.21,-127.11,1785098651147.847
1.008,-0.661,-0.234,38.48,168.92,-146.7,1785098651161.082
1.164,-0.708,-0.217,49.5,142.06,-153.66,1785098651167.025
1.247,-0.587,-0.243,69.83,123.72,-156.38,1785098651180.622
1.354,-0.466,-0.299,86.12,111.15,-156.29,1785098651186.308
1.47,-0.404,-0.356,87.25,90.91,-156.9,1785098651197.0989
1.507,-0.293,-0.413,74.56,77.12,-177.62,1785098651210.394
1.544,-0.285,-0.459,49.56,69.55,-201.3,1785098651216.31
1.507,-0.357,-0.457,20.02,59.94,-219.64,1785098651227.104
1.445,-0.398,-0.434,-4.18,51.33,-231.09,1785098651242.349
1.404,-0.339,-0.393,-21.85,46.57,-236.61,1785098651268.9019
1.423,-0.221,-0.349,-36.13,45.29,-236.43,1785098651270.453
1.457,-0.147,-0.304,-49.68,44.86,-232.86,1785098651270.89
1.422,-0.128,-0.245,-63.97,42.33,-227.64,1785098651275.942
1.359,-0.158,-0.181,-74.4,40.19,-220.28,1785098651286.824
1.327,-0.203,-0.145,-79.26,37.66,-210.58,1785098651300.079
1.308,-0.22,-0.122,-81.76,34.12,-198.74,1785098651305.929
1.28,-0.239,-0.114,-82.06,30.43,-182.01,1785098651316.802
1.244,-0.27,-0.097,-80.57,26.61,-160.68,1785098651327.625
1.183,-0.292,-0.078,-78.01,20.33,-136.91,1785098651340.893
1.103,-0.311,-0.083,-74.5,11.75,-111.06,1785098651346.614
0.997,-0.282,-0.093,-73.58,1.34,-84.23,1785098651357.416
0.89,-0.206,-0.092,-76.2,-10.19,-56.12,1785098651370.6309
0.826,-0.145,-0.09,-78.83,-20.97,-26.37,1785098651376.399
0.732,-0.132,-0.101,-78.46,-32.78,3.05,1785098651387.037
0.607,-0.165,-0.137,-76.94,-45.01,31.65,1785098651400.239
0.458,-0.217,-0.171,-77.58,-57.16,58.32,1785098651406.0217
0.3,-0.217,-0.193,-81.3,-70.56,83.53,1785098651416.713
0.162,-0.218,-0.198,-82.37,-84.78,108.86,1785098651427.424
-0.014,-0.274,-0.211,-77.58,-101.87,130.99,1785098651440.73
-0.212,-0.294,-0.234,-73.92,-119.14,147.86,1785098651446.6829
-0.384,-0.267,-0.235,-75.62,-135.11,164.98,1785098651460.08
-0.558,-0.258,-0.252,-78.04,-152.38,180.03,1785098651466.05
-0.737,-0.289,-0.327,-79.96,-170.35,188.3,1785098651477.069
-0.884,-0.35,-0.484,-82.89,-183.54,190.86,1785098651490.339
-0.973,-0.448,-0.699,-86.0,-185.19,188.21,1785098651496.38
-1.026,-0.586,-0.991,-84.87,-172.8,176.67,1785098651507.289
-1.083,-0.78,-1.307,-74.53,-145.45,157.35,1785098651520.579
-1.119,-1.034,-1.602,-54.54,-107.21,133.88,1785098651526.518
-1.064,-1.256,-1.819,-33.08,-61.89,108.95,1785098651537.5417
-0.888,-1.371,-1.756,-17.3,-13.37,88.14,1785098651551.435
-0.661,-1.353,-1.348,-0.4,29.08,66.04,1785098651556.4548
-0.566,-1.243,-0.832,24.84,56.18,33.57,1785098651566.9902
-0.595,-1.053,-0.501,50.81,67.45,-5.55,1785098651580.2668
-0.616,-0.816,-0.432,68.33,68.48,-44.53,1785098651585.9512
-0.609,-0.572,-0.508,76.14,66.16,-82.89,1785098651596.629
-0.618,-0.413,-0.609,77.76,64.61,-124.52,1785098651607.5159
-0.721,-0.365,-0.675,72.97,63.66,-171.85,1785098651620.627
-0.721,-0.365,-0.675,64.12,67.02,-215.98,1785098651626.434
-0.825,-0.464,-0.774,50.84,77.12,-251.38,1785098651637.4158
-0.839,-0.596,-0.768,47.82,88.08,-273.63,1785098651650.538
-0.856,-0.687,-0.705,55.15,97.99,-277.78,1785098651656.4072
-0.779,-0.768,-0.755,55.7,104.62,-270.64,1785098651667.375
-0.586,-0.733,-0.761,55.7,104.62,-270.64,1785098651680.9822
-0.406,-0.634,-0.746,53.1,105.2,-256.9,1785098651687.037
-0.223,-0.522,-0.767,51.48,108.07,-238.96,1785098651700.5159
-0.037,-0.416,-0.75,47.18,116.09,-220.07,1785098651706.465
0.187,-0.394,-0.689,43.18,128.21,-201.76,1785098651717.388
0.428,-0.435,-0.596,45.66,144.29,-182.96,1785098651730.6262
0.699,-0.405,-0.554,51.97,161.23,-155.37,1785098651736.601
0.929,-0.209,-0.467,53.1,176.64,-113.77,1785098651747.573
1.06,-0.035,-0.291,54.78,180.55,-61.83,1785098651760.8809
1.121,0.047,-0.079,56.86,167.03,-19.1,1785098651766.9321
1.168,0.078,0.069,56.61,145.7,4.0,1785098651777.474
1.295,0.104,0.149,48.68,130.62,12.67,1785098651790.771
1.55,0.195,0.234,33.6,125.98,12.24,1785098651796.646
1.794,0.245,0.326,20.63,128.42,9.55,1785098651807.3062
1.941,0.286,0.419,9.7,131.26,5.4,1785098651817.871
2.06,0.441,0.574,6.93,128.27,-0.52,1785098651831.226
2.193,0.567,0.632,22.58,116.89,-1.83,1785098651837.139
2.329,0.677,0.615,43.64,101.11,-5.16,1785098651847.4932
2.39,0.788,0.567,62.87,83.65,-9.64,1785098651860.8032
2.421,0.889,0.465,80.6,64.76,-8.88,1785098651866.7
2.4,0.951,0.338,90.24,41.96,-6.1,1785098651876.928
2.358,0.967,0.22,85.12,18.07,-4.88,1785098651887.515
2.267,0.902,0.137,67.32,-0.09,-7.54,1785098651900.747
2.125,0.798,0.082,37.66,-13.28,-16.75,1785098651906.667
1.978,0.733,0.061,-5.43,-20.97,-32.5,1785098651916.9321
1.874,0.649,0.087,-54.87,-25.36,-47.4,1785098651927.574
1.782,0.558,0.132,-95.34,-31.22,-54.41,1785098651940.999
1.75,0.489,0.182,-119.97,-33.11,-55.91,1785098651946.8003
1.705,0.404,0.226,-132.88,-36.87,-47.3,1785098651957.4822
1.629,0.376,0.252,-132.91,-45.2,-32.56,1785098651970.795
1.582,0.39,0.226,-126.26,-49.56,-20.57,1785098651976.715
1.529,0.337,0.187,-125.1,-51.55,-8.33,1785098651987.462
1.458,0.272,0.157,-123.42,-54.72,5.49,1785098652000.6443
1.414,0.209,0.123,-116.86,-57.89,20.45,1785098652006.624
1.346,0.16,0.087,-111.64,-63.17,37.39,1785098652017.215
1.294,0.129,0.042,-107.55,-72.76,56.86,1785098652030.638
1.211,0.109,-0.011,-102.85,-84.14,73.7,1785098652036.5752
1.116,0.049,-0.054,-98.91,-94.18,91.83,1785098652047.074
1.073,-0.009,-0.086,-97.05,-105.26,110.08,1785098652057.936
1.033,-0.03,-0.087,-96.35,-117.1,126.13,1785098652071.286
0.903,-0.044,-0.052,-95.65,-131.6,143.16,1785098652077.106
0.709,-0.048,-0.03,-95.07,-153.69,159.95,1785098652090.6118
0.512,-0.018,-0.031,-95.92,-183.78,174.35,1785098652096.531
0.261,0.057,-0.038,-96.87,-218.91,186.99,1785098652107.5598
-0.092,0.145,-0.042,-93.17,-256.42,202.64,1785098652121.377
-0.453,0.139,0.013,-77.61,-293.31,222.94,1785098652126.82
-0.808,-0.065,0.033,-45.56,-326.58,234.47,1785098652137.93
-1.254,-0.295,-0.182,-7.08,-349.1,229.59,1785098652150.982
-1.667,-0.425,-0.528,26.09,-361.22,225.1,1785098652156.9978
-1.866,-0.616,-1.095,49.84,-365.34,227.52,1785098652170.384
-2.013,-0.764,-1.918,41.17,-341.75,226.29,1785098652176.3909
-2.052,-0.861,-2.833,-3.81,-267.43,215.52,1785098652187.223
-1.822,-0.98,-3.399,-85.33,-154.82,191.05,1785098652200.4548
-1.202,-0.932,-3.036,-208.29,-51.21,164.77,1785098652206.447
-0.573,-0.992,-1.857,-306.65,15.69,123.23,1785098652217.4302
-0.401,-0.972,-0.529,-347.45,40.65,65.92,1785098652230.675
-0.276,-0.952,0.097,-325.14,36.16,32.69,1785098652236.663
0.033,-0.981,0.076,-250.1,34.82,19.44,1785098652247.389
0.236,-0.951,-0.02,-134.04,31.59,-10.68,1785098652260.725
0.137,-0.826,-0.276,11.54,21.15,-70.07,1785098652266.562
-0.219,-0.657,-0.651,151.95,24.14,-139.59,1785098652277.405
-0.651,-0.574,-0.87,249.06,35.62,-196.17,1785098652290.6082
-0.956,-0.683,-1.102,295.75,46.54,-228.37,1785098652296.608
-1.131,-0.847,-1.358,290.51,62.65,-248.02,1785098652307.626
-1.315,-0.879,-1.336,241.74,81.61,-260.6,1785098652320.9011
-1.451,-0.946,-1.269,189.31,98.67,-262.7,1785098652326.8179
-1.438,-0.965,-1.204,150.0,118.66,-262.79,1785098652340.269
-1.288,-0.937,-1.16,129.22,144.2,-267.34,1785098652346.2349
-1.045,-0.865,-1.092,116.67,171.15,-268.62,1785098652357.4778
-0.804,-0.68,-0.91,104.77,186.16,-258.77,1785098652370.755
-0.489,-0.538,-0.862,105.17,193.67,-240.85,1785098652376.731
-0.154,-0.394,-0.812,107.7,203.19,-221.72,1785098652390.444
0.09,-0.223,-0.654,108.1,209.27,-199.8,1785098652396.4119
0.36,-0.106,-0.489,114.14,206.92,-176.79,1785098652407.608
0.671,-0.062,-0.438,126.19,201.82,-158.09,1785098652420.913
0.892,0.005,-0.361,128.88,198.13,-137.3,1785098652426.807
1.198,0.065,-0.235,125.46,191.32,-110.66,1785098652440.4312
1.374,0.141,-0.069,123.2,180.03,-83.99,1785098652446.379
1.466,0.135,0.115,123.54,171.61,-54.57,1785098652457.4678
1.653,0.157,0.256,118.66,167.76,-31.89,1785098652470.741
1.805,0.285,0.376,101.41,161.87,-18.56,1785098652476.5762
1.984,0.393,0.479,75.96,157.23,-12.97,1785098652487.7231
2.172,0.438,0.517,44.43,156.32,-15.93,1785098652500.792
2.389,0.458,0.491,14.95,157.41,-22.03,1785098652506.883
2.54,0.539,0.44,-6.26,157.78,-30.73,1785098652517.453
2.648,0.658,0.378,-19.78,154.21,-40.01,1785098652530.7769
2.677,0.767,0.319,-26.64,145.05,-49.44,1785098652536.732
2.636,0.889,0.253,-26.34,130.68,-59.42,1785098652547.468
2.535,1.053,0.23,-26.06,111.0,-70.83,1785098652560.8298
2.401,1.135,0.248,-26.25,88.72,-80.57,1785098652566.627
2.221,1.017,0.314,-22.22,65.65,-74.47,1785098652577.223
2.047,0.928,0.362,-10.41,45.96,-64.27,1785098652588.0298
1.901,0.861,0.36,-10.28,30.34,-63.51,1785098652601.148
1.762,0.731,0.369,-33.75,19.5,-66.9,1785098652606.731
1.663,0.587,0.399,-64.97,12.36,-67.45,1785098652617.574
1.645,0.464,0.385,-87.22,5.86,-60.7,1785098652630.84
1.55,0.392,0.323,-100.41,-2.56,-47.36,1785098652636.7302
1.467,0.354,0.277,-109.56,-11.08,-30.18,1785098652647.298
1.393,0.313,0.247,-115.97,-20.02,-11.75,1785098652660.5972
1.294,0.273,0.214,-119.02,-30.09,7.97,1785098652666.448
1.232,0.246,0.184,-117.34,-39.95,26.92,1785098652677.175
1.161,0.211,0.176,-116.86,-50.94,48.98,1785098652688.089
1.073,0.185,0.17,-113.68,-63.6,69.25,1785098652701.183
0.983,0.133,0.139,-108.31,-77.91,89.82,1785098652707.165
0.848,0.117,0.093,-103.58,-96.77,109.26,1785098652720.543
0.747,0.124,0.069,-96.71,-113.62,127.05,1785098652726.35
0.641,0.143,0.041,-89.75,-128.79,139.04,1785098652737.275
0.487,0.136,0.038,-83.56,-144.54,149.42,1785098652750.591
0.23,0.099,0.034,-75.2,-164.13,162.27,1785098652756.783
-0.039,0.071,0.048,-65.22,-185.25,175.18,1785098652767.6858
-0.241,0.021,0.07,-54.02,-209.14,185.92,1785098652780.899
-0.423,-0.071,0.056,-40.83,-239.2,192.85,1785098652786.834
-0.664,-0.242,-0.069,-21.79,-269.88,196.63,1785098652797.806
-0.93,-0.593,-0.408,-1.07,-291.54,192.18,1785098652811.049
-1.157,-0.997,-1.021,1.95,-293.71,168.89,1785098652816.983
-1.268,-1.431,-1.783,-5.04,-266.49,137.42,1785098652827.801
-1.338,-1.794,-2.407,-15.2,-213.69,108.68,1785098652841.1418
-1.401,-1.852,-2.651,-27.89,-149.08,85.88,1785098652847.019
-1.229,-1.823,-2.575,-19.84,-70.47,56.18,1785098652857.74
-0.986,-1.612,-2.132,-9.77,0.92,5.92,1785098652871.0962
-0.899,-1.22,-1.456,-10.68,48.65,-34.85,1785098652876.916
-0.937,-0.892,-0.912,-11.29,76.63,-53.74,1785098652887.193
-0.831,-0.852,-0.711,3.97,99.31,-70.56,1785098652897.762
-0.708,-0.939,-0.639,32.23,119.91,-108.98,1785098652910.994
-0.708,-0.939,-0.639,65.95,135.11,-152.17,1785098652916.9763
-0.664,-0.955,-0.574,101.54,144.84,-174.5,1785098652930.457
-0.723,-0.876,-0.493,137.18,152.13,-172.83,1785098652936.4722
-0.696,-0.848,-0.531,158.45,157.26,-168.68,1785098652947.6963
-0.509,-0.78,-0.553,170.9,155.22,-170.05,1785098652960.9248
-0.345,-0.697,-0.508,170.9,155.22,-170.05,1785098652966.95
-0.046,-0.65,-0.584,183.63,150.64,-171.39,1785098652980.601
0.118,-0.457,-0.565,182.62,150.03,-165.75,1785098652986.5361
0.314,-0.34,-0.423,169.65,154.55,-141.85,1785098652997.749
0.521,-0.338,-0.243,140.81,159.73,-117.62,1785098653010.989
0.722,-0.385,0.006,94.85,158.64,-95.13,1785098653016.959
1.028,-0.411,0.165,50.11,147.01,-78.37,1785098653028.8582
1.323,-0.281,0.305,12.24,128.27,-68.97,1785098653041.2258
1.546,-0.133,0.421,-19.14,104.56,-52.95,1785098653047.107
1.696,-0.037,0.44,-45.69,84.72,-33.02,1785098653057.7532
1.811,0.099,0.476,-67.6,76.05,-14.77,1785098653071.152
1.953,0.273,0.494,-79.74,73.52,1.68,1785098653076.8672
2.118,0.478,0.545,-83.83,70.56,15.05,1785098653087.3877
2.291,0.649,0.618,-74.62,62.29,24.48,1785098653100.6611
2.446,0.77,0.612,-54.35,53.07,24.2,1785098653106.611
2.616,0.914,0.591,-31.53,43.43,18.98,1785098653117.035
2.76,1.075,0.536,-1.13,36.01,6.04,1785098653127.5078
2.807,1.192,0.449,27.25,30.18,-5.98,1785098653140.912
2.752,1.274,0.366,46.6,21.85,-16.94,1785098653146.7231
2.603,1.205,0.272,49.9,14.25,-30.88,1785098653157.248
2.386,0.955,0.222,28.69,11.69,-45.47,1785098653167.811
2.147,0.671,0.194,-6.16,10.59,-53.04,1785098653181.1997
1.954,0.489,0.183,-43.18,7.17,-51.88,1785098653187.0908
1.783,0.477,0.184,-80.29,2.87,-50.2,1785098653197.242
1.833,0.485,0.229,-120.73,-1.19,-55.7,1785098653207.9111
1.656,0.181,0.305,-152.65,-20.54,-22.92,1785098653221.233
1.409,0.197,0.341,-146.0,-32.99,16.45,1785098653227.114
1.441,0.347,0.275,-130.01,-40.31,33.81,1785098653237.9148
1.34,0.35,0.249,-127.81,-51.61,42.27,1785098653251.125
1.375,0.245,0.279,-129.61,-59.63,47.21,1785098653257.227
1.286,0.163,0.229,-124.0,-77.58,59.6,1785098653267.803
1.028,0.141,0.16,-114.17,-95.43,73.31,1785098653281.233
0.965,0.116,0.139,-103.09,-109.26,85.39,1785098653287.185
0.817,0.061,0.093,-87.89,-124.45,101.93,1785098653300.473
0.669,0.059,0.04,-71.69,-137.55,114.63,1785098653306.51
0.533,0.021,0.019,-55.94,-147.5,127.48,1785098653317.188
0.373,-0.057,-0.01,-35.43,-156.01,142.49,1785098653330.6292
0.196,-0.171,-0.028,-12.45,-168.1,157.72,1785098653336.6567
0.048,-0.254,-0.067,9.22,-187.14,171.33,1785098653347.522
-0.091,-0.271,-0.085,25.73,-211.74,184.06,1785098653360.7402
-0.309,-0.28,-0.12,40.22,-239.84,197.39,1785098653366.7268
-0.537,-0.358,-0.207,57.04,-262.61,209.69,1785098653377.698
-0.77,-0.561,-0.407,75.11,-276.19,212.53,1785098653390.941
-0.994,-0.858,-0.685,87.47,-278.08,205.21,1785098653396.898
-1.159,-1.242,-1.026,92.65,-264.11,191.41,1785098653410.444
-1.279,-1.451,-1.392,85.45,-228.28,168.28,1785098653416.3142
-1.338,-1.539,-1.823,67.32,-178.26,141.21,1785098653427.364
-1.334,-1.669,-2.149,30.46,-125.55,106.72,1785098653440.689
-1.23,-1.674,-2.112,-28.38,-73.64,63.97,1785098653446.5388
-0.939,-1.609,-1.741,-79.68,-23.01,26.25,1785098653457.251
-0.689,-1.472,-1.257,-100.19,22.61,-14.59,1785098653470.458
-0.712,-1.143,-0.798,-93.39,55.88,-54.35,1785098653476.4468
-0.82,-0.884,-0.574,-57.65,73.37,-76.97,1785098653487.02
-0.744,-0.859,-0.559,-7.54,82.28,-97.93,1785098653497.519
-0.768,-0.745,-0.529,37.78,86.67,-132.11,1785098653510.808
-0.846,-0.738,-0.595,84.78,90.21,-158.36,1785098653516.753
-0.742,-0.835,-0.694,116.55,95.83,-180.43,1785098653527.695
-0.67,-0.73,-0.644,124.24,99.46,-199.56,1785098653540.981
-0.481,-0.716,-0.605,130.47,102.6,-201.39,1785098653546.8691
-0.301,-0.754,-0.6,137.55,103.55,-201.91,1785098653560.511
-0.11,-0.747,-0.572,140.84,99.22,-198.92,1785098653566.386
0.018,-0.672,-0.564,141.88,91.1,-190.4,1785098653577.444
0.185,-0.608,-0.59,135.84,85.57,-174.23,1785098653590.74
0.315,-0.476,-0.526,114.41,80.57,-152.26,1785098653596.631
0.442,-0.418,-0.422,93.39,76.24,-130.65,1785098653607.6218
0.641,-0.421,-0.369,83.07,73.61,-118.23,1785098653620.885
0.897,-0.429,-0.306,85.7,77.27,-109.68,1785098653626.7842
1.151,-0.499,-0.288,95.28,83.62,-94.09,1785098653637.6372
1.357,-0.521,-0.241,93.66,89.57,-72.51,1785098653650.6638
1.497,-0.456,-0.126,81.7,92.23,-47.7,1785098653656.706
1.628,-0.316,-0.028,69.64,91.95,-22.83,1785098653667.137
1.844,-0.133,0.059,62.11,88.81,-2.44,1785098653677.685
2.039,0.096,0.129,58.72,78.01,7.72,1785098653690.969
2.197,0.262,0.132,56.76,70.56,6.26,1785098653696.8582
2.337,0.392,0.093,56.0,73.15,-2.14,1785098653707.186
2.428,0.529,0.048,58.81,78.55,-7.78,1785098653717.661
2.427,0.673,-0.0,67.42,79.96,-9.31,1785098653730.9338
2.408,0.802,-0.066,77.94,74.31,-10.77,1785098653736.8882
2.421,0.948,-0.101,79.68,61.25,-15.29,1785098653747.316
2.398,1.027,-0.074,73.92,44.16,-21.73,1785098653760.563
2.343,0.991,-0.031,62.99,28.78,-32.75,1785098653766.5532
2.211,0.815,0.047,36.32,19.35,-48.89,1785098653777.027
2.046,0.5,0.152,-5.31,10.68,-55.09,1785098653787.795
1.895,0.351,0.221,-44.62,-3.17,-48.95,1785098653800.838
1.787,0.441,0.228,-80.97,-15.11,-49.62,1785098653806.814
1.669,0.475,0.263,-123.48,-19.75,-55.3,1785098653817.3281
1.577,0.381,0.296,-157.08,-20.51,-54.48,1785098653830.54
1.469,0.277,0.294,-166.97,-23.87,-42.21,1785098653836.541
1.395,0.187,0.273,-160.41,-29.91,-23.19,1785098653847.289
1.295,0.14,0.215,-146.24,-37.26,-2.23,1785098653857.7312
1.278,0.125,0.181,-135.26,-43.18,12.94,1785098653871.3281
1.218,0.089,0.146,-128.09,-48.31,28.17,1785098653877.122
1.149,0.059,0.121,-122.81,-54.63,43.76,1785098653888.193
1.058,0.027,0.105,-117.07,-64.3,60.7,1785098653901.132
0.982,0.012,0.107,-112.77,-75.59,76.27,1785098653907.1309
0.878,-0.032,0.107,-110.72,-88.29,91.04,1785098653917.8792
0.731,-0.135,0.086,-107.82,-102.24,105.17,1785098653931.118
0.578,-0.214,0.052,-102.45,-115.67,116.58,1785098653937.187
0.466,-0.233,0.004,-95.46,-126.13,126.53,1785098653950.69
0.331,-0.24,-0.043,-87.59,-137.85,140.26,1785098653956.758
0.156,-0.246,-0.084,-77.97,-153.84,154.48,1785098653970.088
-0.027,-0.307,-0.122,-62.75,-171.45,166.39,1785098653980.9612
-0.191,-0.443,-0.165,-39.95,-190.01,175.45,1785098653986.8691
-0.345,-0.601,-0.249,-15.02,-208.01,181.07,1785098653997.8782
-0.506,-0.754,-0.415,5.55,-220.71,182.96,1785098654011.125
-0.646,-0.966,-0.667,18.68,-225.93,178.26,1785098654017.063
-0.771,-1.202,-0.975,21.73,-223.24,163.88,1785098654030.505
-0.882,-1.386,-1.333,14.71,-206.4,143.07,1785098654036.501
-0.967,-1.465,-1.635,-2.5,-173.92,122.44,1785098654047.3582
-0.972,-1.538,-1.849,-16.57,-129.98,99.77,1785098654060.6238
-0.941,-1.662,-1.943,-16.02,-79.26,65.4,1785098654066.562
-0.944,-1.705,-1.885,-12.39,-30.43,22.74,1785098654077.2031
-0.899,-1.599,-1.656,-14.47,14.71,-15.05,1785098654087.8389
-0.848,-1.446,-1.289,-14.1,52.89,-47.49,1785098654101.012
-0.824,-1.2,-0.975,-9.49,76.33,-75.59,1785098654107.1091
-0.859,-0.986,-0.796,10.5,87.07,-99.7,1785098654117.363
-0.786,-0.95,-0.767,41.32,94.21,-128.64,1785098654130.707
-0.758,-0.875,-0.702,63.36,96.62,-165.96,1785098654136.5828
-0.733,-0.829,-0.716,86.79,98.06,-190.83,1785098654147.3347
-0.642,-0.78,-0.742,102.66,103.58,-207.04,1785098654160.655
-0.564,-0.665,-0.709,104.8,107.3,-213.9,1785098654166.6008
-0.394,-0.588,-0.624,103.55,109.23,-212.07,1785098654177.8718
-0.195,-0.597,-0.611,110.26,107.3,-209.97,1785098654191.1052
-0.022,-0.57,-0.611,119.08,104.71,-204.57,1785098654197.0989
-0.022,-0.57,-0.611,125.06,100.8,-189.95,1785098654210.7341
0.124,-0.471,-0.572,129.46,97.2,-170.72,1785098654216.647
0.304,-0.418,-0.533,127.93,92.78,-153.54,1785098654227.767
0.471,-0.383,-0.487,117.28,91.65,-137.09,1785098654241.023
0.64,-0.274,-0.424,117.28,91.65,-137.09,1785098654246.9631
0.79,-0.116,-0.318,100.59,90.52,-118.81,1785098654260.457
0.965,-0.044,-0.217,86.98,87.1,-97.93,1785098654266.345
1.137,-0.027,-0.147,81.06,83.32,-76.24,1785098654277.004
1.326,-0.0,-0.103,80.2,81.12,-54.72,1785098654287.678
1.462,0.093,-0.012,78.62,78.46,-32.47,1785098654300.8918
1.59,0.156,0.029,76.6,74.59,-8.58,1785098654306.8591
1.676,0.278,0.072,67.17,72.15,10.44,1785098654317.26
1.798,0.441,0.139,53.96,70.5,24.2,1785098654330.535
1.895,0.521,0.131,46.51,70.71,31.8,1785098654336.4329
1.992,0.585,0.087,38.79,73.03,34.39,1785098654346.97
2.049,0.619,0.033,32.53,74.62,36.81,1785098654357.638
2.105,0.678,-0.018,30.4,76.02,38.97,1785098654370.852
2.116,0.719,-0.071,33.23,75.08,42.51,1785098654376.78
2.082,0.702,-0.115,34.91,70.93,45.47,1785098654387.346
2.036,0.638,-0.109,28.2,64.39,44.07,1785098654400.568
1.989,0.508,-0.069,13.15,54.87,39.61,1785098654406.5017
1.926,0.371,-0.025,-8.21,42.97,33.69,1785098654416.935
1.855,0.305,0.011,-36.38,30.7,26.03,1785098654427.673
1.788,0.273,0.049,-70.99,18.62,15.81,1785098654440.8691
1.717,0.232,0.111,-105.69,7.45,3.97,1785098654446.748
1.634,0.199,0.181,-132.57,-1.8,-4.97,1785098654457.182
1.568,0.158,0.209,-145.85,-9.13,-6.32,1785098654467.652
1.483,0.106,0.203,-147.31,-16.42,-1.37,1785098654480.673
1.38,0.11,0.2,-142.34,-22.46,3.51,1785098654486.922
1.379,0.053,0.191,-135.9,-26.73,11.14,1785098654497.534
1.375,-0.031,0.177,-127.6,-32.38,20.26,1785098654510.824
1.411,-0.094,0.149,-118.44,-38.09,26.06,1785098654516.737
1.423,-0.177,0.111,-112.77,-41.35,31.98,1785098654527.466
1.338,-0.262,0.104,-110.11,-40.19,40.19,1785098654540.802
1.185,-0.301,0.084,-105.62,-41.2,50.54,1785098654546.6829
1.082,-0.285,0.048,-98.27,-46.45,60.06,1785098654557.3179
1.073,-0.317,0.038,-88.6,-56.25,71.63,1785098654570.572
0.958,-0.426,0.021,-74.74,-73.98,86.89,1785098654576.493
0.696,-0.6,-0.054,-54.48,-91.19,95.89,1785098654587.078
0.515,-0.762,-0.175,-39.86,-97.57,89.79,1785098654597.6619
0.407,-0.824,-0.283,-40.86,-98.3,78.49,1785098654610.944
0.291,-0.82,-0.37,-49.81,-102.51,76.11,1785098654616.859
0.185,-0.77,-0.405,-62.59,-114.69,86.58,1785098654627.5442
0.12,-0.836,-0.409,-67.05,-132.73,101.66,1785098654640.9229
0.005,-1.167,-0.508,-61.22,-154.73,103.34,1785098654646.793
-0.253,-1.47,-0.735,-63.42,-164.83,85.6,1785098654657.687
-0.509,-1.545,-0.944,-74.95,-152.71,69.28,1785098654671.071
-0.57,-1.486,-1.124,-83.62,-131.11,60.79,1785098654676.88
-0.541,-1.323,-1.296,-90.21,-105.84,41.93,1785098654687.861
-0.541,-1.118,-1.4,-97.42,-75.84,13.73,1785098654700.9124
-0.53,-0.975,-1.415,-100.89,-46.6,-13.98,1785098654706.937
-0.488,-0.93,-1.36,-97.2,-19.9,-39.12,1785098654717.417
-0.45,-0.902,-1.262,-86.46,4.24,-60.76,1785098654730.656
-0.42,-0.812,-1.124,-68.51,26.43,-73.67,1785098654736.575
-0.394,-0.746,-0.98,-37.66,44.86,-78.34,1785098654747.0269
-0.361,-0.732,-0.864,3.08,60.15,-81.06,1785098654757.644
-0.334,-0.75,-0.79,45.14,70.96,-88.5,1785098654770.9272
-0.346,-0.737,-0.753,78.62,76.39,-101.08,1785098654776.782
-0.365,-0.704,-0.751,97.38,80.39,-108.43,1785098654787.6292
-0.342,-0.711,-0.785,103.7,83.35,-110.93,1785098654800.8452
-0.267,-0.666,-0.819,97.63,86.0,-117.44,1785098654806.5522
-0.208,-0.567,-0.82,84.44,89.18,-125.46,1785098654817.697
-0.156,-0.473,-0.796,70.35,91.22,-129.73,1785098654830.6
-0.079,-0.484,-0.78,63.91,92.9,-129.83,1785098654836.327
-0.002,-0.527,-0.754,63.81,94.97,-131.75,1785098654847.2278
0.072,-0.487,-0.687,62.59,95.77,-130.53,1785098654860.7822
0.181,-0.448,-0.616,62.44,94.3,-122.71,1785098654866.687
0.355,-0.389,-0.538,61.31,93.81,-111.79,1785098654877.4841
0.55,-0.285,-0.445,58.96,94.61,-98.88,1785098654890.73
0.724,-0.199,-0.307,58.99,92.29,-83.13,1785098654896.636
0.908,-0.115,-0.229,61.22,85.82,-64.82,1785098654906.9067
1.125,-0.04,-0.151,66.1,80.14,-41.96,1785098654917.789
1.287,0.046,-0.034,74.77,72.21,-16.88,1785098654931.0742
1.404,0.127,0.048,86.73,64.33,8.67,1785098654936.7737
1.435,0.214,0.105,98.24,57.1,31.19,1785098654947.4539
1.564,0.296,0.135,104.86,52.89,49.29,1785098654960.809
1.845,0.438,0.172,101.69,47.79,58.57,1785098654966.6638
2.057,0.532,0.194,94.73,38.45,57.25,1785098654977.3618
2.197,0.557,0.189,87.77,31.34,48.19,1785098654990.628
2.322,0.607,0.146,78.8,26.15,38.42,1785098654996.52
2.364,0.686,0.053,67.66,22.1,30.27,1785098655007.065
2.354,0.745,-0.04,53.77,18.52,20.81,1785098655017.636
2.293,0.742,-0.099,33.85,14.4,10.16,1785098655030.9583
2.204,0.684,-0.117,7.35,10.5,-1.34,1785098655036.932
2.099,0.6,-0.094,-23.93,7.35,-13.76,1785098655047.0688
1.959,0.503,-0.047,-57.16,3.63,-24.72,1785098655057.6948
1.822,0.406,0.009,-88.41,-3.78,-29.76,1785098655071.083
1.713,0.35,0.057,-113.32,-14.25,-28.66,1785098655076.8718
1.614,0.354,0.092,-132.6,-19.47,-26.55,1785098655087.6511
1.513,0.351,0.124,-148.5,-20.94,-25.51,1785098655100.7878
1.469,0.301,0.158,-159.86,-24.51,-23.44,1785098655106.7122
1.433,0.222,0.19,-163.85,-36.1,-12.88,1785098655117.465
1.311,0.191,0.205,-154.94,-47.43,2.69,1785098655130.717
1.288,0.217,0.196,-140.17,-49.17,13.31,1785098655136.7349
1.301,0.2,0.179,-129.89,-52.49,22.61,1785098655147.354
1.201,0.141,0.167,-123.17,-63.23,34.39,1785098655160.647
1.101,0.095,0.142,-115.76,-74.43,49.17,1785098655166.529
1.054,0.067,0.093,-106.27,-83.86,67.11,1785098655177.313
0.978,0.045,0.057,-96.19,-93.33,85.54,1785098655187.9731
0.881,-0.006,0.034,-86.12,-101.38,100.74,1785098655201.202
0.797,-0.08,-0.011,-78.68,-111.21,113.35,1785098655207.171
0.685,-0.124,-0.056,-75.38,-126.16,125.74,1785098655220.66
0.553,-0.133,-0.069,-71.63,-144.72,140.51,1785098655226.537
0.412,-0.131,-0.094,-65.03,-167.12,156.83,1785098655237.5947
0.24,-0.126,-0.108,-58.17,-192.79,173.19,1785098655250.826
0.015,-0.19,-0.106,-47.12,-220.95,187.75,1785098655256.8162
-0.237,-0.319,-0.126,-32.11,-248.91,196.66,1785098655267.774
-0.539,-0.441,-0.193,-18.65,-272.47,201.18,1785098655281.0417
-0.828,-0.525,-0.303,-6.81,-292.15,205.24,1785098655286.983
-1.007,-0.706,-0.575,9.34,-307.54,207.68,1785098655297.874
-1.135,-0.991,-1.028,24.02,-307.63,199.26,1785098655311.1392
-1.331,-1.073,-1.447,21.76,-285.01,184.97,1785098655317.119
-1.471,-1.042,-1.904,12.09,-248.91,180.3,1785098655330.4792
-1.408,-1.217,-2.488,3.11,-192.18,168.58,1785098655336.4082
-1.203,-1.418,-2.733,-19.01,-114.47,136.02,1785098655347.3853
-0.959,-1.397,-2.227,-47.3,-37.2,100.1,1785098655360.677
-0.73,-1.275,-1.335,-50.94,22.06,70.86,1785098655366.548
-0.544,-1.17,-0.589,-25.21,55.91,43.67,1785098655377.16
-0.42,-1.076,-0.21,18.46,69.55,6.84,1785098655387.742
-0.367,-1.013,-0.158,70.5,70.93,-42.63,1785098655400.981
-0.386,-0.945,-0.387,118.53,63.75,-105.11,1785098655406.988
-0.551,-0.872,-0.63,144.6,54.63,-171.88,1785098655417.7751
-0.787,-0.898,-0.828,148.11,49.84,-225.87,1785098655431.035
-0.968,-1.021,-1.1,141.64,59.51,-264.23,1785098655437.011
-1.121,-1.051,-1.306,121.46,79.62,-286.2,1785098655450.45
-1.101,-1.02,-1.361,91.01,100.44,-280.74,1785098655456.45
-0.92,-0.922,-1.283,58.87,119.39,-255.68,1785098655467.407
-0.684,-0.785,-1.136,41.47,136.33,-229.59,1785098655480.448
-0.496,-0.643,-0.984,37.75,154.82,-213.81,1785098655486.392
-0.496,-0.643,-0.984,37.42,173.5,-199.41,1785098655497.662
-0.331,-0.543,-0.835,41.35,185.4,-183.17,1785098655510.903
-0.157,-0.568,-0.662,52.95,189.46,-172.7,1785098655516.845
-0.006,-0.6,-0.549,71.57,189.67,-161.99,1785098655527.8762
0.121,-0.541,-0.49,71.57,189.67,-161.99,1785098655541.1838
0.329,-0.483,-0.477,100.25,187.63,-143.07,1785098655547.092
0.613,-0.408,-0.469,132.48,187.9,-120.73,1785098655560.608
