ax,ay,az,gx,gy,gz,timestamp_ms
0.077,-0.601,-0.668,109.59,46.91,-101.54,1785098827539.5059
0.145,-0.503,-0.595,111.03,64.52,-126.32,1785098827539.9521
0.188,-0.511,-0.539,95.92,69.83,-142.4,1785098827540.3298
0.26,-0.725,-0.469,72.27,53.87,-115.21,1785098827540.698
0.28,-0.787,-0.32,62.47,50.81,-98.48,1785098827541.092
0.173,-0.644,-0.291,71.35,50.29,-104.83,1785098827541.468
0.17,-0.545,-0.288,86.25,52.95,-108.04,1785098827541.858
0.275,-0.525,-0.3,92.72,51.58,-106.94,1785098827542.2102
0.362,-0.466,-0.285,88.23,48.71,-106.39,1785098827542.5532
0.445,-0.374,-0.274,82.74,50.17,-99.73,1785098827542.898
0.537,-0.31,-0.278,79.04,51.97,-88.29,1785098827543.2607
0.605,-0.25,-0.282,69.95,49.04,-76.6,1785098827543.6
0.668,-0.17,-0.28,55.7,45.44,-63.36,1785098827544.0051
0.73,-0.117,-0.247,43.15,45.59,-49.2,1785098827544.3499
0.771,-0.13,-0.174,36.96,47.52,-35.83,1785098827544.7039
0.788,-0.215,-0.12,38.67,48.46,-24.26,1785098827545.0408
0.769,-0.261,-0.096,45.17,47.4,-15.14,1785098827545.393
0.757,-0.235,-0.085,55.33,44.13,-4.0,1785098827545.7192
0.794,-0.174,-0.09,67.2,38.91,12.27,1785098827546.026
0.872,-0.131,-0.111,76.14,33.11,31.71,1785098827546.3281
0.971,-0.117,-0.145,80.2,29.21,51.24,1785098827546.638
1.072,-0.105,-0.17,79.04,28.11,69.31,1785098827546.945
1.155,-0.09,-0.177,74.16,28.9,84.69,1785098827547.242
1.155,-0.09,-0.177,65.61,28.5,98.3,1785098827547.539
1.194,-0.09,-0.168,53.1,26.52,109.56,1785098827547.841
1.19,-0.116,-0.14,37.26,23.19,116.67,1785098827548.136
1.124,-0.153,-0.085,20.42,19.23,123.45,1785098827548.427
1.034,-0.219,-0.019,7.2,15.63,132.82,1785098827548.7659
0.998,-0.354,0.017,7.2,15.63,132.82,1785098827549.059
1.011,-0.525,0.049,-0.95,11.81,144.75,1785098827549.357
0.993,-0.658,0.076,-4.58,5.68,158.7,1785098827549.6562
0.961,-0.715,0.063,-4.76,-1.07,171.06,1785098827549.971
0.953,-0.738,0.032,-4.58,-4.76,178.5,1785098827550.298
0.935,-0.747,0.012,-6.01,-4.73,176.7,1785098827550.611
0.909,-0.823,-0.009,-9.67,-0.12,169.71,1785098827550.9497
0.948,-0.883,-0.048,-16.63,0.61,162.27,1785098827551.2632
0.897,-0.854,-0.08,-24.99,-2.01,150.73,1785098827551.553
0.892,-0.864,-0.083,-31.43,1.62,145.51,1785098827551.8347
0.896,-0.907,-0.065,-33.88,6.78,138.98,1785098827552.125
0.846,-0.944,-0.065,-33.3,5.68,132.63,1785098827552.4202
0.823,-0.99,-0.044,-28.84,6.29,130.8,1785098827552.711
0.801,-1.007,-0.022,-20.54,11.14,126.8,1785098827553.0
0.746,-0.994,-0.013,-12.09,15.63,120.33,1785098827553.2969
0.725,-1.018,0.009,-6.16,17.18,117.07,1785098827553.5933
0.718,-1.047,0.034,-3.48,18.34,112.49,1785098827553.88
0.717,-1.053,0.071,-3.27,20.87,106.63,1785098827554.137
0.72,-1.03,0.119,-4.06,22.37,100.99,1785098827554.421
0.729,-0.995,0.11,-2.93,21.39,95.03,1785098827554.708
0.716,-0.981,0.087,-2.2,19.44,88.29,1785098827554.973
0.715,-1.041,0.091,-2.78,14.47,86.67,1785098827555.232
0.71,-1.07,0.103,0.24,10.22,84.48,1785098827555.496
0.688,-1.079,0.077,10.83,8.27,80.36,1785098827555.773
0.679,-1.066,0.039,22.92,7.66,76.05,1785098827556.089
0.671,-1.04,0.012,31.16,7.84,72.76,1785098827556.4119
0.68,-1.017,-0.012,36.35,8.12,71.84,1785098827556.746
0.675,-0.971,-0.041,38.91,9.0,67.32,1785098827557.051
0.693,-0.954,-0.049,37.75,10.53,61.95,1785098827557.307
0.695,-0.939,-0.043,32.9,10.71,53.71,1785098827557.565
0.671,-0.9,-0.072,24.84,10.28,45.14,1785098827557.829
0.644,-0.888,-0.084,14.53,9.86,40.56,1785098827558.086
0.628,-0.902,-0.057,2.9,7.14,36.87,1785098827558.348
0.636,-0.928,-0.028,-6.84,5.65,33.11,1785098827558.6118
0.634,-0.939,-0.009,-12.57,4.36,29.79,1785098827558.87
0.639,-0.939,0.011,-14.89,0.73,26.67,1785098827559.1218
0.638,-0.95,0.021,-14.71,-3.05,22.34,1785098827559.382
0.614,-0.963,0.014,-14.16,-6.62,18.52,1785098827559.647
0.589,-0.954,0.013,-14.13,-10.93,16.97,1785098827559.9092
0.576,-0.937,0.007,-13.92,-16.05,15.63,1785098827560.171
0.564,-0.918,-0.009,-16.27,-21.0,13.34,1785098827560.4338
0.563,-0.921,-0.024,-20.97,-24.9,11.14,1785098827560.704
0.562,-0.952,-0.052,-26.7,-28.53,6.68,1785098827560.956
0.539,-0.963,-0.082,-35.28,-32.38,0.37,1785098827561.2358
0.517,-0.947,-0.116,-44.89,-35.49,-3.97,1785098827561.495
0.504,-0.94,-0.138,-52.83,-37.05,-6.16,1785098827561.733
0.492,-0.936,-0.145,-59.72,-39.0,-9.06,1785098827561.968
0.489,-0.931,-0.155,-66.04,-41.11,-12.27,1785098827562.211
0.483,-0.941,-0.167,-70.31,-42.21,-15.93,1785098827562.4531
0.474,-0.965,-0.177,-71.47,-42.66,-20.02,1785098827562.6882
0.463,-0.997,-0.185,-69.31,-43.09,-24.08,1785098827562.9338
0.447,-1.018,-0.196,-64.15,-43.76,-27.07,1785098827563.178
0.432,-1.017,-0.201,-56.22,-44.34,-28.84,1785098827563.42
0.424,-1.004,-0.198,-46.02,-44.71,-29.33,1785098827563.658
0.422,-0.997,-0.196,-34.61,-45.44,-29.15,1785098827563.8987
0.417,-0.993,-0.194,-23.83,-46.54,-28.96,1785098827564.141
0.41,-0.98,-0.204,-13.76,-47.4,-28.81,1785098827564.377
0.413,-0.977,-0.22,-5.04,-47.09,-29.18,1785098827564.617
0.397,-0.965,-0.244,0.67,-46.75,-32.2,1785098827564.8582
0.384,-0.946,-0.257,1.65,-46.72,-34.21,1785098827565.096
0.384,-0.945,-0.252,0.85,-47.15,-33.48,1785098827565.326
0.383,-0.97,-0.247,1.56,-47.33,-31.53,1785098827565.565
0.375,-0.975,-0.238,3.45,-47.43,-30.7,1785098827565.803
0.356,-0.949,-0.231,6.59,-47.88,-30.73,1785098827566.034
0.356,-0.92,-0.233,10.5,-48.49,-31.56,1785098827566.2852
0.346,-0.894,-0.243,12.79,-49.56,-33.94,1785098827566.536
0.34,-0.878,-0.247,12.39,-50.2,-33.85,1785098827566.799
0.337,-0.87,-0.257,11.96,-49.96,-32.72,1785098827567.035
0.331,-0.867,-0.272,11.99,-49.29,-31.22,1785098827567.2769
0.332,-0.858,-0.285,12.05,-47.94,-29.6,1785098827567.5251
0.327,-0.844,-0.295,10.83,-46.88,-29.05,1785098827567.744
0.326,-0.837,-0.302,7.17,-45.84,-28.02,1785098827567.9678
0.327,-0.835,-0.302,2.38,-44.31,-26.61,1785098827568.188
0.326,-0.843,-0.295,-2.41,-42.45,-25.03,1785098827568.4102
0.326,-0.841,-0.281,-7.05,-40.74,-23.8,1785098827568.6282
0.327,-0.832,-0.27,-10.5,-39.43,-23.07,1785098827568.851
0.34,-0.845,-0.261,-10.22,-37.69,-21.67,1785098827569.075
0.343,-0.868,-0.248,-6.74,-35.62,-20.48,1785098827569.303
0.34,-0.882,-0.238,-0.46,-33.81,-18.77,1785098827569.525
0.341,-0.892,-0.237,8.7,-31.95,-16.51,1785098827569.7488
0.339,-0.884,-0.245,17.21,-30.61,-14.25,1785098827569.983
0.341,-0.866,-0.253,23.77,-29.08,-10.68,1785098827570.204
0.345,-0.855,-0.26,28.57,-27.13,-7.26,1785098827570.431
0.345,-0.852,-0.268,30.4,-24.93,-4.88,1785098827570.6692
0.346,-0.851,-0.271,29.79,-22.55,-2.2,1785098827570.896
0.347,-0.848,-0.266,27.5,-20.11,-0.24,1785098827571.1172
0.349,-0.844,-0.26,23.56,-17.94,1.43,1785098827571.35
0.356,-0.853,-0.254,18.92,-16.02,3.23,1785098827571.5818
0.361,-0.87,-0.243,14.5,-14.47,3.85,1785098827571.798
0.361,-0.878,-0.231,10.77,-13.18,3.91,1785098827572.0361
0.357,-0.88,-0.224,9.67,-11.93,5.1,1785098827572.2617
0.365,-0.887,-0.224,11.47,-11.26,6.74,1785098827572.526
0.371,-0.899,-0.228,14.4,-10.71,7.78,1785098827572.74
0.363,-0.896,-0.23,17.27,-10.74,9.34,1785098827572.975
0.365,-0.888,-0.232,20.78,-10.77,11.75,1785098827573.209
0.367,-0.88,-0.239,24.81,-10.47,13.55,1785098827573.448
0.368,-0.87,-0.243,27.28,-10.16,15.26,1785098827573.676
0.372,-0.871,-0.246,28.47,-10.13,17.24,1785098827573.899
0.376,-0.873,-0.252,29.27,-10.35,17.94,1785098827574.145
0.375,-0.878,-0.258,29.33,-10.5,18.07,1785098827574.3843
0.369,-0.888,-0.26,28.41,-11.11,19.5,1785098827574.666
0.376,-0.904,-0.263,27.38,-11.6,21.82,1785098827574.925
0.379,-0.903,-0.264,27.16,-11.75,22.98,1785098827575.1582
0.375,-0.893,-0.267,27.28,-11.81,22.68,1785098827575.3657
0.382,-0.891,-0.271,26.28,-11.96,21.88,1785098827575.582
0.385,-0.904,-0.272,24.11,-11.87,20.33,1785098827575.805
0.382,-0.926,-0.272,21.97,-11.02,19.2,1785098827576.0159
0.385,-0.938,-0.268,21.12,-10.68,19.17,1785098827576.2407
0.393,-0.942,-0.261,21.91,-10.62,19.41,1785098827576.4531
0.393,-0.939,-0.258,23.1,-10.41,18.25,1785098827576.669
0.392,-0.937,-0.257,23.16,-10.28,17.37,1785098827576.8718
0.403,-0.944,-0.259,21.82,-10.04,16.85,1785098827577.087
0.403,-0.946,-0.262,19.26,-9.4,15.47,1785098827577.301
0.395,-0.941,-0.259,16.11,-8.7,13.92,1785098827577.503
0.397,-0.948,-0.257,13.4,-7.87,13.37,1785098827577.7148
0.4,-0.954,-0.255,11.05,-6.93,12.91,1785098827577.93
0.395,-0.952,-0.249,9.98,-5.74,12.05,1785098827578.1409
0.394,-0.947,-0.24,9.98,-4.58,11.69,1785098827578.3438
0.394,-0.944,-0.232,10.16,-3.66,11.11,1785098827578.5688
0.396,-0.94,-0.226,9.95,-2.99,9.77,1785098827578.787
0.391,-0.935,-0.225,8.97,-2.17,8.21,1785098827578.988
0.389,-0.94,-0.221,6.93,-1.37,7.17,1785098827579.1948
0.389,-0.948,-0.21,4.46,-0.58,6.62,1785098827579.4128
0.389,-0.957,-0.204,2.62,0.12,5.43,1785098827579.62
0.389,-0.957,-0.204,0.76,0.76,3.97,1785098827579.842
0.39,-0.963,-0.199,-1.59,1.4,3.02,1785098827580.074
0.386,-0.959,-0.198,-4.06,2.04,2.78,1785098827580.273
0.386,-0.95,-0.197,-6.35,2.72,2.75,1785098827580.493
0.386,-0.939,-0.192,-8.06,3.17,2.56,1785098827580.701
0.384,-0.941,-0.187,-8.06,3.17,2.56,1785098827580.9128
0.385,-0.95,-0.182,-9.25,3.91,1.86,1785098827581.117
0.378,-0.958,-0.178,-9.74,4.46,0.67,1785098827581.3298
0.371,-0.957,-0.175,-9.58,4.76,-0.06,1785098827581.534
0.374,-0.95,-0.176,-9.03,5.31,-0.15,1785098827581.7312
0.375,-0.937,-0.177,-8.48,5.92,-0.34,1785098827581.928
0.371,-0.926,-0.173,-8.97,6.38,-0.31,1785098827582.1372
0.369,-0.92,-0.172,-9.37,6.56,-0.15,1785098827582.3318
0.363,-0.921,-0.174,-9.46,6.93,-0.06,1785098827582.5322
0.359,-0.926,-0.169,-9.61,7.39,-0.24,1785098827582.747
0.363,-0.934,-0.167,-9.61,7.17,-0.73,1785098827582.947
0.364,-0.94,-0.173,-10.47,6.93,-1.5,1785098827583.1392
0.355,-0.936,-0.173,-12.15,6.56,-1.46,1785098827583.735
0.351,-0.938,-0.17,-11.23,6.32,-1.19,1785098827583.932
-0.6,-0.975,-0.66,-11.57,3.88,-9.34,1785098827584.195
-0.7,-1.008,-0.715,6.56,7.08,-12.3,1785098827584.408
-0.806,-0.977,-0.708,20.63,9.61,-12.36,1785098827584.615
-0.883,-0.966,-0.654,30.7,11.35,-12.97,1785098827593.465
-0.938,-0.982,-0.592,36.44,13.0,-17.3,1785098827599.118
-0.978,-1.005,-0.556,40.19,14.5,-23.04,1785098827609.908
-1.008,-1.02,-0.558,43.92,14.44,-29.94,1785098827620.6091
-1.037,-0.986,-0.585,46.11,11.54,-38.97,1785098827633.7878
-1.019,-0.928,-0.65,47.73,9.34,-45.96,1785098827639.431
-0.996,-0.9,-0.743,51.91,11.78,-54.9,1785098827650.177
-1.025,-0.917,-0.841,52.61,14.59,-66.99,1785098827663.438
-1.052,-0.946,-0.866,46.45,17.12,-78.22,1785098827669.0947
-1.071,-1.005,-0.832,41.26,21.09,-89.33,1785098827679.863
-1.062,-1.058,-0.773,38.79,23.53,-96.71,1785098827690.5378
-1.009,-1.042,-0.742,37.05,25.18,-96.59,1785098827703.796
-0.942,-0.983,-0.72,35.89,26.18,-91.86,1785098827709.564
-0.889,-0.905,-0.721,32.14,25.15,-87.25,1785098827720.379
-0.863,-0.857,-0.709,23.74,23.62,-83.29,1785098827733.606
-0.86,-0.893,-0.651,15.23,21.42,-79.9,1785098827739.327
-0.861,-0.97,-0.567,10.83,18.37,-76.94,1785098827750.0212
-0.833,-1.037,-0.5,13.95,15.56,-72.45,1785098827760.738
-0.765,-1.038,-0.495,24.23,13.52,-63.81,1785098827774.0889
-0.657,-0.943,-0.493,35.77,10.8,-50.05,1785098827780.022
-0.517,-0.858,-0.51,43.21,4.88,-35.62,1785098827790.491
-0.417,-0.815,-0.533,41.41,-1.4,-27.13,1785098827803.9192
-0.37,-0.811,-0.524,32.93,-6.38,-23.32,1785098827809.6167
-0.36,-0.83,-0.498,23.62,-10.74,-21.49,1785098827820.138
-0.349,-0.863,-0.515,18.92,-14.07,-19.32,1785098827830.612
-0.312,-0.867,-0.543,17.94,-14.83,-16.14,1785098827844.1401
-0.257,-0.848,-0.564,19.84,-13.76,-11.57,1785098827849.8071
-0.199,-0.854,-0.592,24.02,-11.99,-8.58,1785098827860.259
-0.162,-0.865,-0.616,27.07,-9.28,-9.43,1785098827870.767
-0.134,-0.844,-0.613,25.85,-6.59,-11.78,1785098827884.048
-0.099,-0.824,-0.585,21.85,-3.97,-14.47,1785098827889.919
-0.066,-0.835,-0.537,17.15,-1.56,-18.28,1785098827900.278
-0.059,-0.875,-0.468,14.65,0.67,-23.87,1785098827910.7102
-0.071,-0.971,-0.437,20.26,3.88,-29.48,1785098827923.9978
-0.099,-1.055,-0.49,33.39,9.52,-35.92,1785098827929.857
-0.109,-1.063,-0.588,49.32,17.73,-38.88,1785098827940.234
-0.065,-1.093,-0.659,66.87,27.47,-39.58,1785098827953.6907
-0.005,-1.147,-0.655,79.74,36.74,-45.75,1785098827959.4822
0.03,-1.153,-0.572,85.63,42.85,-53.9,1785098827970.072
0.059,-1.1,-0.471,91.04,46.45,-56.76,1785098827980.556
0.11,-1.166,-0.447,105.14,49.59,-59.42,1785098827993.854
0.1,-1.229,-0.452,116.95,52.22,-71.29,1785098827999.7927
0.077,-1.224,-0.439,125.49,54.45,-83.22,1785098828010.582
0.098,-1.26,-0.396,139.99,55.64,-92.84,1785098828023.915
0.133,-1.327,-0.361,161.75,54.63,-105.56,1785098828029.804
0.171,-1.342,-0.373,186.22,54.11,-119.72,1785098828040.774
0.171,-1.342,-0.373,208.04,52.95,-129.43,1785098828054.1
0.224,-1.239,-0.41,221.87,49.62,-135.5,1785098828059.968
0.32,-1.058,-0.464,220.28,45.81,-141.27,1785098828073.411
0.431,-0.876,-0.531,194.62,42.63,-148.35,1785098828079.343
0.518,-0.672,-0.576,153.63,41.02,-154.42,1785098828090.375
0.655,-0.568,-0.602,153.63,41.02,-154.42,1785098828103.771
0.808,-0.555,-0.566,102.73,40.35,-166.3,1785098828109.594
0.897,-0.441,-0.491,48.34,41.96,-190.4,1785098828120.543
0.949,-0.383,-0.488,2.38,41.63,-200.66,1785098828133.713
1.078,-0.346,-0.471,-31.1,37.97,-197.52,1785098828139.7341
1.132,-0.263,-0.478,-47.7,37.57,-199.53,1785098828150.387
1.113,-0.253,-0.41,-52.22,44.19,-195.01,1785098828163.583
1.234,-0.403,-0.354,-47.61,43.76,-181.07,1785098828170.4587
1.342,-0.414,-0.311,-41.78,37.93,-185.8,1785098828180.33
1.422,-0.301,-0.292,-35.83,34.09,-201.42,1785098828193.625
1.459,-0.178,-0.334,-35.46,30.85,-221.5,1785098828199.554
1.397,-0.038,-0.368,-46.54,25.97,-239.91,1785098828210.306
1.385,-0.084,-0.333,-59.97,21.52,-231.6,1785098828223.584
1.508,-0.222,-0.248,-62.41,20.29,-214.36,1785098828229.539
1.503,-0.2,-0.214,-60.0,15.5,-218.05,1785098828240.25
1.454,-0.149,-0.183,-64.91,8.97,-214.97,1785098828253.5369
1.496,-0.174,-0.175,-78.28,4.67,-201.85,1785098828259.453
1.505,-0.148,-0.197,-100.25,2.69,-198.28,1785098828270.057
1.467,-0.148,-0.214,-124.76,4.36,-194.37,1785098828280.774
1.443,-0.274,-0.196,-145.27,6.16,-177.95,1785098828294.046
1.406,-0.371,-0.144,-152.65,7.32,-163.55,1785098828300.0168
1.399,-0.47,-0.166,-141.88,4.85,-145.82,1785098828310.7432
1.363,-0.553,-0.183,-118.08,1.53,-121.07,1785098828323.862
1.249,-0.572,-0.155,-85.12,5.74,-93.2,1785098828329.874
1.157,-0.54,-0.155,-50.51,9.55,-60.55,1785098828340.353
1.082,-0.444,-0.154,-25.7,9.95,-26.98,1785098828353.5737
0.946,-0.255,-0.128,-18.98,10.62,3.6,1785098828359.519
0.88,-0.129,-0.134,-28.75,11.11,36.5,1785098828369.891
0.789,-0.092,-0.123,-50.84,10.71,65.77,1785098828380.507
0.583,-0.141,-0.052,-73.37,6.62,91.28,1785098828393.7778
0.297,-0.218,0.033,-84.81,-4.18,114.44,1785098828399.657
0.036,-0.285,0.09,-78.71,-19.56,140.08,1785098828410.2202
-0.192,-0.403,0.086,-56.49,-36.93,166.6,1785098828423.504
-0.422,-0.456,0.041,-37.69,-54.81,187.35,1785098828429.452
-0.627,-0.454,-0.01,-33.23,-74.4,208.14,1785098828440.2627
-0.797,-0.552,-0.125,-40.62,-91.13,225.04,1785098828453.543
-0.984,-0.705,-0.317,-66.35,-102.91,224.95,1785098828459.1338
-1.19,-0.854,-0.523,-108.31,-108.25,214.88,1785098828470.468
-1.31,-1.021,-0.729,-149.66,-106.63,205.45,1785098828483.7273
-1.316,-1.174,-0.955,-177.68,-98.09,194.77,1785098828489.5208
-1.238,-1.263,-1.139,-189.25,-81.3,176.76,1785098828500.8088
-1.093,-1.293,-1.202,-188.09,-56.58,148.81,1785098828513.984
-0.888,-1.227,-1.112,-182.9,-29.15,113.47,1785098828519.936
-0.677,-1.08,-0.812,-173.96,-3.51,76.97,1785098828530.792
-0.512,-0.964,-0.42,-148.87,15.81,39.77,1785098828544.084
-0.381,-0.968,-0.116,-100.31,28.38,-1.98,1785098828550.003
-0.324,-1.061,0.032,-31.16,31.77,-50.51,1785098828560.6248
-0.381,-1.115,0.015,46.51,31.13,-106.78,1785098828573.94
-0.527,-1.088,-0.155,116.73,28.78,-157.75,1785098828579.811
-0.663,-1.087,-0.407,167.24,28.69,-193.82,1785098828590.7422
-0.816,-1.052,-0.626,186.44,25.27,-219.18,1785098828604.031
-0.93,-0.899,-0.748,171.91,21.58,-234.02,1785098828609.928
-0.961,-0.777,-0.832,137.18,21.24,-236.3,1785098828623.451
-0.859,-0.767,-0.839,91.56,24.66,-234.05,1785098828629.3398
-0.727,-0.719,-0.756,44.4,30.92,-238.11,1785098828640.211
-0.576,-0.674,-0.625,14.8,44.5,-239.66,1785098828653.624
-0.411,-0.693,-0.52,11.44,59.69,-237.01,1785098828659.036
-0.258,-0.681,-0.463,25.33,72.24,-231.03,1785098828670.314
-0.125,-0.594,-0.362,47.27,82.34,-217.69,1785098828683.3853
0.002,-0.557,-0.281,76.27,86.34,-194.07,1785098828689.3901
0.148,-0.499,-0.277,105.69,88.56,-167.49,1785098828700.185
0.349,-0.345,-0.284,129.22,95.19,-139.53,1785098828713.461
0.632,-0.187,-0.283,147.68,108.34,-110.35,1785098828719.4639
0.962,-0.023,-0.261,156.8,125.61,-81.21,1785098828730.515
1.286,0.124,-0.2,157.29,144.11,-47.36,1785098828743.857
1.541,0.229,-0.107,151.4,158.51,-8.03,1785098828749.737
1.691,0.273,0.005,143.38,163.52,32.99,1785098828760.69
1.732,0.282,0.154,138.68,157.44,70.35,1785098828773.9949
1.766,0.219,0.343,146.92,141.94,97.54,1785098828779.8801
1.848,0.059,0.457,173.89,122.44,107.94,1785098828793.426
1.936,-0.078,0.417,204.32,105.11,105.99,1785098828799.4182
2.071,-0.035,0.335,218.76,89.69,107.18,1785098828810.519
2.323,0.041,0.214,216.96,67.93,110.48,1785098828823.784
2.598,0.015,0.039,194.34,38.94,102.76,1785098828829.6902
2.763,-0.051,-0.1,147.22,6.84,83.77,1785098828840.5461
2.771,-0.17,-0.2,94.18,-25.79,59.51,1785098828853.91
2.651,-0.306,-0.294,49.1,-55.82,35.89,1785098828859.7188
2.474,-0.407,-0.39,12.7,-80.23,19.32,1785098828870.36
2.397,-0.47,-0.433,-19.14,-94.3,10.41,1785098828883.478
2.18,-0.292,-0.43,-51.18,-95.71,-18.56,1785098828889.499
2.067,-0.191,-0.362,-81.91,-82.09,-45.11,1785098828899.883
2.041,-0.206,-0.281,-103.95,-68.64,-68.06,1785098828910.6428
1.884,-0.203,-0.198,-116.0,-61.95,-88.93,1785098828923.9512
1.777,-0.219,-0.107,-114.87,-49.04,-96.35,1785098828929.847
1.8,-0.227,-0.046,-106.72,-35.89,-95.86,1785098828940.646
1.78,-0.134,0.03,-101.63,-30.21,-96.5,1785098828954.022
1.68,-0.101,0.129,-98.7,-24.93,-93.08,1785098828959.858
1.568,-0.189,0.178,-96.13,-19.81,-82.67,1785098828970.546
1.429,-0.275,0.188,-94.79,-18.37,-69.86,1785098828983.667
1.289,-0.287,0.183,-96.16,-18.98,-51.7,1785098828989.648
1.195,-0.26,0.165,-99.61,-21.12,-24.93,1785098829000.095
1.094,-0.224,0.135,-104.13,-24.41,3.91,1785098829010.7441
0.976,-0.166,0.116,-110.69,-26.92,30.64,1785098829024.02
0.874,-0.148,0.162,-115.76,-28.78,58.08,1785098829029.9622
0.738,-0.265,0.208,-113.41,-35.22,82.77,1785098829040.733
0.522,-0.416,0.168,-108.46,-47.82,97.29,1785098829054.0312
0.275,-0.461,0.118,-106.69,-63.17,106.42,1785098829059.9138
0.067,-0.464,0.048,-104.56,-81.15,117.37,1785098829073.3818
-0.114,-0.462,-0.052,-103.12,-98.45,127.72,1785098829079.352
-0.242,-0.532,-0.178,-103.76,-112.25,138.86,1785098829090.942
-0.375,-0.705,-0.282,-107.27,-122.87,146.28,1785098829103.772
-0.56,-0.911,-0.427,-108.37,-128.36,144.75,1785098829109.65
-0.759,-1.127,-0.616,-100.8,-127.57,136.36,1785098829121.023
-0.945,-1.317,-0.851,-86.12,-122.23,124.39,1785098829134.1118
-1.073,-1.409,-1.051,-70.07,-107.06,110.51,1785098829140.1128
-1.105,-1.51,-1.175,-49.87,-82.86,92.96,1785098829153.676
-1.064,-1.639,-1.218,-30.18,-51.85,64.88,1785098829159.5168
-0.998,-1.7,-1.068,-17.4,-20.72,27.62,1785098829170.128
-0.91,-1.632,-0.799,-2.93,4.18,-10.53,1785098829180.413
-0.839,-1.476,-0.596,24.14,23.41,-46.14,1785098829193.666
-0.794,-1.241,-0.545,58.72,37.51,-77.79,1785098829199.5862
-0.73,-1.022,-0.6,89.72,48.74,-107.09,1785098829210.227
-0.676,-0.898,-0.65,105.29,55.79,-138.22,1785098829223.499
-0.641,-0.868,-0.649,100.83,58.84,-167.52,1785098829229.464
-0.597,-0.889,-0.588,82.98,60.43,-188.24,1785098829240.361
-0.523,-0.895,-0.477,65.8,61.56,-199.01,1785098829253.645
-0.408,-0.891,-0.405,60.55,62.47,-201.54,1785098829259.52
-0.305,-0.81,-0.349,63.3,63.72,-197.18,1785098829270.341
-0.185,-0.683,-0.278,72.15,63.39,-182.53,1785098829283.5671
-0.003,-0.525,-0.248,86.92,62.14,-161.75,1785098829289.596
0.227,-0.32,-0.221,103.4,64.85,-138.25,1785098829300.375
0.506,-0.185,-0.22,121.22,69.77,-114.29,1785098829313.657
0.784,-0.097,-0.244,131.38,76.11,-95.13,1785098829319.604
1.056,-0.006,-0.241,129.7,83.86,-77.33,1785098829330.425
1.056,-0.006,-0.241,122.1,89.51,-57.28,1785098829343.751
1.335,0.073,-0.199,112.13,90.15,-36.65,1785098829349.629
1.586,0.114,-0.102,100.41,84.87,-17.52,1785098829360.408
1.789,0.123,-0.054,84.93,81.09,-0.73,1785098829373.667
1.981,0.132,-0.062,64.82,78.98,12.57,1785098829379.5369
2.127,0.178,-0.069,64.82,78.98,12.57,1785098829389.9893
2.283,0.267,-0.086,40.71,74.89,23.77,1785098829400.663
2.479,0.359,-0.123,14.5,68.18,29.11,1785098829413.918
2.659,0.443,-0.11,-11.84,61.46,27.5,1785098829419.873
2.716,0.484,-0.065,-35.28,54.23,19.01,1785098829430.35
2.658,0.494,-0.039,-56.37,44.1,5.04,1785098829443.614
2.589,0.52,-0.036,-75.47,31.74,-12.27,1785098829449.4897
2.52,0.547,-0.036,-91.8,19.07,-30.34,1785098829459.9932
2.379,0.592,-0.044,-106.48,8.97,-49.71,1785098829470.878
2.184,0.615,-0.042,-120.7,2.5,-67.2,1785098829483.989
2.027,0.53,-0.022,-132.02,-3.14,-73.7,1785098829489.394
1.875,0.371,0.033,-133.24,-5.62,-67.96,1785098829500.33
1.711,0.267,0.088,-121.28,-4.64,-61.59,1785098829513.681
1.622,0.219,0.08,-104.01,-8.18,-53.93,1785098829519.698
1.526,0.229,0.075,-92.2,-14.47,-43.76,1785098829530.033
1.446,0.232,0.07,-86.86,-19.47,-29.02,1785098829540.725
1.39,0.202,0.054,-86.09,-22.92,-10.59,1785098829554.052
1.303,0.149,0.05,-87.37,-25.88,8.94,1785098829559.868
1.194,0.088,0.05,-89.33,-29.48,30.24,1785098829570.467
1.071,0.055,0.045,-91.19,-35.58,51.88,1785098829583.5588
0.922,0.047,0.035,-92.9,-44.16,72.51,1785098829589.527
0.79,0.008,0.043,-91.19,-52.46,95.89,1785098829600.0159
0.663,-0.089,0.073,-80.75,-62.35,120.18,1785098829610.75
0.475,-0.185,0.1,-59.88,-77.21,138.49,1785098829624.0298
0.272,-0.287,0.101,-29.79,-95.52,152.96,1785098829630.06
0.102,-0.388,0.053,0.15,-114.2,166.33,1785098829640.7769
-0.047,-0.467,-0.069,19.14,-131.57,175.88,1785098829654.191
-0.219,-0.553,-0.265,19.47,-144.26,179.78,1785098829659.947
-0.396,-0.663,-0.486,-0.34,-149.24,178.01,1785098829670.958
-0.563,-0.953,-0.724,-28.41,-148.99,169.87,1785098829684.0762
-0.737,-1.414,-0.967,-55.39,-143.38,149.11,1785098829690.098
-0.923,-1.887,-1.181,-69.37,-128.39,114.41,1785098829703.667
-1.057,-2.168,-1.288,-65.92,-106.23,84.05,1785098829709.496
-1.064,-2.171,-1.211,-48.13,-79.07,64.03,1785098829720.162
-1.029,-1.933,-0.967,-21.0,-51.3,39.16,1785098829730.8809
-0.981,-1.568,-0.752,6.1,-25.64,7.17,1785098829744.121
-0.855,-1.237,-0.657,27.47,3.2,-25.91,1785098829750.012
-0.696,-1.012,-0.626,42.45,32.87,-63.33,1785098829760.295
-0.496,-0.955,-0.604,56.22,57.59,-104.46,1785098829773.6099
-0.352,-1.01,-0.578,68.3,72.6,-148.38,1785098829779.1328
-0.265,-1.104,-0.513,77.12,79.13,-183.54,1785098829790.2761
-0.236,-1.156,-0.475,83.29,77.85,-202.46,1785098829803.669
-0.247,-1.064,-0.471,85.91,74.71,-199.38,1785098829809.479
-0.176,-0.907,-0.478,91.22,74.4,-178.59,1785098829820.3787
-0.009,-0.756,-0.494,101.99,77.52,-157.44,1785098829833.473
0.16,-0.571,-0.476,111.85,83.41,-143.8,1785098829839.4858
0.341,-0.395,-0.449,119.39,89.66,-131.75,1785098829850.476
0.542,-0.253,-0.45,121.92,95.22,-117.83,1785098829863.747
0.743,-0.123,-0.409,117.16,100.92,-99.31,1785098829869.919
0.935,-0.044,-0.3,112.46,107.55,-76.97,1785098829880.68
1.129,-0.04,-0.185,114.6,115.33,-56.31,1785098829893.985
1.358,-0.05,-0.07,121.28,123.17,-39.4,1785098829899.937
1.623,-0.042,0.038,128.27,125.28,-22.95,1785098829913.3599
1.885,0.012,0.094,128.24,115.79,-3.36,1785098829919.564
2.061,0.13,0.141,117.01,96.9,17.46,1785098829930.1702
2.063,0.254,0.204,98.42,75.53,32.23,1785098829940.801
1.976,0.343,0.232,76.24,58.44,36.74,1785098829954.153
1.999,0.413,0.224,48.01,48.19,34.03,1785098829959.989
2.17,0.436,0.235,13.09,39.89,24.41,1785098829970.613
2.311,0.398,0.227,-21.97,28.78,5.46,1785098829983.737
2.333,0.347,0.206,-51.76,16.51,-17.7,1785098829989.8738
2.275,0.332,0.172,-72.39,2.2,-36.62,1785098829999.9968
2.181,0.363,0.131,-84.54,-12.97,-49.93,1785098830010.581
2.064,0.421,0.085,-89.63,-25.61,-59.08,1785098830023.768
1.94,0.454,0.04,-89.21,-33.6,-63.3,1785098830029.681
1.806,0.434,0.005,-84.96,-36.53,-63.3,1785098830040.3772
1.673,0.397,-0.008,-80.14,-34.73,-59.6,1785098830054.037
1.564,0.359,-0.006,-75.32,-31.19,-52.1,1785098830059.9092
1.558,0.314,0.009,-72.97,-29.24,-42.24,1785098830070.6812
1.475,0.287,0.015,-74.95,-33.54,-33.11,1785098830080.7668
1.354,0.29,0.041,-79.93,-32.32,-26.0,1785098830094.03
1.342,0.237,0.039,-90.82,-30.88,-14.56,1785098830099.9182
1.301,0.193,0.066,-104.34,-35.19,-0.82,1785098830110.4277
1.213,0.159,0.09,-111.51,-36.62,12.51,1785098830123.721
1.17,0.131,0.087,-116.06,-39.34,27.71,1785098830129.604
1.13,0.134,0.076,-120.24,-44.43,41.93,1785098830140.3992
1.061,0.12,0.074,-122.81,-49.07,56.79,1785098830153.75
0.972,0.083,0.088,-121.4,-54.78,73.43,1785098830159.6228
0.876,0.049,0.104,-112.67,-62.59,90.37,1785098830170.5332
0.767,0.015,0.103,-96.8,-72.02,108.34,1785098830183.64
0.674,-0.017,0.095,-78.07,-83.56,127.11,1785098830189.608
0.571,-0.049,0.068,-60.27,-97.96,143.99,1785098830200.1172
0.439,-0.082,0.044,-46.02,-114.11,160.22,1785098830213.6472
0.279,-0.161,0.025,-31.95,-131.2,176.52,1785098830219.5698
0.085,-0.256,-0.059,-15.47,-146.86,189.49,1785098830230.578
-0.096,-0.387,-0.17,5.49,-158.48,200.75,1785098830243.826
-0.284,-0.548,-0.32,24.84,-168.65,207.95,1785098830249.7458
-0.46,-0.722,-0.532,27.95,-176.49,208.75,1785098830260.6887
-0.658,-0.889,-0.748,6.2,-179.69,203.5,1785098830273.982
-0.843,-1.105,-0.97,-32.17,-176.12,192.24,1785098830279.8801
-1.024,-1.328,-1.235,-79.99,-165.44,170.2,1785098830290.869
-1.096,-1.455,-1.446,-129.03,-144.23,147.07,1785098830304.097
-0.965,-1.568,-1.537,-155.37,-110.54,123.42,1785098830310.056
-0.796,-1.624,-1.49,-149.02,-71.08,88.69,1785098830323.7122
-0.688,-1.557,-1.268,-116.95,-32.9,50.54,1785098830329.621
-0.616,-1.425,-0.952,-67.45,0.4,16.66,1785098830340.1558
-0.609,-1.281,-0.632,-8.64,26.34,-14.1,1785098830350.765
-0.607,-1.104,-0.444,52.71,42.91,-41.72,1785098830364.018
-0.512,-0.948,-0.43,109.74,57.22,-73.43,1785098830369.971
-0.445,-0.837,-0.532,145.05,67.66,-114.29,1785098830380.8992
-0.403,-0.759,-0.663,145.42,71.47,-151.71,1785098830394.0322
-0.356,-0.729,-0.769,114.87,72.08,-173.92,1785098830399.9949
-0.323,-0.699,-0.776,69.37,74.92,-181.13,1785098830410.871
-0.297,-0.714,-0.73,30.49,83.41,-178.66,1785098830424.124
-0.269,-0.782,-0.658,9.74,94.0,-172.15,1785098830430.041
-0.23,-0.847,-0.572,8.91,103.0,-164.8,1785098830440.7869
-0.122,-0.926,-0.495,29.51,110.97,-155.67,1785098830454.066
-0.02,-0.911,-0.418,62.65,116.37,-147.16,1785098830459.9731
0.102,-0.803,-0.365,99.34,116.34,-131.2,1785098830473.459
0.287,-0.727,-0.365,136.6,112.74,-110.75,1785098830479.34
0.421,-0.618,-0.36,162.88,110.9,-94.06,1785098830490.24
0.63,-0.469,-0.291,179.63,116.12,-78.98,1785098830503.804
0.82,-0.33,-0.262,189.79,119.88,-71.02,1785098830509.6892
1.021,-0.206,-0.248,185.19,120.88,-60.21,1785098830520.7678
1.24,-0.101,-0.184,166.45,118.66,-45.29,1785098830533.985
1.41,-0.001,-0.095,141.76,114.17,-33.51,1785098830539.9612
1.544,0.018,-0.017,118.96,107.58,-22.89,1785098830553.524
1.685,-0.01,0.034,99.83,99.61,-13.34,1785098830559.343
1.865,-0.0,0.068,83.8,94.64,-6.9,1785098830569.99
2.0,0.068,0.135,67.54,88.02,-0.82,1785098830580.436
2.093,0.136,0.185,53.01,74.62,8.85,1785098830593.6748
2.202,0.185,0.184,41.75,58.38,14.56,1785098830599.591
2.322,0.258,0.152,29.76,44.01,11.78,1785098830610.0537
2.397,0.374,0.13,11.23,31.1,5.62,1785098830620.648
2.397,0.374,0.13,-12.82,17.88,-1.13,1785098830633.9578
2.408,0.475,0.117,-37.11,6.87,-8.3,1785098830639.494
2.378,0.523,0.103,-57.71,-0.21,-16.72,1785098830649.931
2.285,0.513,0.105,-71.32,-5.16,-25.03,1785098830660.542
2.116,0.474,0.136,-71.32,-5.16,-25.03,1785098830673.909
1.946,0.391,0.154,-74.34,-9.92,-29.05,1785098830679.6812
1.794,0.311,0.153,-68.76,-14.74,-30.79,1785098830690.093
1.663,0.296,0.131,-61.22,-19.38,-32.78,1785098830700.73
1.589,0.327,0.105,-57.56,-22.34,-33.2,1785098830713.97
1.549,0.349,0.081,-60.21,-23.22,-32.26,1785098830720.0288
1.502,0.335,0.051,-70.22,-23.71,-30.3,1785098830730.404
1.462,0.284,0.039,-86.64,-24.29,-26.12,1785098830743.731
1.405,0.218,0.046,-106.08,-25.82,-16.79,1785098830749.614
1.332,0.151,0.065,-123.11,-28.57,-2.2,1785098830760.226
1.333,0.102,0.095,-134.98,-32.84,15.14,1785098830773.518
1.28,0.098,0.143,-140.08,-40.13,31.74,1785098830779.412
1.18,0.053,0.183,-132.27,-47.94,48.68,1785098830790.1921
1.129,-0.057,0.153,-114.17,-56.22,65.25,1785098830803.5488
1.047,-0.141,0.145,-93.51,-65.58,79.99,1785098830809.377
0.923,-0.184,0.119,-70.04,-76.91,94.67,1785098830820.128
0.828,-0.197,0.037,-47.58,-89.08,112.74,1785098830830.698
0.745,-0.169,-0.056,-32.38,-99.22,132.42,1785098830843.982
0.631,-0.177,-0.152,-24.05,-105.38,150.88,1785098830849.877
0.458,-0.277,-0.283,-24.26,-109.26,164.65,1785098830860.887
0.236,-0.462,-0.385,-35.52,-112.58,172.86,1785098830874.125
-0.033,-0.645,-0.404,-51.67,-117.83,177.37,1785098830880.022
-0.271,-0.845,-0.433,-58.14,-124.36,183.08,1785098830893.547
-0.469,-1.145,-0.54,-53.62,-131.87,186.25,1785098830899.4849
-0.672,-1.442,-0.682,-51.42,-137.82,180.36,1785098830910.468
-0.869,-1.639,-0.818,-56.37,-135.93,169.53,1785098830923.7727
-0.975,-1.733,-0.923,-61.71,-124.36,158.45,1785098830929.6638
-0.925,-1.79,-1.007,-59.91,-105.01,143.28,1785098830940.774
-0.814,-1.84,-1.034,-49.26,-79.62,112.77,1785098830954.1719
-0.773,-1.818,-0.973,-34.39,-50.33,64.0,1785098830960.377
-0.758,-1.719,-0.851,-16.36,-20.26,11.41,1785098830970.6362
-0.736,-1.539,-0.676,6.59,4.85,-33.3,1785098830983.779
-0.687,-1.321,-0.581,38.67,23.74,-69.89,1785098830989.696
-0.586,-1.136,-0.606,74.86,40.01,-102.94,1785098831000.121
-0.487,-1.059,-0.681,104.16,52.22,-139.23,1785098831013.3782
-0.443,-1.029,-0.719,114.08,60.24,-175.66,1785098831019.37
-0.413,-1.064,-0.695,108.37,66.68,-200.81,1785098831030.339
-0.393,-1.092,-0.653,96.53,72.57,-213.2,1785098831043.613
-0.368,-1.059,-0.608,86.7,78.86,-212.23,1785098831049.52
-0.29,-0.948,-0.551,83.53,84.84,-200.42,1785098831060.316
-0.167,-0.805,-0.475,88.81,88.96,-185.77,1785098831073.588
-0.019,-0.656,-0.423,100.25,91.92,-173.59,1785098831079.4858
0.152,-0.551,-0.372,116.31,94.97,-164.01,1785098831090.4893
0.311,-0.494,-0.369,135.04,95.28,-158.79,1785098831103.84
0.45,-0.408,-0.393,148.14,96.1,-153.32,1785098831109.673
0.603,-0.276,-0.396,151.04,99.19,-141.27,1785098831120.739
0.787,-0.112,-0.352,143.86,102.76,-124.39,1785098831133.9678
0.962,0.011,-0.288,132.73,103.27,-106.11,1785098831139.921
1.13,0.057,-0.246,121.28,101.87,-88.9,1785098831153.706
1.3,0.064,-0.189,108.43,101.99,-76.51,1785098831159.511
1.455,0.073,-0.101,94.85,101.26,-68.39,1785098831170.5442
1.591,0.102,-0.026,78.89,96.84,-61.07,1785098831183.6228
1.685,0.16,0.077,57.5,89.72,-52.34,1785098831189.576
1.713,0.207,0.175,37.17,80.57,-45.35,1785098831200.09
1.78,0.213,0.245,23.68,73.34,-44.07,1785098831210.947
1.964,0.184,0.298,19.14,67.78,-49.32,1785098831224.001
2.133,0.247,0.297,19.53,56.28,-55.06,1785098831229.899
2.201,0.398,0.291,17.79,38.12,-53.25,1785098831240.4312
2.191,0.505,0.275,13.31,18.07,-47.43,1785098831253.697
2.123,0.559,0.217,2.11,-0.55,-43.34,1785098831259.5808
2.021,0.589,0.154,-14.22,-13.09,-44.98,1785098831269.9749
1.932,0.601,0.099,-30.88,-20.48,-52.22,1785098831280.604
1.822,0.6,0.052,-48.37,-24.14,-60.64,1785098831293.98
1.699,0.583,0.024,-66.84,-23.77,-66.41,1785098831299.7917
1.587,0.542,0.021,-82.52,-21.3,-68.67,1785098831310.312
1.489,0.502,0.035,-93.54,-18.52,-67.81,1785098831323.5789
1.426,0.48,0.064,-101.47,-16.14,-62.14,1785098831329.486
1.415,0.438,0.099,-105.53,-13.98,-52.61,1785098831340.201
1.386,0.401,0.14,-107.85,-14.31,-43.79,1785098831353.426
1.354,0.376,0.181,-111.91,-15.75,-35.19,1785098831359.364
1.337,0.343,0.223,-117.65,-18.98,-24.69,1785098831370.1528
1.301,0.301,0.257,-122.29,-23.74,-14.25,1785098831380.88
1.239,0.245,0.282,-124.73,-28.2,-0.58,1785098831394.144
1.205,0.175,0.302,-123.45,-34.46,16.14,1785098831400.074
1.156,0.14,0.284,-117.22,-44.43,30.58,1785098831410.784
1.054,0.164,0.242,-110.97,-55.3,39.83,1785098831424.072
0.974,0.155,0.23,-106.75,-60.37,54.78,1785098831429.951
0.919,0.107,0.221,-102.73,-63.91,73.79,1785098831440.733
0.889,0.063,0.195,-98.24,-71.78,89.18,1785098831453.9531
0.775,0.054,0.177,-94.49,-86.64,103.06,1785098831459.976
0.613,0.039,0.149,-88.26,-96.56,117.4,1785098831470.5989
0.541,0.002,0.108,-81.42,-102.63,133.34,1785098831483.9722
0.49,-0.049,0.08,-73.34,-113.35,145.97,1785098831489.661
0.381,-0.096,0.092,-65.46,-129.31,157.14,1785098831500.943
0.22,-0.158,0.048,-51.64,-144.96,165.04,1785098831514.122
0.09,-0.273,-0.102,-31.74,-157.26,174.47,1785098831520.141
-0.056,-0.376,-0.273,-14.04,-167.46,186.56,1785098831533.519
-0.171,-0.495,-0.502,-2.66,-169.99,193.88,1785098831539.5278
-0.341,-0.664,-0.751,-2.44,-164.04,191.17,1785098831550.319
-0.491,-0.983,-1.024,-15.66,-156.77,186.16,1785098831563.545
-0.634,-1.396,-1.289,-42.02,-148.11,167.61,1785098831569.527
-0.806,-1.682,-1.473,-71.72,-129.43,134.95,1785098831580.574
-0.866,-1.887,-1.513,-83.01,-95.25,106.94,1785098831593.7878
-0.855,-2.007,-1.356,-69.89,-54.84,78.04,1785098831599.735
-0.859,-1.916,-1.049,-36.1,-20.23,40.89,1785098831610.328
-0.822,-1.673,-0.742,18.56,10.74,5.22,1785098831620.951
-0.743,-1.426,-0.585,83.99,36.32,-26.89,1785098831634.1262
-0.597,-1.223,-0.574,139.44,53.16,-58.35,1785098831640.0872
-0.426,-1.095,-0.603,173.19,62.29,-94.03,1785098831650.77
-0.282,-1.019,-0.662,181.55,68.61,-133.12,1785098831664.053
-0.16,-0.973,-0.661,165.07,75.84,-163.98,1785098831670.1929
-0.068,-0.909,-0.598,134.01,82.43,-179.63,1785098831683.436
0.052,-0.91,-0.545,109.74,89.36,-179.75,1785098831689.437
0.147,-0.98,-0.542,99.86,96.22,-173.44,1785098831700.31
0.182,-0.907,-0.479,96.47,104.43,-162.63,1785098831713.549
0.224,-0.718,-0.375,107.09,112.61,-145.36,1785098831719.599
0.29,-0.522,-0.317,128.45,116.95,-130.13,1785098831730.745
0.408,-0.338,-0.29,147.25,117.4,-119.27,1785098831744.0222
0.594,-0.226,-0.282,161.02,117.04,-110.32,1785098831749.9521
0.805,-0.158,-0.252,168.31,119.33,-101.81,1785098831763.5442
1.01,-0.126,-0.225,171.88,121.31,-90.67,1785098831769.518
1.215,-0.095,-0.25,170.9,120.82,-77.61,1785098831780.6047
1.372,-0.006,-0.228,159.98,116.12,-63.2,1785098831793.901
1.48,0.1,-0.173,142.58,104.56,-45.99,1785098831799.797
1.557,0.167,-0.148,124.3,90.27,-30.3,1785098831810.741
1.638,0.234,-0.114,103.98,75.72,-19.56,1785098831824.044
1.779,0.318,-0.069,81.12,60.95,-11.41,1785098831829.979
1.919,0.402,0.038,54.35,43.37,-3.78,1785098831840.4229
2.044,0.403,0.25,35.0,22.0,1.16,1785098831855.0598
2.122,0.21,0.352,43.15,0.12,-7.05,1785098831859.626
2.13,0.183,0.332,63.54,-19.93,-21.36,1785098831869.92
2.143,0.304,0.262,84.11,-30.76,-23.59,1785098831880.512
2.148,0.416,0.175,91.28,-32.69,-21.27,1785098831893.8032
2.121,0.372,0.146,79.87,-31.43,-11.96,1785098831899.7078
2.121,0.372,0.146,67.63,-29.15,-1.4,1785098831910.1511
1.985,0.239,0.113,56.31,-22.61,-1.31,1785098831920.733
1.872,0.218,0.024,32.11,-15.17,-12.82,1785098831933.959
1.807,0.273,-0.083,-7.75,-7.14,-28.29,1785098831939.89
1.711,0.27,-0.124,-49.59,0.31,-38.79,1785098831950.102
1.583,0.22,-0.133,-49.59,0.31,-38.79,1785098831960.695
1.506,0.237,-0.104,-86.67,8.85,-47.46,1785098831974.015
1.476,0.18,-0.066,-115.6,12.88,-41.72,1785098831979.88
1.415,0.163,-0.03,-133.85,14.74,-31.31,1785098831990.5432
1.427,0.25,0.018,-150.18,15.32,-28.69,1785098832003.827
1.382,0.286,0.086,-167.39,15.17,-23.8,1785098832009.6587
1.303,0.24,0.155,-182.01,16.45,-12.76,1785098832020.572
1.186,0.199,0.221,-188.57,14.5,-0.46,1785098832033.7
1.099,0.146,0.273,-186.59,8.39,15.29,1785098832039.673
1.066,0.1,0.31,-177.98,1.07,35.04,1785098832050.175
1.025,0.095,0.328,-166.08,-8.18,55.21,1785098832060.792
0.994,0.083,0.331,-151.8,-18.46,76.42,1785098832074.0852
0.944,0.058,0.323,-135.69,-27.16,96.01,1785098832080.0278
0.862,0.004,0.295,-119.08,-34.46,112.31,1785098832090.933
0.763,-0.07,0.265,-104.28,-42.27,125.22,1785098832104.178
0.652,-0.128,0.268,-92.44,-53.01,136.08,1785098832110.079
0.533,-0.187,0.273,-79.93,-67.96,147.04,1785098832123.47
0.419,-0.247,0.243,-66.62,-84.96,159.46,1785098832129.39
0.299,-0.343,0.196,-53.44,-103.34,173.04,1785098832140.2922
0.137,-0.438,0.089,-45.2,-122.78,182.65,1785098832153.65
-0.025,-0.508,-0.035,-45.59,-141.21,187.9,1785098832159.457
-0.115,-0.598,-0.161,-53.04,-157.41,190.19,1785098832170.6492
-0.182,-0.739,-0.396,-64.03,-167.3,186.25,1785098832183.819
-0.312,-0.947,-0.684,-80.17,-163.03,172.4,1785098832189.7441
-0.443,-1.198,-0.893,-104.01,-146.61,149.45,1785098832200.802
-0.556,-1.483,-1.056,-121.01,-131.32,123.14,1785098832214.127
-0.635,-1.807,-1.175,-118.69,-114.11,98.09,1785098832220.012
-0.645,-2.003,-1.185,-97.75,-90.15,73.0,1785098832233.482
-0.652,-1.913,-1.1,-62.53,-62.56,45.96,1785098832239.432
-0.597,-1.642,-0.965,-18.4,-34.82,22.83,1785098832249.9521
-0.515,-1.322,-0.86,23.93,-9.03,-1.86,1785098832260.4001
-0.464,-1.017,-0.771,55.57,14.8,-31.07,1785098832273.706
-0.4,-0.767,-0.696,75.01,34.09,-60.67,1785098832279.62
-0.26,-0.679,-0.635,87.31,47.73,-86.55,1785098832290.148
-0.131,-0.711,-0.574,95.34,58.44,-113.59,1785098832300.8672
-0.084,-0.771,-0.521,97.29,65.31,-137.06,1785098832314.109
-0.058,-0.85,-0.495,95.58,69.22,-149.97,1785098832320.081
-0.019,-0.906,-0.48,92.72,72.91,-152.84,1785098832330.883
-0.004,-0.891,-0.481,90.58,77.33,-151.46,1785098832344.1091
0.005,-0.823,-0.477,87.19,81.55,-143.01,1785098832350.0303
0.046,-0.673,-0.438,81.67,84.66,-128.24,1785098832360.8652
0.136,-0.522,-0.371,81.85,87.89,-110.87,1785098832374.119
0.254,-0.437,-0.344,87.41,91.56,-96.5,1785098832379.9858
0.375,-0.377,-0.301,90.55,96.8,-86.12,1785098832390.5999
0.483,-0.296,-0.197,92.2,99.03,-74.86,1785098832403.913
0.596,-0.285,-0.101,99.67,98.45,-62.11,1785098832409.801
0.697,-0.355,0.033,107.85,97.17,-51.24,1785098832420.4468
0.77,-0.378,0.186,113.35,93.91,-40.07,1785098832433.6528
0.833,-0.335,0.358,119.36,88.6,-23.29,1785098832439.6082
0.959,-0.234,0.437,127.23,69.58,-0.34,1785098832450.2861
1.172,-0.168,0.303,131.2,42.15,21.7,1785098832463.588
1.373,-0.075,0.221,116.25,19.87,38.45,1785098832469.594
1.504,-0.033,0.19,93.6,1.56,49.53,1785098832480.0708
1.584,-0.061,0.131,75.96,-11.99,54.84,1785098832490.5269
1.645,-0.073,0.099,64.42,-20.57,58.78,1785098832504.063
1.661,-0.077,0.088,59.63,-28.05,65.37,1785098832509.928
1.635,-0.096,0.045,58.14,-35.28,73.73,1785098832520.558
