ax,ay,az,gx,gy,gz,timestamp_ms
0.47,-0.062,0.106,-62.69,-141.24,133.4,1785098574424.0798
0.425,-0.121,0.064,-42.48,-153.23,141.79,1785098574424.739
0.297,-0.18,0.036,-22.68,-173.74,146.03,1785098574425.3362
0.087,-0.252,-0.042,-0.21,-200.72,154.58,1785098574425.8308
-0.093,-0.396,-0.179,27.1,-221.72,167.46,1785098574426.363
-0.275,-0.651,-0.414,57.31,-229.01,172.09,1785098574426.9531
-0.475,-1.007,-0.784,76.82,-223.49,164.71,1785098574427.379
-0.597,-1.437,-1.254,78.59,-207.8,143.41,1785098574427.797
-0.712,-1.84,-1.731,60.06,-183.17,111.33,1785098574428.216
-0.864,-2.032,-2.043,16.66,-149.54,83.86,1785098574428.632
-0.883,-1.93,-2.091,-39.49,-110.39,67.38,1785098574429.039
-0.692,-1.693,-1.915,-72.91,-62.5,46.63,1785098574429.441
-0.511,-1.433,-1.601,-69.86,-15.08,10.28,1785098574429.836
-0.438,-1.143,-1.305,-43.89,19.5,-25.48,1785098574430.238
-0.393,-0.922,-1.064,-11.69,44.25,-48.8,1785098574430.6472
-0.344,-0.801,-0.862,17.46,65.19,-70.44,1785098574431.057
-0.26,-0.798,-0.736,43.98,82.89,-96.44,1785098574431.4448
-0.183,-0.848,-0.687,63.39,94.7,-125.16,1785098574431.847
-0.152,-0.886,-0.695,75.29,99.15,-147.19,1785098574432.2651
-0.162,-0.923,-0.822,81.42,97.72,-156.59,1785098574432.666
-0.166,-0.847,-0.917,74.95,100.22,-155.74,1785098574433.059
-0.1,-0.654,-0.897,64.58,113.93,-145.94,1785098574433.461
0.103,-0.537,-0.851,61.01,131.05,-133.67,1785098574433.863
0.256,-0.459,-0.777,56.64,140.17,-128.27,1785098574434.2642
0.276,-0.334,-0.595,47.12,141.39,-119.36,1785098574434.664
0.281,-0.238,-0.409,44.74,137.94,-101.9,1785098574435.0112
0.382,-0.31,-0.351,59.11,132.91,-90.37,1785098574435.352
0.485,-0.273,-0.345,72.73,130.89,-92.26,1785098574435.699
0.707,-0.106,-0.273,81.76,135.81,-87.83,1785098574436.05
0.955,-0.0,-0.189,94.61,140.26,-76.2,1785098574436.407
1.126,-0.001,-0.171,106.81,142.61,-61.83,1785098574436.7502
1.228,0.054,-0.101,109.56,143.53,-42.82,1785098574437.092
1.359,0.146,0.032,114.05,143.65,-18.89,1785098574437.4412
1.496,0.198,0.17,124.61,140.81,2.14,1785098574437.7798
1.535,0.217,0.332,132.51,134.13,12.73,1785098574438.1199
1.619,0.212,0.442,132.82,128.06,13.95,1785098574438.455
1.764,0.235,0.514,117.71,124.55,5.22,1785098574438.792
1.908,0.297,0.652,85.7,118.11,-3.45,1785098574439.1309
2.081,0.353,0.781,51.85,107.73,-11.99,1785098574439.469
2.202,0.446,0.875,20.57,93.78,-22.16,1785098574439.795
2.211,0.539,0.947,-8.48,76.36,-29.45,1785098574440.1238
2.145,0.589,0.981,-34.39,58.38,-35.34,1785098574440.458
2.145,0.589,0.981,-55.06,40.5,-40.01,1785098574440.753
2.06,0.637,1.01,-61.62,23.83,-43.03,1785098574441.036
1.971,0.681,1.006,-56.73,9.52,-44.86,1785098574441.3208
1.854,0.673,0.953,-49.62,-2.44,-42.6,1785098574441.607
1.728,0.614,0.894,-39.89,-11.69,-36.5,1785098574441.904
1.59,0.532,0.807,-39.89,-11.69,-36.5,1785098574442.21
1.477,0.486,0.693,-33.05,-19.84,-31.77,1785098574442.533
1.439,0.443,0.587,-34.46,-28.05,-31.04,1785098574442.846
1.303,0.419,0.51,-43.12,-33.45,-35.46,1785098574443.1501
1.465,0.289,0.494,-56.09,-34.0,-35.62,1785098574443.459
1.302,0.156,0.461,-64.21,-43.0,-24.54,1785098574443.755
1.32,0.172,0.447,-68.91,-46.17,-18.04,1785098574444.0542
1.23,0.199,0.435,-80.87,-50.78,-14.4,1785098574444.345
1.16,0.118,0.449,-95.58,-54.38,-3.78,1785098574444.696
1.084,0.081,0.443,-103.52,-58.87,2.62,1785098574445.028
1.083,0.081,0.423,-104.4,-64.3,11.38,1785098574445.3298
1.168,0.057,0.408,-101.14,-72.33,24.54,1785098574445.621
1.162,0.039,0.369,-92.5,-80.02,36.93,1785098574445.911
1.05,0.003,0.323,-79.93,-85.67,49.99,1785098574446.207
0.939,-0.063,0.276,-65.19,-91.77,64.67,1785098574446.503
0.843,-0.107,0.22,-50.11,-99.95,74.19,1785098574446.789
0.781,-0.136,0.16,-38.06,-110.23,81.85,1785098574447.0852
0.746,-0.175,0.117,-29.66,-122.9,91.56,1785098574447.387
0.668,-0.231,0.086,-20.81,-138.74,101.57,1785098574447.686
0.517,-0.309,0.033,-10.86,-156.68,110.57,1785098574447.9749
0.331,-0.366,-0.046,-2.53,-174.02,117.68,1785098574448.269
0.161,-0.401,-0.163,4.52,-189.09,125.68,1785098574448.548
0.006,-0.42,-0.31,9.19,-201.09,134.77,1785098574448.812
-0.136,-0.486,-0.478,12.21,-209.6,144.05,1785098574449.0837
-0.269,-0.666,-0.725,16.33,-212.07,146.4,1785098574449.353
-0.383,-0.947,-1.058,15.99,-202.76,134.71,1785098574449.6301
-0.537,-1.129,-1.358,0.27,-182.56,111.45,1785098574449.897
-0.641,-1.312,-1.685,-22.61,-155.71,90.09,1785098574450.166
-0.686,-1.491,-1.896,-50.14,-118.9,70.83,1785098574450.433
-0.675,-1.608,-1.882,-71.63,-75.44,51.76,1785098574450.697
-0.579,-1.679,-1.698,-75.17,-31.83,30.4,1785098574450.958
-0.537,-1.514,-1.32,-65.07,6.2,5.74,1785098574451.2131
-0.542,-1.189,-1.019,-36.93,34.18,-11.44,1785098574451.4802
-0.462,-0.921,-0.865,2.96,58.23,-24.87,1785098574451.736
-0.412,-0.786,-0.792,37.08,70.01,-43.46,1785098574451.9902
-0.4,-0.727,-0.704,58.9,78.98,-71.78,1785098574452.268
-0.381,-0.781,-0.729,71.6,92.56,-100.86,1785098574452.5308
-0.32,-0.785,-0.726,67.87,107.03,-123.75,1785098574452.789
-0.255,-0.684,-0.639,63.45,116.64,-136.91,1785098574453.0571
-0.051,-0.696,-0.61,71.81,123.91,-137.06,1785098574453.32
0.114,-0.73,-0.58,84.08,128.24,-131.32,1785098574453.5872
0.174,-0.655,-0.513,93.45,130.71,-123.26,1785098574453.845
0.296,-0.547,-0.468,97.38,132.02,-109.68,1785098574454.1152
0.385,-0.412,-0.361,88.47,129.73,-95.34,1785098574454.378
0.464,-0.291,-0.237,72.54,123.6,-81.12,1785098574454.648
0.604,-0.198,-0.118,60.61,117.13,-73.15,1785098574454.905
0.785,-0.139,0.007,56.95,112.92,-68.42,1785098574455.172
0.929,-0.107,0.123,61.49,110.51,-58.14,1785098574455.441
1.132,-0.116,0.174,70.96,109.26,-40.07,1785098574455.705
1.234,-0.09,0.219,77.0,101.72,-17.67,1785098574455.9722
1.348,-0.029,0.269,71.96,90.18,5.31,1785098574456.228
1.478,0.036,0.395,59.88,78.52,20.51,1785098574456.479
1.74,0.037,0.463,51.94,68.94,26.7,1785098574456.728
1.911,0.091,0.519,39.09,59.24,26.55,1785098574456.964
2.055,0.133,0.588,19.81,51.3,29.54,1785098574457.205
2.189,0.171,0.638,1.98,42.85,30.82,1785098574457.4421
2.298,0.241,0.643,-10.83,33.02,28.63,1785098574457.675
2.382,0.331,0.635,-20.81,21.39,24.35,1785098574457.914
2.401,0.406,0.616,-28.41,9.46,18.62,1785098574458.1519
2.365,0.454,0.585,-29.85,-0.34,10.56,1785098574458.3909
2.31,0.485,0.511,-27.86,-7.75,0.46,1785098574458.622
2.248,0.513,0.443,-29.66,-13.03,-12.94,1785098574458.88
2.126,0.512,0.402,-32.41,-18.07,-27.56,1785098574459.136
1.984,0.461,0.378,-33.66,-21.3,-40.28,1785098574459.376
1.861,0.407,0.329,-35.25,-21.88,-50.6,1785098574459.6191
1.744,0.378,0.304,-41.96,-23.19,-56.79,1785098574459.863
1.655,0.338,0.289,-52.52,-25.54,-59.3,1785098574460.106
1.568,0.301,0.287,-64.73,-28.29,-60.12,1785098574460.352
1.495,0.258,0.303,-77.94,-32.38,-56.92,1785098574460.593
1.445,0.216,0.334,-90.27,-37.81,-48.59,1785098574460.835
1.416,0.179,0.378,-101.72,-45.41,-35.71,1785098574461.089
1.381,0.166,0.428,-111.09,-56.52,-19.01,1785098574461.3252
1.33,0.157,0.39,-113.38,-68.48,0.06,1785098574461.5637
1.278,0.156,0.32,-112.09,-79.5,14.98,1785098574461.823
1.267,0.168,0.278,-113.47,-89.66,22.98,1785098574462.063
1.208,0.16,0.247,-114.84,-94.7,29.57,1785098574462.2988
1.117,0.123,0.182,-110.72,-96.74,38.91,1785098574462.542
0.998,0.068,0.12,-105.75,-101.87,54.87,1785098574462.803
0.885,0.047,0.069,-101.26,-113.32,73.61,1785098574463.0452
0.76,0.033,0.002,-95.25,-128.18,93.51,1785098574463.2927
0.618,-0.011,-0.056,-88.5,-143.04,113.01,1785098574463.5552
0.434,-0.067,-0.1,-81.67,-157.32,129.22,1785098574463.808
0.256,-0.111,-0.133,-73.89,-171.06,144.02,1785098574464.048
0.11,-0.142,-0.169,-63.3,-187.2,158.18,1785098574464.336
-0.043,-0.153,-0.193,-51.21,-207.56,169.62,1785098574464.604
-0.214,-0.197,-0.216,-37.02,-232.92,180.18,1785098574464.833
-0.444,-0.336,-0.312,-21.55,-259.74,188.09,1785098574465.056
-0.689,-0.506,-0.505,-12.6,-277.54,187.69,1785098574465.282
-0.889,-0.617,-0.833,-14.47,-284.37,179.85,1785098574465.5193
-0.994,-0.78,-1.353,-23.47,-273.26,169.99,1785098574465.75
-1.068,-0.963,-1.816,-44.5,-243.81,157.72,1785098574465.975
-1.052,-1.097,-2.123,-73.12,-193.85,135.62,1785098574466.2039
-1.001,-1.225,-2.168,-89.18,-128.12,105.56,1785098574466.439
-0.868,-1.335,-1.897,-87.8,-65.22,74.04,1785098574466.6692
-0.719,-1.366,-1.408,-74.34,-18.19,41.26,1785098574466.892
-0.614,-1.292,-0.988,-54.87,9.25,15.72,1785098574467.12
-0.558,-1.091,-0.648,-33.81,25.21,-2.41,1785098574467.346
-0.514,-0.873,-0.462,-2.84,37.39,-24.11,1785098574467.561
-0.444,-0.715,-0.473,35.0,47.88,-51.7,1785098574467.787
-0.357,-0.651,-0.584,65.86,58.32,-84.14,1785098574468.011
-0.337,-0.617,-0.692,82.64,67.63,-120.21,1785098574468.242
-0.386,-0.649,-0.805,92.41,77.03,-151.34,1785098574468.461
-0.452,-0.769,-0.943,93.81,85.63,-174.66,1785098574468.685
-0.53,-0.882,-0.996,86.25,90.98,-185.43,1785098574468.9128
-0.497,-0.98,-1.019,82.28,98.18,-180.85,1785098574469.138
-0.42,-0.923,-1.006,88.81,112.61,-168.77,1785098574469.362
-0.269,-0.798,-0.921,104.34,129.83,-154.48,1785098574469.599
-0.093,-0.621,-0.832,114.51,141.48,-146.73,1785098574469.826
0.057,-0.446,-0.683,110.9,146.18,-141.12,1785098574470.049
0.18,-0.393,-0.586,100.86,142.43,-134.8,1785098574470.266
0.277,-0.344,-0.512,87.8,140.23,-129.86,1785098574470.478
0.365,-0.311,-0.387,80.87,137.33,-122.44,1785098574470.688
0.581,-0.282,-0.316,87.95,136.48,-114.41,1785098574470.897
0.83,-0.163,-0.191,105.59,140.54,-99.92,1785098574471.126
1.068,-0.083,-0.105,129.98,141.85,-72.76,1785098574471.3499
1.136,-0.038,-0.021,148.84,135.07,-39.37,1785098574471.5688
1.312,-0.02,0.012,158.88,122.68,-8.39,1785098574471.778
1.472,0.059,0.091,154.52,110.97,8.88,1785098574471.999
1.63,0.066,0.2,140.51,102.69,18.07,1785098574472.2078
1.905,0.162,0.352,99.64,91.53,15.5,1785098574472.6191
2.12,0.187,0.344,79.07,85.57,8.97,1785098574472.8232
-0.81,-0.883,-0.67,-27.95,8.61,6.62,1785098574473.138
-0.854,-0.952,-0.578,-26.52,10.47,1.74,1785098574473.341
-0.873,-1.001,-0.527,-12.94,9.7,0.98,1785098574473.54
-0.9,-1.052,-0.533,5.65,8.51,-1.37,1785098574475.945
-0.971,-1.069,-0.577,23.77,8.18,-6.59,1785098574489.341
-1.032,-1.045,-0.629,39.19,10.65,-12.15,1785098574494.89
-1.05,-1.02,-0.697,53.32,15.69,-20.78,1785098574505.61
-1.067,-0.936,-0.778,57.37,21.7,-33.63,1785098574516.185
-1.062,-0.86,-0.818,46.88,27.41,-46.39,1785098574529.406
-1.017,-0.896,-0.799,28.72,31.34,-58.93,1785098574535.1848
-0.959,-0.946,-0.761,10.04,33.11,-70.35,1785098574545.939
-0.919,-0.994,-0.737,-0.52,35.13,-77.94,1785098574559.1682
-0.918,-1.039,-0.73,-1.43,37.81,-84.02,1785098574564.822
-0.942,-1.027,-0.735,1.62,40.47,-88.26,1785098574575.403
-0.949,-1.008,-0.719,6.32,43.24,-89.11,1785098574585.991
-0.921,-0.962,-0.662,8.79,43.98,-87.89,1785098574599.233
-0.84,-0.935,-0.62,11.44,44.19,-84.57,1785098574604.9521
-0.756,-0.95,-0.553,16.24,43.49,-81.36,1785098574615.594
-0.683,-0.945,-0.486,19.81,38.51,-78.43,1785098574626.281
-0.589,-0.937,-0.446,21.09,31.25,-74.74,1785098574639.642
-0.471,-0.972,-0.46,22.64,23.9,-72.54,1785098574645.6057
-0.392,-0.948,-0.485,23.22,17.79,-72.88,1785098574656.1
-0.341,-0.901,-0.504,24.48,11.38,-69.7,1785098574669.495
-0.316,-0.847,-0.518,23.8,4.94,-64.52,1785098574675.324
-0.28,-0.845,-0.542,22.98,0.49,-60.82,1785098574685.66
-0.259,-0.884,-0.575,24.54,-1.53,-60.82,1785098574696.219
-0.256,-0.905,-0.595,27.5,-2.2,-61.1,1785098574709.522
-0.248,-0.925,-0.621,30.92,-1.59,-60.34,1785098574715.3652
-0.239,-0.926,-0.631,33.23,-0.4,-60.79,1785098574725.688
-0.203,-0.922,-0.616,36.5,0.85,-61.28,1785098574736.2393
-0.139,-0.86,-0.598,39.95,2.17,-62.11,1785098574749.434
-0.068,-0.767,-0.599,43.67,4.15,-61.65,1785098574755.543
-0.005,-0.712,-0.629,44.98,6.93,-62.32,1785098574765.665
0.02,-0.685,-0.621,38.33,9.95,-66.77,1785098574776.198
0.023,-0.683,-0.594,26.37,12.3,-72.51,1785098574789.555
0.024,-0.713,-0.562,14.13,13.89,-76.88,1785098574795.454
0.021,-0.747,-0.537,4.27,14.89,-79.56,1785098574805.933
0.018,-0.772,-0.529,-0.85,15.29,-81.12,1785098574816.3882
0.021,-0.765,-0.523,-3.08,15.32,-81.51,1785098574829.63
0.031,-0.743,-0.499,-2.69,14.59,-80.29,1785098574835.624
0.052,-0.724,-0.482,1.62,12.57,-78.89,1785098574845.8481
0.077,-0.714,-0.502,11.26,11.75,-78.13,1785098574856.521
0.098,-0.735,-0.539,25.12,12.91,-78.25,1785098574869.7441
0.113,-0.773,-0.622,40.41,14.65,-81.15,1785098574875.7
0.125,-0.821,-0.726,55.06,18.71,-85.82,1785098574886.21
0.133,-0.82,-0.785,64.7,25.45,-89.72,1785098574899.42
0.152,-0.746,-0.816,65.89,31.62,-89.79,1785098574905.7751
0.211,-0.662,-0.828,58.93,37.48,-85.33,1785098574915.8708
0.295,-0.64,-0.761,46.72,43.49,-82.09,1785098574926.545
0.39,-0.689,-0.683,34.61,49.1,-85.54,1785098574939.807
0.506,-0.788,-0.628,27.22,55.76,-92.29,1785098574945.682
0.633,-0.883,-0.615,23.83,61.89,-99.4,1785098574956.353
0.776,-0.909,-0.634,22.55,67.08,-105.08,1785098574969.645
0.927,-0.884,-0.697,23.07,70.96,-110.11,1785098574975.469
1.081,-0.752,-0.783,20.72,75.26,-115.21,1785098574986.248
1.261,-0.563,-0.876,15.99,79.74,-118.9,1785098574999.51
1.46,-0.39,-0.965,8.97,86.34,-125.16,1785098575005.79
1.566,-0.282,-1.031,-1.89,91.1,-135.75,1785098575015.9822
1.588,-0.278,-0.999,-15.5,97.23,-145.48,1785098575029.273
1.651,-0.365,-0.917,-23.47,109.16,-158.27,1785098575035.208
1.583,-0.387,-0.859,-26.4,119.33,-182.78,1785098575046.1719
1.517,-0.425,-0.773,-26.49,126.07,-199.47,1785098575059.472
1.482,-0.445,-0.689,-30.73,129.37,-210.18,1785098575065.544
1.451,-0.4,-0.586,-43.89,129.98,-218.7,1785098575076.37
1.438,-0.318,-0.467,-64.36,126.53,-223.52,1785098575089.767
1.447,-0.28,-0.333,-84.84,122.14,-222.3,1785098575095.67
1.439,-0.356,-0.236,-95.86,117.31,-215.92,1785098575109.089
1.367,-0.479,-0.194,-94.24,110.9,-208.01,1785098575115.422
1.231,-0.564,-0.141,-80.29,100.96,-197.12,1785098575125.9119
1.115,-0.639,-0.118,-52.19,87.62,-178.75,1785098575139.351
1.028,-0.726,-0.141,-17.85,72.88,-153.54,1785098575145.3672
0.913,-0.716,-0.216,7.48,59.94,-128.18,1785098575156.558
0.793,-0.61,-0.318,14.74,50.02,-102.45,1785098575169.43
0.678,-0.484,-0.4,-1.07,39.58,-75.2,1785098575175.164
0.547,-0.372,-0.419,-35.8,29.24,-50.87,1785098575185.601
0.413,-0.35,-0.369,-71.93,21.45,-27.99,1785098575196.234
0.307,-0.527,-0.292,-89.69,15.81,-8.58,1785098575209.502
0.114,-0.698,-0.192,-87.83,7.42,3.48,1785098575215.3862
-0.098,-0.71,-0.091,-65.03,-6.47,23.35,1785098575225.586
-0.219,-0.659,-0.093,-18.31,-21.55,54.17,1785098575236.226
-0.282,-0.592,-0.206,32.47,-31.95,81.67,1785098575249.496
-0.352,-0.545,-0.376,62.11,-36.77,97.78,1785098575255.442
-0.454,-0.569,-0.531,58.53,-36.71,102.42,1785098575266.0068
-0.585,-0.67,-0.624,26.0,-32.04,96.96,1785098575279.27
-0.687,-0.886,-0.649,-20.39,-25.48,84.51,1785098575285.301
-0.745,-1.194,-0.661,-65.86,-19.75,65.03,1785098575295.722
-0.777,-1.402,-0.622,-98.85,-12.36,43.55,1785098575306.4058
-0.739,-1.516,-0.543,-103.24,-1.74,24.93,1785098575319.599
-0.688,-1.583,-0.505,-78.86,9.98,2.78,1785098575325.559
-0.693,-1.511,-0.459,-41.29,21.09,-23.07,1785098575335.9082
-0.702,-1.297,-0.421,0.92,30.0,-44.92,1785098575346.427
-0.678,-1.014,-0.438,41.29,38.61,-61.71,1785098575359.668
-0.602,-0.765,-0.495,69.83,46.97,-78.01,1785098575365.629
-0.531,-0.623,-0.545,82.0,53.71,-99.37,1785098575376.148
-0.49,-0.605,-0.558,77.12,58.72,-126.01,1785098575389.439
-0.492,-0.626,-0.501,62.01,61.92,-150.15,1785098575395.41
-0.448,-0.678,-0.445,50.6,65.89,-163.03,1785098575406.198
-0.35,-0.664,-0.382,46.21,69.92,-168.58,1785098575419.382
-0.226,-0.579,-0.34,51.45,73.7,-167.7,1785098575425.482
-0.067,-0.476,-0.331,62.29,78.83,-160.44,1785098575436.0903
0.108,-0.367,-0.312,71.23,85.97,-148.72,1785098575449.327
0.285,-0.258,-0.272,78.31,94.15,-134.37,1785098575456.3542
0.448,-0.118,-0.206,82.67,99.89,-117.28,1785098575466.123
0.606,0.043,-0.106,85.3,100.28,-95.83,1785098575479.35
0.771,0.163,0.016,90.61,95.16,-73.12,1785098575485.404
0.916,0.177,0.175,101.96,86.09,-54.81,1785098575496.0132
1.003,0.12,0.318,121.68,75.53,-42.24,1785098575509.2427
1.043,0.085,0.353,149.36,68.09,-28.2,1785098575515.1118
1.138,0.135,0.33,180.94,64.76,-4.76,1785098575525.857
1.381,0.21,0.287,209.78,62.78,22.83,1785098575536.591
1.727,0.269,0.285,220.1,59.72,44.74,1785098575549.789
1.998,0.321,0.319,203.04,49.65,58.26,1785098575555.875
2.097,0.297,0.326,173.25,33.45,64.46,1785098575566.526
2.138,0.176,0.236,145.48,18.71,64.58,1785098575579.7761
2.276,0.077,0.099,116.82,6.84,60.82,1785098575586.029
2.427,0.032,-0.071,86.55,-4.46,54.78,1785098575596.274
2.498,0.042,-0.227,50.87,-15.72,47.24,1785098575609.484
2.528,0.05,-0.372,9.58,-24.78,37.84,1785098575615.412
2.528,0.05,-0.372,-35.46,-29.88,22.03,1785098575625.856
2.523,0.058,-0.475,-80.08,-31.74,0.0,1785098575636.3762
2.471,0.076,-0.506,-117.56,-31.31,-25.39,1785098575649.6848
2.359,0.097,-0.475,-145.42,-28.84,-50.87,1785098575655.789
2.237,0.115,-0.401,-145.42,-28.84,-50.87,1785098575666.348
2.061,0.134,-0.309,-164.89,-24.26,-72.48,1785098575679.61
1.954,0.113,-0.195,-175.79,-16.97,-86.83,1785098575685.535
1.777,0.047,-0.119,-173.89,-14.28,-88.23,1785098575696.337
1.633,0.049,-0.069,-162.72,-10.25,-88.08,1785098575709.594
1.611,0.087,-0.041,-153.2,-3.63,-87.19,1785098575715.515
1.561,0.087,-0.023,-149.42,-3.69,-78.43,1785098575726.115
1.466,0.083,-0.005,-146.43,-6.93,-66.29,1785098575739.541
1.351,0.077,0.005,-142.46,-9.03,-50.17,1785098575746.6372
1.241,0.048,0.039,-137.21,-10.68,-27.74,1785098575755.902
1.139,-0.018,0.06,-128.88,-14.28,-3.2,1785098575766.535
1.02,-0.043,0.059,-122.2,-22.43,18.4,1785098575779.8027
0.902,-0.018,0.057,-122.14,-34.61,39.37,1785098575785.824
0.781,0.006,0.044,-127.57,-46.36,58.63,1785098575796.558
0.668,-0.029,0.006,-135.5,-56.89,73.43,1785098575809.7688
0.58,-0.091,-0.064,-145.42,-66.93,83.9,1785098575815.708
0.47,-0.134,-0.093,-152.53,-74.8,91.22,1785098575826.491
0.346,-0.226,-0.116,-148.84,-84.44,99.06,1785098575839.801
0.221,-0.327,-0.191,-138.16,-96.04,106.42,1785098575845.685
0.088,-0.391,-0.283,-124.39,-107.67,115.36,1785098575859.102
-0.02,-0.551,-0.517,-109.01,-118.75,125.61,1785098575865.2039
-0.081,-0.895,-0.845,-101.6,-120.58,123.48,1785098575876.3599
-0.279,-1.232,-1.173,-110.48,-113.62,98.24,1785098575889.671
-0.553,-1.576,-1.517,-131.47,-97.96,73.43,1785098575895.4949
-0.777,-1.812,-1.738,-165.17,-75.26,56.92,1785098575906.4163
-0.908,-1.826,-1.822,-198.1,-47.46,42.45,1785098575919.62
-0.872,-1.723,-1.773,-207.34,-13.0,28.96,1785098575925.604
-0.762,-1.513,-1.513,-187.87,23.71,8.94,1785098575936.269
-0.64,-1.274,-1.21,-141.03,55.88,-17.03,1785098575949.512
-0.546,-1.11,-0.952,-75.75,78.19,-45.41,1785098575955.6348
-0.451,-1.088,-0.791,0.03,92.38,-76.27,1785098575965.926
-0.393,-1.125,-0.725,74.34,104.1,-107.09,1785098575979.241
-0.418,-1.027,-0.646,133.92,111.88,-126.77,1785098575985.3389
-0.384,-0.876,-0.634,179.69,110.97,-128.76,1785098575996.2493
-0.28,-0.665,-0.636,205.6,101.93,-123.66,1785098576009.6619
-0.163,-0.391,-0.64,214.36,92.96,-117.98,1785098576015.5662
-0.03,-0.211,-0.659,211.19,90.46,-115.67,1785098576029.093
0.128,-0.117,-0.66,191.69,91.98,-119.45,1785098576035.305
0.299,-0.064,-0.62,159.49,96.1,-125.1,1785098576046.1172
0.476,-0.04,-0.502,125.77,103.89,-126.01,1785098576059.399
0.668,-0.067,-0.382,103.37,114.11,-118.32,1785098576065.433
0.831,-0.11,-0.275,93.39,121.04,-102.73,1785098576076.464
0.924,-0.121,-0.177,91.49,118.9,-84.96,1785098576089.8052
0.98,-0.06,-0.119,90.24,110.9,-67.75,1785098576095.67
1.174,0.097,-0.028,82.46,101.9,-53.9,1785098576106.5012
1.506,0.248,0.11,71.38,91.28,-43.06,1785098576119.648
1.817,0.31,0.226,63.42,77.91,-33.51,1785098576125.6619
1.916,0.356,0.327,59.24,63.75,-25.61,1785098576136.1223
1.918,0.486,0.362,51.88,50.69,-15.26,1785098576149.3708
2.007,0.686,0.37,37.48,41.81,-6.1,1785098576155.4912
2.175,0.958,0.379,18.49,32.47,0.34,1785098576165.667
2.288,1.269,0.387,3.63,20.29,3.54,1785098576176.095
2.325,1.512,0.366,1.25,11.47,6.9,1785098576186.352
2.306,1.647,0.338,10.83,9.64,9.52,1785098576199.814
2.209,1.556,0.305,27.19,10.1,8.73,1785098576205.7632
2.06,1.238,0.245,34.91,11.66,-0.09,1785098576215.852
1.914,0.878,0.168,17.88,13.64,-13.31,1785098576226.5962
1.77,0.623,0.137,-21.09,13.52,-23.71,1785098576239.841
1.631,0.487,0.131,-65.61,12.48,-28.57,1785098576245.7861
1.523,0.449,0.157,-108.58,12.09,-28.99,1785098576256.373
1.557,0.376,0.209,-145.02,9.37,-23.32,1785098576269.682
1.569,0.21,0.247,-168.49,-9.13,-5.52,1785098576275.1958
1.438,0.176,0.303,-171.21,-26.46,14.65,1785098576286.1272
1.433,0.247,0.278,-165.84,-33.85,29.11,1785098576299.0872
1.37,0.295,0.25,-167.27,-39.31,37.54,1785098576305.547
1.361,0.267,0.263,-174.72,-42.82,43.73,1785098576315.789
1.257,0.211,0.27,-175.3,-49.01,50.84,1785098576329.079
1.221,0.184,0.246,-166.14,-54.87,58.35,1785098576334.864
1.158,0.171,0.244,-154.64,-62.26,69.12,1785098576346.0469
1.048,0.107,0.216,-136.97,-71.26,84.11,1785098576359.2332
0.923,0.057,0.181,-117.98,-83.71,99.86,1785098576365.345
0.81,0.052,0.169,-102.97,-100.28,114.87,1785098576376.204
0.698,0.03,0.123,-88.2,-115.48,128.42,1785098576389.482
0.562,-0.034,0.081,-73.27,-130.01,139.9,1785098576395.37
0.434,-0.119,0.04,-57.83,-148.44,149.3,1785098576406.42
0.3,-0.18,-0.04,-44.53,-168.71,157.54,1785098576419.481
0.149,-0.187,-0.108,-39.09,-190.22,165.26,1785098576425.412
-0.03,-0.196,-0.165,-37.63,-213.57,173.89,1785098576436.393
-0.248,-0.229,-0.197,-34.09,-237.34,181.34,1785098576449.7249
-0.488,-0.322,-0.325,-25.64,-259.83,185.77,1785098576455.8987
-0.73,-0.474,-0.594,-20.75,-273.42,184.94,1785098576469.332
-0.896,-0.645,-1.001,-31.16,-272.65,176.27,1785098576475.0059
-0.94,-0.785,-1.46,-58.81,-253.88,159.18,1785098576486.1372
-0.911,-0.96,-1.897,-84.84,-214.36,134.53,1785098576499.5132
-0.891,-1.24,-2.218,-96.22,-159.64,98.94,1785098576505.707
-0.898,-1.421,-2.3,-103.27,-103.46,60.64,1785098576516.374
-0.809,-1.46,-2.116,-102.27,-50.05,38.48,1785098576529.655
-0.663,-1.366,-1.667,-85.97,-4.64,25.76,1785098576535.554
-0.578,-1.182,-1.174,-53.38,28.38,8.15,1785098576546.0051
-0.604,-0.913,-0.818,-11.32,50.14,-16.05,1785098576559.285
-0.581,-0.723,-0.692,34.82,68.15,-39.55,1785098576565.323
-0.482,-0.69,-0.674,75.78,85.76,-69.61,1785098576575.715
-0.431,-0.723,-0.692,108.01,100.5,-109.07,1785098576590.2048
-0.44,-0.771,-0.77,134.22,112.16,-146.06,1785098576595.1892
-0.464,-0.76,-0.88,149.97,121.43,-168.07,1785098576606.2961
-0.414,-0.702,-0.971,151.22,129.7,-172.86,1785098576619.5012
-0.229,-0.618,-0.967,140.48,140.63,-170.08,1785098576625.402
-0.062,-0.54,-0.903,126.1,149.36,-166.26,1785098576639.188
0.052,-0.554,-0.828,117.37,157.02,-157.02,1785098576645.2322
0.066,-0.55,-0.718,117.47,161.29,-143.07,1785098576656.369
0.176,-0.524,-0.626,129.83,168.07,-123.23,1785098576669.5837
0.433,-0.433,-0.529,147.16,179.08,-104.86,1785098576675.5369
0.687,-0.278,-0.387,164.65,189.28,-88.66,1785098576689.219
0.89,-0.147,-0.239,179.75,193.88,-73.09,1785098576695.185
1.061,-0.111,-0.131,188.15,189.28,-59.82,1785098576706.1538
1.142,-0.029,-0.027,181.71,180.36,-50.84,1785098576719.3557
1.271,0.042,0.151,165.23,171.94,-41.05,1785098576725.556
1.436,0.062,0.302,146.06,160.74,-38.7,1785098576736.0708
1.439,0.093,0.434,129.76,150.21,-37.11,1785098576749.607
1.488,0.088,0.516,119.24,142.8,-31.1,1785098576755.752
1.688,0.152,0.609,104.37,132.51,-28.44,1785098576766.5852
1.884,0.233,0.743,84.2,118.14,-30.24,1785098576779.819
2.045,0.262,0.817,63.3,104.65,-37.6,1785098576785.772
2.143,0.292,0.809,37.32,90.73,-47.58,1785098576796.499
2.2,0.32,0.776,4.18,75.9,-55.79,1785098576809.717
2.214,0.345,0.763,-28.57,61.01,-60.49,1785098576815.563
2.186,0.401,0.741,-55.12,46.39,-64.58,1785098576826.026
2.149,0.487,0.694,-75.32,32.26,-70.31,1785098576839.44
2.082,0.554,0.62,-92.23,21.18,-77.61,1785098576845.459
1.969,0.601,0.563,-106.3,13.12,-84.96,1785098576855.9438
1.832,0.624,0.521,-111.36,7.17,-89.18,1785098576866.4429
1.689,0.627,0.484,-105.96,2.62,-89.08,1785098576879.7031
1.571,0.599,0.456,-95.03,-0.12,-85.39,1785098576885.619
1.476,0.558,0.43,-84.29,-3.48,-80.36,1785098576895.874
1.416,0.486,0.421,-74.77,-7.39,-73.64,1785098576906.558
1.416,0.486,0.421,-68.03,-11.6,-64.24,1785098576919.75
1.366,0.411,0.399,-67.9,-16.39,-50.6,1785098576925.8728
1.301,0.357,0.393,-68.33,-22.68,-36.65,1785098576936.4678
1.264,0.327,0.385,-68.03,-30.24,-25.42,1785098576949.449
1.233,0.302,0.354,-68.03,-30.24,-25.42,1785098576955.2588
1.183,0.263,0.333,-71.87,-36.9,-14.19,1785098576965.877
1.173,0.202,0.304,-77.39,-43.21,-1.8,1785098576976.588
1.116,0.174,0.283,-83.96,-53.71,14.04,1785098576989.644
1.07,0.158,0.268,-87.8,-63.84,28.29,1785098576995.221
1.01,0.13,0.238,-89.02,-72.18,41.23,1785098577005.983
0.931,0.103,0.214,-88.56,-83.01,55.91,1785098577019.532
0.807,0.083,0.186,-83.16,-97.32,69.46,1785098577025.66
0.686,0.082,0.16,-74.56,-110.51,82.19,1785098577036.026
0.546,0.117,0.135,-65.16,-122.5,92.56,1785098577049.258
0.409,0.132,0.104,-53.8,-135.14,103.46,1785098577055.364
0.277,0.107,0.075,-37.32,-148.01,112.0,1785098577066.169
0.143,0.033,0.021,-12.27,-160.68,116.34,1785098577079.44
0.056,-0.129,-0.074,15.47,-174.54,119.33,1785098577085.4321
-0.084,-0.305,-0.209,38.36,-191.08,117.65,1785098577096.3896
-0.249,-0.459,-0.392,54.23,-203.25,116.46,1785098577109.7578
-0.379,-0.694,-0.65,70.47,-206.15,116.64,1785098577115.6108
-0.49,-1.139,-1.031,87.16,-206.82,109.68,1785098577126.626
-0.58,-1.642,-1.474,90.82,-195.62,88.17,1785098577140.0508
-0.677,-2.039,-1.804,79.87,-163.58,61.37,1785098577145.8298
-0.77,-2.244,-1.926,63.57,-119.39,37.17,1785098577156.7358
-0.811,-2.041,-1.868,42.79,-71.05,11.6,1785098577169.875
-0.663,-1.526,-1.676,23.22,-23.68,-8.12,1785098577175.814
-0.416,-1.084,-1.42,12.05,11.78,-25.85,1785098577186.1938
-0.227,-0.833,-1.177,2.41,34.12,-48.8,1785098577199.434
-0.115,-0.805,-0.99,-1.25,48.25,-75.99,1785098577205.195
-0.067,-0.89,-0.809,5.62,62.01,-103.95,1785098577215.4297
-0.035,-0.977,-0.623,31.04,75.47,-124.79,1785098577226.455
0.038,-1.012,-0.552,75.75,85.76,-133.15,1785098577239.6692
0.115,-0.91,-0.536,120.67,94.55,-126.71,1785098577245.635
0.255,-0.765,-0.547,151.95,100.71,-109.13,1785098577259.072
0.47,-0.589,-0.535,159.09,105.59,-95.92,1785098577265.1501
0.644,-0.442,-0.443,147.98,106.42,-93.3,1785098577276.088
0.74,-0.32,-0.336,131.08,105.72,-92.72,1785098577289.3599
0.858,-0.275,-0.217,121.46,108.4,-84.08,1785098577295.3347
0.953,-0.235,-0.097,119.02,109.44,-72.7,1785098577306.3328
1.014,-0.164,-0.005,123.75,108.25,-57.44,1785098577319.511
1.183,-0.092,0.027,133.67,108.01,-40.77,1785098577325.5522
1.355,0.017,0.091,134.13,105.41,-30.79,1785098577336.587
1.476,0.106,0.17,124.58,99.98,-29.27,1785098577349.8281
1.608,0.175,0.245,113.44,96.77,-34.36,1785098577355.756
1.774,0.202,0.261,104.19,95.28,-40.77,1785098577366.507
1.857,0.283,0.289,88.66,92.04,-42.97,1785098577379.7559
1.94,0.402,0.311,74.04,85.24,-40.83,1785098577385.646
1.983,0.542,0.314,65.31,75.41,-38.15,1785098577396.217
2.029,0.702,0.304,57.86,63.72,-33.45,1785098577409.418
2.059,0.889,0.298,50.11,51.39,-28.47,1785098577415.38
2.096,1.153,0.307,46.27,38.64,-23.47,1785098577425.905
2.086,1.331,0.341,51.94,26.64,-15.53,1785098577436.555
2.062,1.344,0.397,66.04,17.09,-10.8,1785098577449.761
1.957,1.039,0.462,83.1,8.55,-0.7,1785098577455.685
1.847,0.707,0.466,82.74,-1.16,1.68,1785098577465.885
1.76,0.57,0.421,55.09,-11.05,-9.09,1785098577476.19
1.66,0.438,0.404,6.13,-20.11,-23.62,1785098577489.575
1.56,0.366,0.37,-44.86,-26.22,-33.08,1785098577495.635
1.512,0.328,0.324,-87.13,-29.57,-34.97,1785098577506.176
1.398,0.305,0.276,-112.61,-32.84,-24.9,1785098577519.3337
1.378,0.354,0.228,-127.78,-34.88,-15.23,1785098577525.46
1.323,0.356,0.217,-142.86,-36.26,-6.59,1785098577536.0142
1.275,0.319,0.224,-155.03,-34.88,-2.29,1785098577546.647
1.208,0.255,0.244,-159.46,-32.29,3.72,1785098577560.3142
1.172,0.201,0.246,-157.41,-32.65,14.95,1785098577565.8162
1.107,0.177,0.238,-152.01,-37.26,30.95,1785098577576.4922
1.079,0.168,0.236,-145.85,-42.66,47.49,1785098577589.866
1.075,0.142,0.213,-140.87,-47.4,64.49,1785098577595.673
1.027,0.129,0.21,-139.07,-55.82,79.44,1785098577606.7322
0.957,0.08,0.18,-135.29,-65.55,92.14,1785098577619.7551
0.863,-0.0,0.13,-130.62,-72.97,100.07,1785098577625.716
0.773,-0.099,0.084,-127.26,-83.07,111.03,1785098577636.6091
0.734,-0.144,0.034,-122.41,-95.49,121.71,1785098577649.876
0.726,-0.136,-0.017,-117.25,-107.03,130.04,1785098577655.951
0.694,-0.129,-0.044,-113.96,-118.72,138.16,1785098577669.3708
0.573,-0.181,-0.046,-106.3,-131.08,144.54,1785098577675.368
0.388,-0.274,-0.061,-93.69,-146.58,148.26,1785098577686.51
0.211,-0.31,-0.112,-82.64,-166.66,151.25,1785098577699.762
0.064,-0.296,-0.155,-74.04,-189.34,157.9,1785098577705.771
-0.094,-0.297,-0.166,-63.2,-214.03,165.35,1785098577719.179
-0.268,-0.375,-0.259,-45.11,-238.29,169.32,1785098577725.324
-0.475,-0.565,-0.461,-22.13,-253.67,166.14,1785098577736.1548
-0.676,-0.837,-0.787,-6.93,-259.04,153.6,1785098577749.407
-0.837,-1.003,-1.18,-14.68,-251.9,135.53,1785098577755.49
-0.873,-1.127,-1.522,-36.65,-228.25,120.76,1785098577766.2778
-0.816,-1.343,-1.807,-57.53,-192.42,102.11,1785098577779.5352
-0.755,-1.516,-1.987,-74.4,-146.55,67.57,1785098577785.4788
-0.734,-1.537,-1.954,-84.2,-97.48,26.28,1785098577796.111
-0.714,-1.422,-1.739,-85.88,-53.07,-7.42,1785098577809.4949
-0.667,-1.264,-1.421,-81.09,-16.24,-33.39,1785098577815.417
-0.62,-1.127,-1.111,-66.1,14.04,-56.34,1785098577825.8801
-0.583,-0.967,-0.818,-37.02,38.03,-76.94,1785098577836.5
-0.481,-0.831,-0.675,9.61,57.41,-94.42,1785098577849.76
-0.376,-0.746,-0.647,62.07,74.68,-114.63,1785098577855.7551
-0.357,-0.723,-0.746,103.15,87.44,-136.66,1785098577866.414
-0.329,-0.739,-0.924,113.83,97.42,-156.96,1785098577879.6501
-0.331,-0.674,-0.989,95.46,106.48,-169.56,1785098577885.66
-0.273,-0.67,-0.982,77.39,118.32,-165.93,1785098577896.626
-0.167,-0.721,-0.952,72.79,131.78,-155.16,1785098577909.879
-0.041,-0.762,-0.922,78.25,144.96,-148.38,1785098577915.8
0.049,-0.692,-0.85,84.23,157.32,-141.94,1785098577929.2522
0.134,-0.556,-0.714,90.82,164.46,-127.78,1785098577935.206
0.338,-0.487,-0.614,104.04,168.0,-112.37,1785098577946.364
0.505,-0.38,-0.533,115.42,170.57,-103.64,1785098577959.6501
0.725,-0.283,-0.428,118.5,175.91,-93.6,1785098577965.417
0.902,-0.156,-0.251,113.28,178.81,-83.1,1785098577976.652
1.026,-0.12,-0.078,109.81,176.34,-66.38,1785098577990.0532
1.074,-0.104,0.032,108.04,168.46,-50.05,1785098577995.8699
1.035,-0.007,0.169,102.85,157.38,-33.39,1785098578009.3599
1.169,0.013,0.266,101.6,149.63,-17.15,1785098578015.254
1.38,0.025,0.361,101.47,145.24,-8.61,1785098578026.065
1.584,0.074,0.434,94.82,141.27,-6.26,1785098578039.377
1.755,0.174,0.541,77.12,137.46,-5.46,1785098578047.4397
1.95,0.24,0.634,55.27,133.58,-6.1,1785098578055.786
2.093,0.31,0.731,31.19,127.72,-11.69,1785098578066.645
2.177,0.394,0.833,10.83,117.01,-17.7,1785098578079.8608
2.289,0.548,0.897,-1.62,102.79,-24.32,1785098578085.833
2.403,0.794,0.958,-9.95,85.54,-30.95,1785098578096.3042
2.468,1.098,0.96,-9.83,64.46,-35.0,1785098578109.566
2.429,1.377,0.929,0.7,41.08,-28.44,1785098578115.4868
2.312,1.391,0.889,28.99,17.55,-10.53,1785098578125.839
2.143,1.117,0.776,62.04,1.92,-6.13,1785098578136.374
2.001,0.801,0.636,61.28,-5.58,-23.35,1785098578149.587
1.853,0.607,0.532,22.92,-11.93,-46.27,1785098578155.7278
1.749,0.442,0.453,-27.25,-18.04,-57.62,1785098578166.048
1.663,0.354,0.39,-70.19,-24.72,-55.51,1785098578176.5771
1.595,0.342,0.339,-99.12,-30.76,-43.09,1785098578189.915
1.595,0.342,0.339,-117.04,-36.16,-25.85,1785098578195.7952
1.536,0.339,0.286,-128.51,-41.35,-8.24,1785098578206.395
1.485,0.311,0.25,-129.89,-45.23,10.74,1785098578219.5894
1.406,0.255,0.247,-122.62,-47.7,26.34,1785098578225.591
1.386,0.193,0.207,-119.27,-51.0,40.89,1785098578236.358
1.329,0.156,0.178,-119.27,-51.0,40.89,1785098578249.588
1.266,0.109,0.178,-118.69,-55.27,56.03,1785098578255.5981
1.154,0.062,0.17,-116.25,-60.15,77.15,1785098578266.295
1.034,0.05,0.14,-110.45,-68.64,101.66,1785098578279.531
0.941,0.021,0.111,-105.44,-81.79,128.76,1785098578285.5051
0.82,0.006,0.067,-103.49,-99.89,151.95,1785098578296.561
0.641,-0.021,0.047,-101.35,-117.28,167.12,1785098578309.778
0.426,-0.172,0.049,-92.9,-131.75,177.34,1785098578315.7383
0.201,-0.363,-0.002,-80.17,-143.04,180.7,1785098578329.267
0.029,-0.441,-0.052,-71.47,-152.38,181.28,1785098578335.2407
-0.082,-0.45,-0.062,-64.85,-168.07,187.2,1785098578346.2842
-0.219,-0.507,-0.09,-54.48,-195.81,194.22,1785098578359.4827
-0.394,-0.586,-0.211,-44.77,-230.6,197.33,1785098578365.4568
-0.608,-0.675,-0.412,-40.83,-261.02,197.12,1785098578376.491
-0.819,-0.791,-0.653,-43.7,-278.79,191.93,1785098578389.7842
-0.984,-0.924,-0.929,-54.63,-278.24,180.88,1785098578395.6953
-1.106,-0.988,-1.229,-71.78,-257.61,162.27,1785098578409.152
-1.105,-1.107,-1.569,-80.48,-220.53,135.44,1785098578415.0742
-1.06,-1.283,-1.91,-83.44,-177.98,95.25,1785098578426.015
-0.991,-1.317,-2.054,-100.65,-133.61,53.25,1785098578439.301
-0.795,-1.254,-1.912,-127.35,-84.14,24.32,1785098578445.396
-0.582,-1.175,-1.541,-146.58,-37.14,-1.28,1785098578455.9731
-0.496,-1.106,-1.155,-148.05,0.21,-34.82,1785098578466.85
-0.535,-1.017,-0.793,-126.9,28.2,-69.7,1785098578479.901
-0.579,-0.971,-0.54,-82.13,45.17,-97.02,1785098578485.8901
-0.569,-0.965,-0.465,-23.29,57.34,-119.75,1785098578496.5388
-0.555,-0.984,-0.533,36.99,70.35,-143.31,1785098578509.815
-0.584,-0.957,-0.64,83.47,80.45,-167.36,1785098578515.698
-0.629,-0.894,-0.757,109.5,87.04,-183.23,1785098578526.68
-0.639,-0.86,-0.896,122.35,94.55,-185.92,1785098578539.937
-0.537,-0.83,-0.987,121.31,105.56,-184.91,1785098578545.781
-0.382,-0.728,-0.956,107.49,115.39,-185.34,1785098578559.385
-0.205,-0.672,-0.915,99.25,124.24,-182.99,1785098578565.488
-0.045,-0.657,-0.878,97.05,131.47,-176.55,1785098578576.4019
0.052,-0.568,-0.723,96.19,139.1,-165.96,1785098578589.783
0.239,-0.483,-0.602,103.31,146.61,-152.71,1785098578595.637
0.456,-0.362,-0.495,109.26,151.86,-142.03,1785098578609.3618
0.589,-0.211,-0.323,109.07,157.11,-127.35,1785098578615.211
0.728,-0.197,-0.186,109.62,158.73,-103.76,1785098578626.427
0.855,-0.178,-0.064,104.1,155.58,-84.17,1785098578639.6548
1.038,-0.114,0.036,88.6,147.53,-66.59,1785098578645.591
1.301,-0.049,0.17,60.0,140.26,-54.32,1785098578656.4858
1.478,-0.035,0.313,19.9,132.45,-44.74,1785098578669.698
1.623,-0.039,0.488,-20.72,126.29,-37.11,1785098578675.658
1.854,0.068,0.565,-53.56,119.24,-32.75,1785098578686.368
2.085,0.344,0.572,-83.22,108.8,-26.61,1785098578699.6802
2.257,0.579,0.567,-99.49,97.6,-17.85,1785098578705.665
2.455,0.823,0.535,-91.22,85.85,-11.66,1785098578716.127
2.616,1.161,0.494,-55.06,71.44,-1.5,1785098578729.376
2.698,1.556,0.48,7.9,55.94,9.4,1785098578735.3489
2.694,1.835,0.452,87.31,37.08,16.39,1785098578745.638
2.598,1.67,0.425,157.51,16.85,21.33,1785098578756.432
2.447,1.094,0.444,184.48,1.04,18.83,1785098578769.6772
2.278,0.568,0.471,151.49,-9.25,-1.89,1785098578775.531
2.132,0.249,0.395,78.34,-16.11,-28.69,1785098578786.023
1.978,0.162,0.274,-12.36,-23.99,-51.3,1785098578796.5923
1.857,0.159,0.209,-98.18,-31.28,-59.11,1785098578809.871
1.686,0.199,0.189,-156.59,-36.87,-56.18,1785098578815.804
1.636,0.195,0.166,-184.27,-37.14,-48.68,1785098578826.57
1.519,0.149,0.157,-186.74,-36.38,-35.74,1785098578839.822
1.457,0.252,0.154,-173.83,-34.0,-29.88,1785098578845.678
1.391,0.284,0.146,-157.96,-28.5,-28.53,1785098578856.4749
1.316,0.19,0.169,-142.19,-24.02,-21.88,1785098578869.6848
1.251,0.115,0.189,-117.59,-26.4,-5.86,1785098578875.693
1.17,0.063,0.161,-85.36,-36.65,15.29,1785098578886.2842
1.107,0.011,0.119,-59.66,-49.65,38.51,1785098578899.488
1.023,-0.006,0.103,-43.52,-59.85,58.05,1785098578905.504
0.926,-0.06,0.075,-28.11,-68.3,72.18,1785098578915.9639
0.794,-0.164,0.034,-8.03,-77.03,86.55,1785098578926.535
0.645,-0.237,-0.037,13.34,-86.28,100.31,1785098578939.8489
0.53,-0.228,-0.096,26.37,-93.78,111.88,1785098578945.6848
0.445,-0.185,-0.122,32.04,-101.63,124.24,1785098578956.667
0.347,-0.201,-0.113,38.88,-113.35,138.86,1785098578969.86
0.189,-0.326,-0.104,55.27,-129.49,149.78,1785098578975.773
-0.007,-0.508,-0.122,79.41,-147.47,153.63,1785098578989.374
-0.187,-0.671,-0.197,101.72,-163.37,154.64,1785098578995.2341
-0.34,-0.755,-0.282,114.26,-173.83,156.93,1785098579006.456
-0.477,-0.87,-0.435,119.45,-179.69,158.73,1785098579019.632
-0.618,-1.103,-0.717,116.52,-179.75,153.02,1785098579025.6807
-0.767,-1.357,-1.016,101.63,-165.01,138.98,1785098579039.3801
-0.854,-1.576,-1.243,84.75,-135.96,125.13,1785098579045.312
-0.673,-1.781,-1.387,75.99,-100.13,107.58,1785098579056.39
-0.54,-1.805,-1.41,71.84,-65.31,71.44,1785098579069.4988
-0.568,-1.706,-1.396,63.08,-33.11,34.42,1785098579075.4758
-0.632,-1.533,-1.29,35.86,-1.92,4.03,1785098579085.84
-0.651,-1.327,-1.094,-1.01,24.84,-26.49,1785098579096.337
-0.585,-1.134,-0.904,-30.64,48.13,-58.72,1785098579109.648
-0.518,-0.965,-0.707,-39.92,66.56,-90.3,1785098579115.499
-0.448,-0.924,-0.585,-23.8,74.68,-118.08,1785098579126.2021
-0.419,-0.918,-0.522,7.05,78.65,-141.91,1785098579139.5771
-0.382,-0.918,-0.521,45.32,81.7,-154.42,1785098579144.8572
-0.274,-0.899,-0.58,83.1,84.26,-159.52,1785098579156.2932
-0.228,-0.779,-0.558,108.13,86.15,-160.47,1785098579169.3389
-0.143,-0.725,-0.539,130.65,86.49,-153.51,1785098579175.2341
-0.018,-0.69,-0.547,150.12,87.5,-151.49,1785098579186.34
0.084,-0.544,-0.517,159.73,91.68,-150.33,1785098579199.507
0.186,-0.368,-0.426,159.06,93.39,-144.66,1785098579205.446
0.378,-0.307,-0.327,155.74,93.33,-136.88,1785098579216.4668
0.56,-0.308,-0.228,157.81,94.03,-132.54,1785098579229.7512
0.721,-0.284,-0.13,168.25,95.55,-124.55,1785098579235.696
0.826,-0.22,-0.054,184.61,97.6,-110.78,1785098579249.134
0.925,-0.135,0.021,199.99,98.67,-92.78,1785098579255.0862
1.138,-0.025,0.084,208.11,97.48,-76.17,1785098579265.974
1.292,0.064,0.172,204.84,93.6,-68.24,1785098579279.2031
1.506,0.058,0.226,194.37,90.95,-67.72,1785098579285.2822
1.68,0.069,0.235,176.15,89.91,-68.45,1785098579295.768
1.859,0.121,0.219,145.3,89.91,-66.29,1785098579306.648
2.001,0.199,0.226,104.71,88.41,-64.3,1785098579319.853
2.12,0.251,0.218,61.62,84.66,-64.33,1785098579325.79
2.21,0.352,0.221,16.14,77.12,-65.16,1785098579336.3782
2.288,0.484,0.242,-26.18,67.05,-64.97,1785098579349.611
2.314,0.629,0.273,-63.2,54.9,-65.89,1785098579355.6963
2.305,0.756,0.317,-92.14,41.32,-68.27,1785098579366.137
2.259,0.875,0.357,-108.37,28.17,-72.66,1785098579379.3862
2.189,0.978,0.38,-111.0,15.84,-77.39,1785098579385.296
2.07,1.044,0.363,-103.55,6.41,-84.14,1785098579395.982
1.918,1.024,0.363,-92.5,-1.71,-89.3,1785098579406.531
1.756,0.932,0.36,-77.12,-10.68,-88.14,1785098579419.761
