ax,ay,az,gx,gy,gz,timestamp_ms
0.218,-0.26,-0.539,95.65,178.93,-124.0,1785098632880.948
0.341,-0.187,-0.459,83.01,175.42,-109.87,1785098632881.549
0.455,-0.153,-0.341,71.72,172.31,-96.1,1785098632882.014
0.61,-0.169,-0.23,65.65,167.06,-83.47,1785098632882.517
0.804,-0.175,-0.153,61.49,163.52,-71.87,1785098632882.993
1.015,-0.168,-0.013,58.17,163.55,-52.64,1785098632883.426
1.206,-0.137,0.073,55.27,160.68,-27.86,1785098632883.8433
1.264,-0.106,0.232,47.91,154.91,1.37,1785098632884.2727
1.358,-0.07,0.354,42.51,142.98,26.55,1785098632884.7139
1.562,0.088,0.457,32.11,125.71,39.31,1785098632885.151
1.757,0.198,0.516,16.91,107.15,45.87,1785098632885.597
1.931,0.182,0.539,1.68,95.07,46.36,1785098632886.017
2.048,0.103,0.523,-6.35,88.05,48.71,1785098632886.416
2.132,0.062,0.461,-3.36,79.5,60.37,1785098632886.8108
2.142,0.098,0.372,6.99,67.29,73.85,1785098632887.2222
2.136,0.193,0.288,13.18,55.88,79.04,1785098632887.6328
2.134,0.262,0.257,11.51,45.63,73.03,1785098632887.9858
2.114,0.276,0.275,6.38,36.68,59.72,1785098632888.33
2.092,0.261,0.306,1.65,29.36,43.86,1785098632888.669
2.058,0.234,0.322,-4.58,20.66,26.98,1785098632889.015
2.021,0.191,0.338,-16.17,10.35,8.67,1785098632889.3499
1.95,0.144,0.357,-30.58,-1.4,-11.47,1785098632889.688
1.83,0.1,0.353,-42.39,-11.54,-30.82,1785098632890.031
1.715,0.069,0.332,-49.96,-14.95,-48.28,1785098632890.372
1.635,-0.003,0.308,-53.1,-17.55,-55.76,1785098632890.714
1.509,-0.035,0.276,-46.69,-25.3,-52.06,1785098632891.052
1.504,0.005,0.188,-36.84,-30.06,-53.44,1785098632891.389
1.482,-0.029,0.144,-40.71,-32.78,-53.59,1785098632891.789
1.422,-0.126,0.134,-50.57,-38.73,-48.25,1785098632892.142
1.373,-0.178,0.13,-54.72,-43.15,-43.0,1785098632892.517
1.341,-0.196,0.119,-57.62,-48.19,-34.52,1785098632892.858
1.317,-0.186,0.096,-62.78,-55.42,-24.45,1785098632893.2202
1.339,-0.137,0.067,-70.83,-63.14,-12.48,1785098632893.575
1.352,-0.098,0.055,-77.06,-69.28,1.16,1785098632893.9321
1.296,-0.173,0.037,-73.55,-76.69,16.79,1785098632894.284
1.148,-0.263,-0.027,-65.74,-82.25,26.34,1785098632894.6262
1.042,-0.281,-0.082,-62.59,-82.55,34.91,1785098632894.957
0.959,-0.295,-0.122,-60.64,-84.75,48.65,1785098632895.295
0.872,-0.3,-0.167,-58.72,-92.72,64.67,1785098632895.61
0.84,-0.262,-0.198,-57.47,-101.08,81.36,1785098632895.956
0.801,-0.27,-0.219,-52.1,-108.04,99.64,1785098632896.2922
0.649,-0.315,-0.228,-44.92,-116.67,117.92,1785098632896.607
0.42,-0.361,-0.223,-37.08,-124.39,135.35,1785098632896.907
0.189,-0.387,-0.257,-28.87,-134.07,153.26,1785098632897.198
-0.021,-0.391,-0.28,-21.0,-149.82,172.67,1785098632897.497
-0.201,-0.45,-0.301,-9.74,-171.85,188.82,1785098632897.793
-0.382,-0.515,-0.415,-2.32,-197.85,194.65,1785098632898.091
-0.545,-0.574,-0.553,-3.42,-216.9,195.2,1785098632898.381
-0.647,-0.755,-0.763,-5.62,-225.56,192.27,1785098632898.68
-0.83,-0.834,-1.029,-16.27,-219.4,178.9,1785098632898.9817
-1.015,-0.797,-1.252,-31.89,-201.64,170.57,1785098632899.2852
-1.07,-0.827,-1.576,-41.93,-175.12,166.91,1785098632899.5781
-1.02,-0.89,-1.777,-48.98,-129.49,148.78,1785098632899.8862
-0.919,-0.93,-1.707,-55.15,-79.32,112.98,1785098632900.189
-0.736,-0.974,-1.476,-63.39,-43.12,77.49,1785098632900.4778
-0.533,-0.987,-1.074,-74.98,-18.46,47.46,1785098632900.776
-0.388,-0.904,-0.64,-82.67,-6.47,23.1,1785098632901.07
-0.262,-0.781,-0.428,-76.63,-3.6,4.94,1785098632901.3828
-0.138,-0.71,-0.446,-56.76,-1.34,-17.12,1785098632901.664
-0.126,-0.676,-0.519,-29.73,4.15,-55.27,1785098632901.986
-0.247,-0.658,-0.653,-0.12,14.47,-103.15,1785098632902.361
-0.383,-0.663,-0.818,23.59,29.08,-144.23,1785098632902.677
-0.496,-0.707,-0.902,35.22,42.66,-171.54,1785098632902.962
-0.54,-0.807,-0.928,40.68,54.29,-188.3,1785098632903.255
-0.54,-0.807,-0.928,44.43,67.84,-200.32,1785098632903.528
-0.577,-0.94,-1.0,40.56,81.94,-203.99,1785098632903.7913
-0.608,-1.005,-1.048,35.43,94.97,-196.81,1785098632904.048
-0.594,-1.012,-1.02,40.86,108.07,-184.67,1785098632904.317
-0.513,-1.039,-0.983,40.86,108.07,-184.67,1785098632904.5862
-0.421,-1.011,-0.936,51.7,123.66,-178.11,1785098632904.845
-0.35,-0.895,-0.847,62.93,137.79,-173.04,1785098632905.111
-0.236,-0.744,-0.806,76.82,148.84,-164.31,1785098632905.406
-0.036,-0.551,-0.806,84.41,159.09,-153.26,1785098632905.6719
0.177,-0.304,-0.698,79.26,167.06,-140.87,1785098632905.9683
0.389,-0.203,-0.564,73.37,170.02,-126.13,1785098632906.2332
0.571,-0.244,-0.477,68.09,170.05,-116.64,1785098632906.523
0.65,-0.241,-0.367,59.76,168.49,-111.18,1785098632906.791
0.619,-0.168,-0.245,53.62,161.17,-99.49,1785098632907.0488
0.589,-0.139,-0.175,54.29,152.53,-80.75,1785098632907.3337
0.641,-0.135,-0.121,59.48,145.3,-64.36,1785098632907.5999
0.855,-0.05,-0.05,68.54,141.97,-47.06,1785098632907.869
1.124,0.051,0.069,76.17,138.77,-19.62,1785098632908.125
1.25,0.089,0.135,81.97,129.37,9.19,1785098632908.3892
1.251,0.084,0.186,87.04,120.21,32.17,1785098632908.656
1.343,0.171,0.299,87.83,110.45,49.2,1785098632908.9128
1.531,0.275,0.374,88.78,94.88,63.2,1785098632909.176
1.688,0.26,0.366,94.76,81.76,69.55,1785098632909.436
1.712,0.2,0.318,98.97,74.8,69.64,1785098632909.692
1.676,0.087,0.242,101.9,70.83,71.93,1785098632909.9463
1.643,0.019,0.175,106.14,66.1,75.38,1785098632910.208
1.6,-0.049,0.124,112.67,58.84,83.53,1785098632910.4697
1.556,-0.115,0.048,120.09,49.65,91.62,1785098632910.7358
1.497,-0.142,-0.006,117.95,40.71,97.78,1785098632910.995
1.418,-0.2,0.012,105.96,32.81,106.81,1785098632911.266
1.366,-0.228,0.059,92.17,26.03,113.96,1785098632911.5342
1.341,-0.216,0.065,74.71,19.14,110.48,1785098632911.769
1.312,-0.199,0.118,45.72,14.53,93.39,1785098632912.0122
1.251,-0.337,0.171,15.93,7.75,79.68,1785098632912.263
1.096,-0.469,0.207,2.29,-8.3,81.73,1785098632912.502
1.049,-0.377,0.187,5.19,-15.87,73.55,1785098632912.7302
1.089,-0.33,0.156,1.53,-13.49,60.49,1785098632912.967
1.012,-0.435,0.08,-5.77,-19.32,56.61,1785098632913.2048
0.907,-0.502,0.045,-3.45,-24.51,51.15,1785098632913.437
0.901,-0.502,0.042,-3.11,-23.01,46.91,1785098632913.6792
0.891,-0.509,0.032,-8.15,-23.19,42.88,1785098632913.919
0.86,-0.547,0.032,-15.44,-27.41,39.55,1785098632914.164
0.849,-0.589,0.038,-24.78,-32.81,40.13,1785098632914.4312
0.843,-0.588,0.045,-33.66,-37.26,41.93,1785098632914.6812
0.844,-0.602,0.025,-37.42,-38.45,42.85,1785098632914.941
0.83,-0.643,-0.001,-37.87,-38.21,40.65,1785098632915.1812
0.812,-0.667,-0.029,-38.09,-38.06,35.4,1785098632915.415
0.796,-0.689,-0.041,-39.55,-38.51,31.25,1785098632915.667
0.784,-0.727,-0.037,-36.9,-40.07,29.15,1785098632915.9197
0.775,-0.804,-0.04,-27.47,-40.89,26.28,1785098632916.1602
0.749,-0.88,-0.087,-17.67,-41.14,21.15,1785098632916.4128
0.727,-0.905,-0.128,-13.92,-39.67,17.21,1785098632916.666
0.713,-0.893,-0.158,-14.31,-38.45,16.79,1785098632916.9438
0.698,-0.85,-0.173,-16.3,-38.03,19.17,1785098632917.176
0.701,-0.809,-0.162,-16.17,-37.32,22.52,1785098632917.402
0.711,-0.848,-0.169,-10.04,-36.29,21.27,1785098632917.6309
0.664,-0.872,-0.223,-6.99,-35.62,13.98,1785098632917.846
0.626,-0.844,-0.253,-14.47,-33.75,9.22,1785098632918.0679
0.604,-0.807,-0.26,-26.95,-32.44,9.83,1785098632918.3071
0.62,-0.805,-0.228,-35.89,-32.84,16.66,1785098632918.5469
0.632,-0.841,-0.206,-31.65,-36.04,23.38,1785098632918.762
0.632,-0.897,-0.211,-18.71,-41.17,32.41,1785098632919.0027
0.58,-0.799,-0.249,-4.03,-40.53,30.06,1785098632919.224
0.588,-0.718,-0.292,2.2,-34.55,25.15,1785098632919.439
0.616,-0.728,-0.303,0.82,-31.89,22.74,1785098632919.6602
0.577,-0.745,-0.306,-1.19,-32.65,17.76,1785098632919.884
0.555,-0.748,-0.31,-2.29,-31.07,14.13,1785098632920.105
0.565,-0.765,-0.318,-0.46,-29.66,14.47,1785098632920.317
0.566,-0.766,-0.318,2.69,-28.75,14.95,1785098632920.533
0.558,-0.743,-0.308,5.89,-27.71,17.67,1785098632920.752
0.559,-0.73,-0.29,10.32,-26.8,22.92,1785098632920.9678
0.543,-0.746,-0.278,16.48,-27.28,28.69,1785098632921.22
0.544,-0.763,-0.278,22.68,-27.99,34.85,1785098632921.4468
0.561,-0.757,-0.284,26.7,-27.59,38.61,1785098632921.687
0.577,-0.759,-0.293,27.34,-26.55,38.85,1785098632921.924
0.574,-0.772,-0.309,22.98,-26.49,36.81,1785098632922.208
0.567,-0.777,-0.306,14.68,-26.8,36.5,1785098632922.483
0.578,-0.773,-0.289,9.06,-26.7,38.3,1785098632922.7068
0.593,-0.754,-0.28,8.21,-26.09,39.49,1785098632922.928
0.605,-0.743,-0.276,9.46,-25.24,40.07,1785098632923.146
0.608,-0.736,-0.271,9.52,-25.09,39.74,1785098632923.4219
0.607,-0.729,-0.269,7.39,-25.48,38.51,1785098632923.6292
0.613,-0.736,-0.267,3.72,-25.7,37.11,1785098632923.8433
0.61,-0.758,-0.266,-1.1,-26.43,35.1,1785098632924.054
0.599,-0.78,-0.268,-6.32,-27.34,33.45,1785098632924.2593
0.597,-0.81,-0.274,-10.9,-28.17,33.3,1785098632924.47
0.593,-0.846,-0.273,-14.83,-29.11,34.42,1785098632924.6863
0.589,-0.877,-0.273,-17.43,-30.27,35.58,1785098632924.9011
0.589,-0.882,-0.274,-19.38,-31.04,35.31,1785098632925.107
0.59,-0.874,-0.272,-20.33,-31.34,34.64,1785098632925.3188
0.59,-0.854,-0.276,-20.36,-31.95,33.88,1785098632925.532
0.593,-0.836,-0.284,-19.59,-31.98,30.82,1785098632925.7422
0.594,-0.845,-0.29,-18.98,-31.74,26.98,1785098632925.951
0.589,-0.857,-0.297,-19.17,-32.38,23.8,1785098632926.1638
0.574,-0.852,-0.317,-19.47,-33.39,20.33,1785098632926.38
0.567,-0.843,-0.334,-20.39,-33.36,16.85,1785098632926.587
0.566,-0.833,-0.344,-22.4,-32.38,12.36,1785098632926.797
0.57,-0.819,-0.347,-24.26,-31.46,6.96,1785098632927.007
0.559,-0.815,-0.352,-24.75,-30.52,1.98,1785098632927.222
0.549,-0.836,-0.346,-23.29,-29.76,0.73,1785098632927.427
0.55,-0.864,-0.33,-17.64,-29.51,3.11,1785098632927.6372
0.544,-0.854,-0.325,-8.33,-29.21,3.75,1785098632927.837
0.533,-0.843,-0.337,1.13,-28.5,4.3,1785098632928.0361
0.53,-0.803,-0.378,10.96,-27.95,1.92,1785098632928.437
0.53,-0.795,-0.384,10.13,-26.22,-1.25,1785098632928.64
-0.605,-0.796,-0.583,-2.53,3.17,10.28,1785098632929.085
-0.669,-0.88,-0.581,-3.75,2.62,6.96,1785098632929.281
-0.735,-0.943,-0.588,-3.45,4.73,2.78,1785098632930.429
-0.805,-0.999,-0.579,0.46,9.25,-1.74,1785098632935.7869
-0.849,-1.049,-0.575,9.58,15.05,-8.33,1785098632946.1948
-0.898,-1.076,-0.56,24.23,20.66,-17.0,1785098632956.7969
-0.911,-1.041,-0.533,43.03,25.24,-26.28,1785098632970.054
-0.886,-1.025,-0.56,62.78,27.34,-34.42,1785098632975.7231
-0.897,-1.024,-0.605,75.2,29.36,-44.89,1785098632986.499
-0.909,-1.013,-0.625,77.09,29.54,-55.67,1785098632997.14
-0.913,-1.006,-0.659,73.15,29.42,-64.12,1785098633010.425
-0.915,-0.977,-0.683,62.9,31.25,-69.67,1785098633016.18
-0.916,-0.94,-0.686,48.83,33.05,-72.97,1785098633026.905
-0.907,-0.926,-0.651,34.94,34.58,-75.01,1785098633040.283
-0.867,-0.932,-0.613,24.81,34.82,-76.2,1785098633045.93
-0.793,-0.942,-0.591,19.84,34.7,-76.6,1785098633056.648
-0.707,-0.954,-0.582,20.72,34.85,-75.56,1785098633067.4062
-0.643,-0.957,-0.571,24.87,34.33,-72.12,1785098633080.649
-0.6,-0.962,-0.563,29.45,33.39,-66.9,1785098633086.2751
-0.564,-0.941,-0.552,32.2,32.07,-60.95,1785098633097.037
-0.505,-0.913,-0.532,33.85,30.4,-53.47,1785098633110.435
-0.446,-0.913,-0.502,35.55,27.71,-47.18,1785098633116.3381
-0.396,-0.922,-0.462,36.07,23.99,-42.42,1785098633126.8962
-0.345,-0.956,-0.447,37.75,20.48,-37.81,1785098633137.523
-0.306,-0.992,-0.445,40.96,17.52,-33.51,1785098633150.732
-0.276,-0.981,-0.462,44.92,14.86,-28.17,1785098633156.758
-0.244,-0.948,-0.49,48.8,12.45,-21.03,1785098633167.2031
-0.206,-0.924,-0.542,49.47,10.53,-15.29,1785098633180.481
-0.169,-0.897,-0.578,45.2,10.44,-12.73,1785098633186.4
-0.126,-0.884,-0.58,38.91,10.86,-10.83,1785098633196.939
-0.097,-0.886,-0.576,32.35,11.38,-10.59,1785098633210.176
-0.095,-0.856,-0.539,23.47,11.72,-11.11,1785098633216.147
-0.082,-0.818,-0.495,16.11,11.29,-9.74,1785098633226.5
-0.053,-0.808,-0.493,13.0,10.93,-9.13,1785098633237.08
-0.03,-0.801,-0.524,11.63,11.69,-10.38,1785098633250.3093
-0.014,-0.8,-0.548,8.3,13.55,-12.73,1785098633256.244
-0.009,-0.81,-0.561,2.11,15.87,-16.6,1785098633266.5752
0.002,-0.821,-0.573,-4.85,19.07,-20.39,1785098633277.17
0.025,-0.818,-0.561,-9.67,22.86,-22.58,1785098633290.407
0.043,-0.808,-0.544,-10.68,25.91,-23.07,1785098633296.322
0.052,-0.803,-0.515,-10.01,28.32,-22.95,1785098633306.7961
0.06,-0.822,-0.52,-7.2,30.98,-22.77,1785098633317.3188
0.051,-0.856,-0.549,-4.09,34.55,-23.5,1785098633330.567
0.03,-0.878,-0.557,-4.3,38.3,-25.57,1785098633336.4841
0.02,-0.869,-0.532,-8.73,41.32,-27.28,1785098633346.7651
0.04,-0.845,-0.499,-12.54,43.64,-27.04,1785098633357.461
0.079,-0.835,-0.492,-12.3,45.5,-26.15,1785098633370.656
0.103,-0.845,-0.52,-9.06,47.52,-27.13,1785098633376.596
0.094,-0.823,-0.55,-6.38,49.9,-29.73,1785098633386.954
0.093,-0.792,-0.58,-4.03,52.4,-30.73,1785098633397.485
0.101,-0.776,-0.596,-2.93,55.54,-32.41,1785098633410.769
0.105,-0.752,-0.593,-4.46,59.02,-35.16,1785098633416.6719
0.116,-0.739,-0.594,-5.95,62.9,-37.39,1785098633426.954
0.13,-0.748,-0.579,-7.08,66.23,-40.62,1785098633437.4958
0.146,-0.747,-0.583,-9.95,68.48,-44.53,1785098633450.787
0.181,-0.771,-0.6,-12.73,71.99,-47.91,1785098633456.6492
0.21,-0.817,-0.604,-16.45,75.93,-52.86,1785098633467.1638
0.225,-0.815,-0.601,-21.18,82.55,-61.71,1785098633480.317
0.271,-0.827,-0.555,-21.67,94.91,-72.51,1785098633486.135
0.287,-0.922,-0.542,-18.34,92.87,-71.9,1785098633496.8618
0.383,-1.009,-0.526,-9.52,81.67,-62.11,1785098633507.467
0.383,-0.979,-0.474,11.57,85.06,-62.07,1785098633520.652
0.364,-0.908,-0.453,37.93,90.49,-57.59,1785098633526.583
0.452,-0.819,-0.437,57.37,87.04,-48.71,1785098633537.119
0.601,-0.7,-0.409,68.76,87.68,-52.86,1785098633550.3628
0.713,-0.637,-0.416,68.73,90.67,-64.61,1785098633556.4512
0.815,-0.643,-0.388,57.13,90.61,-73.34,1785098633566.803
0.908,-0.696,-0.355,42.15,87.71,-78.68,1785098633577.488
0.999,-0.715,-0.339,30.7,83.96,-83.1,1785098633590.852
0.999,-0.715,-0.339,25.91,81.27,-87.86,1785098633596.6147
1.088,-0.69,-0.352,23.29,80.02,-95.13,1785098633607.177
1.186,-0.615,-0.371,23.07,77.94,-105.38,1785098633620.447
1.267,-0.553,-0.372,24.54,76.97,-118.08,1785098633626.398
1.32,-0.519,-0.403,24.72,76.94,-130.74,1785098633637.1628
1.359,-0.504,-0.437,24.72,76.94,-130.74,1785098633650.447
1.387,-0.479,-0.458,20.05,75.38,-143.89,1785098633656.511
1.404,-0.436,-0.47,8.55,73.43,-160.1,1785098633666.9978
1.401,-0.414,-0.457,-9.95,72.45,-178.14,1785098633680.2969
1.391,-0.408,-0.417,-31.31,72.33,-195.38,1785098633686.259
1.374,-0.411,-0.333,-47.36,72.3,-207.98,1785098633696.929
1.373,-0.466,-0.25,-50.9,72.39,-214.76,1785098633710.155
1.36,-0.531,-0.192,-45.23,71.41,-219.34,1785098633716.158
1.339,-0.555,-0.158,-36.87,68.45,-221.63,1785098633726.85
1.36,-0.535,-0.155,-29.63,63.26,-219.64,1785098633740.277
1.419,-0.516,-0.188,-27.04,56.83,-211.25,1785098633746.0798
1.472,-0.508,-0.182,-29.79,50.48,-194.68,1785098633756.855
1.457,-0.53,-0.16,-31.43,44.1,-173.13,1785098633767.539
1.368,-0.56,-0.166,-29.08,37.69,-150.88,1785098633780.8481
1.255,-0.588,-0.15,-23.32,31.62,-127.57,1785098633786.7761
1.146,-0.605,-0.106,-11.35,24.57,-101.75,1785098633797.559
1.056,-0.632,-0.095,9.43,16.75,-73.34,1785098633810.789
0.957,-0.568,-0.11,31.5,9.28,-45.5,1785098633816.6677
0.833,-0.369,-0.089,46.85,0.24,-15.99,1785098633826.9382
0.706,-0.199,-0.032,57.71,-10.86,16.51,1785098633840.306
0.604,-0.233,-0.006,65.52,-23.07,43.86,1785098633846.2012
0.423,-0.35,-0.018,63.33,-37.54,60.85,1785098633856.754
0.177,-0.407,-0.031,49.56,-52.8,77.64,1785098633867.275
-0.044,-0.35,-0.012,27.01,-69.98,101.47,1785098633880.533
-0.179,-0.322,-0.028,1.71,-86.37,123.39,1785098633886.4697
-0.308,-0.376,-0.093,-30.09,-100.96,137.06,1785098633897.274
-0.456,-0.46,-0.13,-67.78,-113.93,145.88,1785098633910.771
-0.616,-0.618,-0.162,-97.6,-125.92,151.34,1785098633916.5498
-0.787,-0.778,-0.233,-113.56,-134.8,154.3,1785098633929.954
-0.904,-0.904,-0.36,-112.16,-136.91,158.76,1785098633935.9832
-0.961,-1.002,-0.609,-94.09,-133.03,159.98,1785098633947.183
-0.987,-1.063,-0.923,-73.55,-122.04,153.84,1785098633960.392
-0.986,-1.104,-1.201,-65.46,-102.97,138.22,1785098633966.362
-0.928,-1.125,-1.383,-73.31,-73.95,111.03,1785098633977.265
-0.85,-1.159,-1.365,-89.48,-39.58,76.08,1785098633990.5742
-0.804,-1.134,-1.099,-105.14,-8.85,40.07,1785098633996.4402
-0.757,-1.131,-0.744,-101.78,14.34,5.1,1785098634006.9758
-0.721,-1.155,-0.518,-76.39,29.36,-31.8,1785098634020.201
-0.71,-1.103,-0.395,-40.86,38.39,-66.19,1785098634026.1582
-0.686,-0.99,-0.374,-0.76,43.15,-92.1,1785098634036.729
-0.647,-0.849,-0.441,35.07,45.17,-113.86,1785098634047.345
-0.656,-0.717,-0.541,58.99,44.56,-137.97,1785098634060.527
-0.687,-0.664,-0.654,69.43,45.47,-162.94,1785098634066.45
-0.728,-0.679,-0.738,65.37,47.82,-183.32,1785098634077.271
-0.676,-0.71,-0.755,53.29,54.17,-194.52,1785098634090.554
-0.611,-0.681,-0.738,42.05,60.0,-203.19,1785098634096.415
-0.537,-0.633,-0.716,35.13,63.63,-200.78,1785098634107.242
-0.417,-0.611,-0.664,33.33,65.89,-189.28,1785098634120.448
-0.302,-0.539,-0.597,34.67,66.93,-176.85,1785098634126.4219
-0.196,-0.466,-0.537,41.63,70.31,-164.07,1785098634137.1992
-0.066,-0.459,-0.511,53.68,75.01,-151.31,1785098634150.465
0.054,-0.439,-0.492,65.83,79.81,-140.02,1785098634156.509
0.256,-0.419,-0.494,81.82,87.86,-122.44,1785098634167.1638
0.546,-0.398,-0.473,101.05,98.27,-97.14,1785098634180.407
0.863,-0.333,-0.44,116.86,107.91,-66.65,1785098634186.332
1.123,-0.247,-0.317,123.33,114.35,-29.69,1785098634197.2769
1.317,-0.204,-0.169,122.35,113.83,9.25,1785098634210.5012
1.419,-0.207,-0.017,116.06,108.49,41.9,1785098634216.4822
1.515,-0.222,0.113,107.36,100.31,64.46,1785098634227.4849
1.758,-0.228,0.227,96.38,95.71,76.3,1785098634240.684
2.043,-0.224,0.304,81.15,94.24,81.03,1785098634246.5842
2.238,-0.177,0.35,59.42,90.7,78.37,1785098634257.162
2.368,-0.058,0.381,34.7,81.64,71.5,1785098634270.392
2.503,0.075,0.355,15.53,64.36,61.4,1785098634276.322
2.593,0.148,0.299,7.57,43.55,46.54,1785098634286.7332
2.634,0.185,0.202,10.9,26.28,28.53,1785098634297.394
2.639,0.214,0.062,18.19,14.4,11.57,1785098634310.6538
2.563,0.225,-0.063,25.91,4.09,-1.01,1785098634316.58
2.468,0.229,-0.185,29.66,-3.81,-13.43,1785098634326.833
2.326,0.232,-0.243,19.96,-8.88,-30.98,1785098634337.378
2.159,0.183,-0.222,0.46,-12.94,-49.99,1785098634350.614
1.995,0.175,-0.147,-23.32,-14.01,-69.37,1785098634356.577
1.876,0.094,-0.056,-44.5,-14.53,-76.39,1785098634366.979
1.755,0.082,0.008,-58.57,-16.45,-73.73,1785098634380.201
1.708,0.172,0.026,-72.36,-17.67,-74.13,1785098634386.1848
1.664,0.205,0.062,-94.45,-16.63,-74.1,1785098634396.7139
1.626,0.175,0.102,-115.85,-17.37,-70.1,1785098634407.438
1.609,0.13,0.126,-125.98,-22.98,-55.36,1785098634420.7449
1.497,0.071,0.102,-123.02,-32.53,-26.67,1785098634426.6172
1.346,0.047,0.083,-111.91,-37.87,7.66,1785098634437.304
1.215,0.035,0.053,-96.01,-42.02,40.65,1785098634450.519
1.074,-0.02,0.01,-80.81,-48.46,66.29,1785098634456.543
0.957,-0.13,-0.024,-70.5,-53.93,84.2,1785098634467.0022
0.812,-0.28,-0.076,-66.01,-60.7,100.62,1785098634479.9958
0.628,-0.389,-0.134,-66.93,-70.35,118.93,1785098634486.318
0.49,-0.423,-0.149,-70.35,-80.57,137.79,1785098634497.046
0.356,-0.435,-0.118,-72.08,-94.15,156.59,1785098634510.271
0.128,-0.476,-0.045,-70.13,-117.5,175.02,1785098634516.188
-0.133,-0.573,-0.015,-60.34,-149.54,190.98,1785098634527.154
-0.374,-0.746,-0.104,-44.65,-179.14,199.71,1785098634540.559
-0.65,-0.825,-0.217,-34.79,-199.07,199.22,1785098634546.357
-0.822,-0.808,-0.367,-31.71,-210.43,199.68,1785098634557.3918
-0.871,-0.832,-0.589,-33.97,-215.4,198.49,1785098634570.627
-0.94,-0.847,-0.923,-45.84,-211.95,185.31,1785098634576.565
-1.109,-0.909,-1.249,-62.41,-194.43,164.62,1785098634590.1719
-1.268,-1.034,-1.535,-79.87,-167.91,144.47,1785098634596.0642
-1.285,-1.201,-1.781,-98.61,-129.92,120.0,1785098634607.078
-1.151,-1.27,-1.829,-116.06,-85.24,92.68,1785098634620.227
-0.941,-1.282,-1.662,-124.52,-44.77,69.73,1785098634626.1902
-0.738,-1.264,-1.279,-120.85,-9.67,48.16,1785098634636.7202
-0.613,-1.207,-0.885,-100.38,15.66,22.49,1785098634650.12
-0.551,-1.135,-0.618,-64.3,30.76,-5.55,1785098634656.237
-0.546,-1.013,-0.466,-21.21,39.74,-41.35,1785098634666.5752
-0.577,-0.823,-0.444,20.78,44.31,-80.45,1785098634677.205
-0.555,-0.78,-0.591,61.01,51.39,-120.85,1785098634690.54
-0.62,-0.802,-0.788,79.84,59.45,-168.77,1785098634696.044
-0.726,-0.778,-0.968,67.84,65.46,-207.56,1785098634707.252
-0.751,-0.774,-1.077,39.77,72.63,-224.22,1785098634720.4312
-0.725,-0.764,-1.091,8.09,82.55,-225.9,1785098634726.414
-0.657,-0.753,-1.019,-16.66,93.39,-217.08,1785098634737.2869
-0.526,-0.812,-0.918,-21.67,105.78,-204.26,1785098634750.34
-0.435,-0.806,-0.798,-10.47,115.51,-195.68,1785098634756.4202
-0.262,-0.766,-0.774,12.45,125.22,-186.59,1785098634767.279
-0.03,-0.625,-0.729,30.06,134.13,-175.7,1785098634780.556
0.203,-0.491,-0.655,40.65,137.18,-160.92,1785098634786.591
0.359,-0.373,-0.559,41.57,134.46,-145.54,1785098634797.546
0.465,-0.208,-0.424,35.31,127.96,-126.93,1785098634810.814
0.668,-0.149,-0.343,36.9,122.68,-108.13,1785098634816.711
0.858,-0.135,-0.262,40.71,121.13,-94.79,1785098634830.208
1.102,-0.088,-0.185,44.47,120.33,-76.11,1785098634836.1667
1.347,-0.021,-0.072,50.42,114.08,-49.81,1785098634846.97
1.52,0.072,0.016,55.02,98.94,-21.03,1785098634857.535
1.625,0.154,0.129,53.9,81.36,4.06,1785098634870.8533
1.674,0.208,0.246,45.9,67.81,20.91,1785098634876.71
1.674,0.208,0.246,34.18,57.8,24.11,1785098634887.1692
1.795,0.27,0.355,24.72,47.46,16.33,1785098634900.428
1.914,0.338,0.416,17.24,43.64,1.56,1785098634906.454
2.041,0.364,0.387,6.41,46.21,-13.58,1785098634916.716
2.224,0.404,0.307,6.41,46.21,-13.58,1785098634927.249
2.303,0.449,0.261,-1.37,48.46,-22.16,1785098634940.5469
2.335,0.49,0.176,3.27,50.2,-24.41,1785098634946.4253
2.284,0.502,0.102,12.76,47.58,-20.39,1785098634956.821
2.216,0.464,0.044,20.2,37.69,-14.34,1785098634967.3972
2.142,0.438,0.01,20.2,23.22,-11.99,1785098634980.632
2.069,0.425,0.01,12.51,9.49,-14.16,1785098634986.584
1.971,0.389,0.009,-0.15,0.06,-19.04,1785098634996.854
1.809,0.367,0.016,-19.2,-7.02,-27.25,1785098635007.4019
1.658,0.303,0.047,-41.38,-13.76,-29.33,1785098635020.716
1.533,0.279,0.074,-60.43,-20.69,-27.25,1785098635026.6528
1.424,0.276,0.073,-73.03,-31.43,-21.21,1785098635037.146
1.31,0.251,0.07,-79.96,-42.48,-9.61,1785098635050.318
1.247,0.214,0.028,-80.66,-51.79,5.34,1785098635056.3992
1.219,0.197,-0.042,-78.8,-65.58,21.82,1785098635066.614
1.162,0.171,-0.135,-75.32,-84.11,37.93,1785098635077.3142
1.083,0.123,-0.211,-74.5,-95.92,50.84,1785098635090.573
1.018,0.049,-0.256,-74.86,-100.74,64.88,1785098635096.4548
0.942,0.003,-0.29,-74.65,-106.33,77.12,1785098635107.1758
0.848,-0.025,-0.322,-74.77,-114.29,86.73,1785098635120.4338
0.728,-0.056,-0.345,-76.39,-123.84,96.19,1785098635126.431
0.609,-0.111,-0.342,-73.15,-133.88,107.18,1785098635137.2622
0.429,-0.234,-0.38,-57.62,-147.59,120.15,1785098635150.5889
0.214,-0.343,-0.404,-36.5,-156.32,130.41,1785098635156.328
0.042,-0.413,-0.399,-13.06,-160.25,138.95,1785098635167.5142
-0.118,-0.477,-0.396,14.01,-169.32,150.82,1785098635180.825
-0.233,-0.585,-0.408,47.46,-177.53,160.28,1785098635186.73
-0.326,-0.76,-0.452,82.74,-183.23,163.03,1785098635200.116
-0.508,-0.91,-0.56,107.39,-190.47,160.53,1785098635206.156
-0.654,-1.021,-0.714,116.76,-195.41,162.08,1785098635217.2742
-0.688,-1.193,-0.855,116.58,-192.48,163.09,1785098635230.514
-0.735,-1.344,-1.054,112.92,-179.85,152.01,1785098635236.5469
-0.81,-1.415,-1.215,106.42,-154.03,131.87,1785098635250.092
-0.9,-1.327,-1.279,93.17,-125.92,107.49,1785098635256.0698
-0.876,-1.181,-1.294,72.12,-96.65,86.06,1785098635266.961
-0.765,-1.061,-1.188,43.09,-65.49,63.6,1785098635280.222
-0.613,-1.149,-1.029,27.89,-34.7,29.76,1785098635286.15
-0.521,-1.341,-0.865,30.15,-6.1,-25.51,1785098635296.59
-0.514,-1.462,-0.687,45.14,17.3,-86.12,1785098635307.2078
-0.531,-1.453,-0.602,69.61,32.07,-128.24,1785098635320.5278
-0.506,-1.351,-0.64,96.53,43.67,-147.47,1785098635326.465
-0.499,-1.154,-0.696,115.3,52.37,-157.2,1785098635337.3242
-0.491,-0.988,-0.771,119.69,57.71,-165.78,1785098635350.515
-0.474,-0.874,-0.805,100.25,62.65,-174.66,1785098635356.4758
-0.447,-0.811,-0.778,66.23,68.18,-181.89,1785098635367.456
-0.404,-0.816,-0.718,35.4,75.41,-184.7,1785098635380.7449
-0.357,-0.835,-0.585,16.21,82.52,-179.94,1785098635386.647
-0.273,-0.901,-0.473,18.43,86.58,-172.03,1785098635397.373
-0.17,-0.98,-0.505,40.47,90.95,-169.19,1785098635410.655
-0.09,-0.916,-0.545,65.43,97.29,-168.43,1785098635416.5728
0.003,-0.762,-0.583,88.78,101.6,-162.48,1785098635427.475
0.147,-0.626,-0.709,106.02,105.38,-154.52,1785098635440.775
0.269,-0.466,-0.766,103.61,111.21,-148.32,1785098635446.739
0.361,-0.384,-0.694,84.69,116.34,-140.32,1785098635460.3
0.459,-0.412,-0.54,59.69,119.88,-131.47,1785098635466.253
0.58,-0.47,-0.344,39.83,121.8,-125.95,1785098635477.128
0.693,-0.476,-0.156,32.29,124.42,-121.52,1785098635490.649
0.811,-0.425,0.02,33.6,127.45,-111.09,1785098635496.489
0.93,-0.319,0.21,38.0,125.71,-98.09,1785098635507.437
1.034,-0.154,0.352,46.63,117.8,-84.11,1785098635520.648
1.22,-0.044,0.471,62.26,111.0,-64.39,1785098635526.598
1.517,0.011,0.457,82.16,104.28,-44.5,1785098635537.445
1.842,0.15,0.467,94.09,97.93,-22.1,1785098635550.59
1.997,0.323,0.532,98.27,83.35,8.0,1785098635556.622
2.0,0.431,0.493,102.21,65.34,33.88,1785098635567.0522
2.087,0.553,0.486,101.9,52.74,49.13,1785098635580.3071
2.218,0.745,0.494,102.42,40.53,58.44,1785098635586.459
2.282,0.865,0.305,106.23,21.24,65.71,1785098635597.059
2.283,0.945,0.011,100.44,0.4,64.06,1785098635610.283
2.199,0.964,-0.249,89.57,-7.45,49.29,1785098635616.1821
2.085,0.923,-0.431,79.2,-8.21,29.05,1785098635626.545
1.95,0.759,-0.558,72.36,-16.97,15.96,1785098635637.2139
1.858,0.462,-0.69,65.22,-30.37,11.63,1785098635650.4587
1.78,0.204,-0.773,42.79,-39.8,8.88,1785098635656.4321
1.739,0.071,-0.743,0.24,-39.98,8.06,1785098635666.626
1.699,0.034,-0.653,-53.83,-33.08,6.35,1785098635677.2217
1.624,0.034,-0.52,-112.83,-25.15,3.78,1785098635690.5542
1.55,0.047,-0.345,-166.91,-20.36,2.81,1785098635696.363
1.47,0.064,-0.167,-204.08,-19.71,5.71,1785098635706.95
1.394,0.083,-0.03,-219.76,-20.08,13.18,1785098635720.206
1.33,0.085,0.016,-219.28,-18.68,23.53,1785098635726.188
1.261,0.04,0.029,-209.85,-14.53,37.11,1785098635736.8838
1.197,-0.056,-0.024,-193.12,-11.11,52.34,1785098635750.139
1.071,-0.153,-0.091,-172.98,-10.62,67.66,1785098635756.182
0.945,-0.278,-0.171,-150.73,-11.51,86.55,1785098635766.8748
0.854,-0.372,-0.262,-130.34,-15.44,107.0,1785098635780.1118
0.798,-0.427,-0.327,-114.69,-22.58,128.67,1785098635786.124
0.795,-0.49,-0.385,-104.25,-31.98,148.5,1785098635797.1257
0.745,-0.504,-0.389,-102.02,-41.47,164.07,1785098635810.385
0.56,-0.511,-0.349,-103.61,-51.94,179.51,1785098635816.317
0.298,-0.516,-0.251,-103.92,-65.86,194.04,1785098635827.355
0.061,-0.631,-0.19,-91.98,-81.36,206.03,1785098635840.623
-0.184,-0.787,-0.187,-73.89,-97.51,209.48,1785098635846.4639
-0.391,-0.86,-0.134,-61.49,-117.71,208.59,1785098635857.385
-0.547,-0.934,-0.129,-47.43,-142.03,210.49,1785098635870.641
-0.67,-1.013,-0.18,-35.43,-163.12,213.2,1785098635876.5881
-0.813,-1.084,-0.319,-30.82,-180.79,211.71,1785098635887.7617
-0.916,-1.136,-0.624,-39.09,-188.88,202.67,1785098635900.8809
-0.969,-1.108,-0.913,-62.17,-183.75,186.47,1785098635906.893
-0.951,-1.104,-1.238,-78.92,-165.2,163.43,1785098635920.258
-0.936,-1.213,-1.562,-81.06,-125.98,122.65,1785098635926.2139
-1.015,-1.311,-1.744,-88.23,-88.02,74.37,1785098635937.065
-0.942,-1.331,-1.714,-101.9,-53.83,47.03,1785098635950.2751
-0.785,-1.283,-1.51,-103.61,-14.8,25.48,1785098635956.7292
-0.647,-1.183,-1.174,-88.66,18.74,0.06,1785098635966.812
-0.566,-1.059,-0.814,-61.22,44.71,-31.8,1785098635977.498
-0.559,-0.958,-0.574,-27.04,64.12,-67.17,1785098635990.8538
-0.569,-0.935,-0.472,7.9,68.76,-94.3,1785098635996.601
-0.555,-0.982,-0.49,43.21,62.44,-112.89,1785098636007.214
-0.573,-0.994,-0.57,74.62,60.37,-134.74,1785098636020.652
-0.684,-0.919,-0.612,94.67,63.05,-158.09,1785098636026.445
-0.815,-0.905,-0.731,108.34,67.14,-176.64,1785098636037.265
-0.841,-0.941,-0.908,107.58,76.97,-190.8,1785098636050.482
-0.756,-0.887,-0.96,88.66,89.6,-199.32,1785098636056.515
-0.61,-0.756,-0.878,65.61,100.59,-199.16,1785098636067.4
-0.54,-0.627,-0.725,51.3,106.78,-187.17,1785098636081.2302
-0.402,-0.658,-0.657,53.65,109.07,-166.36,1785098636086.825
-0.232,-0.675,-0.636,58.93,110.48,-146.76,1785098636097.654
-0.128,-0.61,-0.572,61.56,112.52,-124.94,1785098636110.899
-0.024,-0.518,-0.481,60.27,113.77,-98.27,1785098636116.786
0.064,-0.444,-0.37,58.84,113.25,-71.96,1785098636130.189
0.154,-0.385,-0.23,62.96,112.64,-47.49,1785098636136.1877
0.245,-0.402,-0.132,77.97,110.9,-24.84,1785098636146.882
0.4,-0.454,-0.069,101.32,108.22,-3.91,1785098636160.126
0.4,-0.454,-0.069,122.47,106.45,17.61,1785098636166.095
0.55,-0.414,-0.043,131.32,107.21,45.63,1785098636177.07
0.747,-0.321,-0.048,117.95,109.04,72.48,1785098636190.32
0.971,-0.239,-0.036,82.61,104.13,97.84,1785098636196.244
1.051,-0.177,0.083,46.42,97.17,116.61,1785098636207.073
1.106,-0.252,0.192,46.42,97.17,116.61,1785098636220.305
1.205,-0.349,0.299,18.8,91.13,125.83,1785098636226.2651
1.363,-0.419,0.379,2.62,82.8,130.89,1785098636236.923
1.616,-0.506,0.421,-6.13,70.62,139.38,1785098636247.587
1.831,-0.606,0.44,-12.36,55.97,151.43,1785098636260.865
1.97,-0.729,0.427,-15.99,42.33,166.88,1785098636266.795
2.078,-0.801,0.4,-20.45,28.72,175.18,1785098636277.61
2.146,-0.8,0.365,-29.33,16.36,167.21,1785098636290.595
2.209,-0.801,0.311,-42.97,9.03,142.67,1785098636296.4722
2.274,-0.857,0.242,-58.38,5.92,106.08,1785098636307.336
2.338,-0.884,0.183,-71.38,5.4,65.13,1785098636320.5728
2.334,-0.85,0.167,-76.14,4.43,25.85,1785098636326.497
2.273,-0.768,0.133,-69.0,0.21,-10.96,1785098636336.792
2.196,-0.618,0.114,-52.8,-2.29,-47.61,1785098636347.311
2.094,-0.552,0.099,-31.65,-1.8,-79.71,1785098636360.5703
1.906,-0.605,0.088,-8.76,-11.54,-94.82,1785098636366.179
1.772,-0.513,0.071,20.75,-16.69,-110.11,1785098636377.0051
1.694,-0.417,0.032,39.92,-15.75,-128.24,1785098636390.2212
1.58,-0.436,0.008,41.41,-18.22,-142.98,1785098636396.185
1.483,-0.491,-0.015,30.46,-25.54,-155.71,1785098636406.9812
1.409,-0.495,-0.044,12.21,-31.31,-166.94,1785098636420.2249
1.376,-0.508,-0.075,-10.96,-35.28,-171.73,1785098636426.151
1.349,-0.572,-0.09,-35.52,-44.74,-164.37,1785098636436.9011
1.255,-0.577,-0.084,-52.61,-54.41,-151.13,1785098636450.1199
1.208,-0.522,-0.083,-63.3,-56.89,-137.03,1785098636456.18
1.229,-0.571,-0.093,-70.68,-75.72,-102.6,1785098636466.863
1.09,-0.533,-0.085,-66.84,-100.28,-67.05,1785098636477.4001
0.994,-0.351,-0.133,-55.36,-102.69,-53.16,1785098636490.997
1.035,-0.251,-0.191,-50.02,-97.42,-40.62,1785098636496.773
0.993,-0.274,-0.173,-51.97,-98.51,-23.93,1785098636507.4548
0.84,-0.392,-0.173,-51.42,-103.82,-10.01,1785098636520.666
0.666,-0.524,-0.211,-49.62,-108.68,3.45,1785098636526.6309
0.502,-0.6,-0.267,-48.74,-112.46,19.07,1785098636537.291
0.369,-0.574,-0.332,-51.33,-114.81,37.23,1785098636550.565
0.267,-0.456,-0.348,-60.85,-117.59,58.9,1785098636556.607
0.168,-0.412,-0.339,-71.72,-128.61,86.37,1785098636567.215
0.03,-0.583,-0.348,-77.46,-153.29,117.95,1785098636580.4941
-0.166,-0.79,-0.426,-77.79,-174.54,134.62,1785098636586.446
-0.394,-0.828,-0.536,-73.21,-174.14,132.66,1785098636597.4797
-0.595,-0.812,-0.661,-65.61,-162.94,131.53,1785098636610.808
-0.735,-0.81,-0.831,-62.99,-152.32,133.7,1785098636616.655
-0.819,-0.804,-1.059,-71.6,-144.47,136.02,1785098636629.927
-0.868,-0.847,-1.27,-87.95,-131.63,136.6,1785098636636.2979
-0.899,-0.959,-1.375,-103.03,-107.15,131.35,1785098636647.25
-0.91,-1.09,-1.394,-107.18,-71.38,112.06,1785098636660.4421
-0.901,-1.169,-1.32,-99.86,-33.27,81.58,1785098636666.425
-0.829,-1.206,-1.141,-83.29,-1.86,54.99,1785098636677.203
-0.733,-1.204,-0.892,-59.42,23.65,32.5,1785098636690.29
-0.695,-1.111,-0.608,-33.54,40.31,11.2,1785098636696.1501
-0.677,-0.986,-0.433,-0.12,48.37,-10.47,1785098636706.6182
-0.64,-0.874,-0.457,36.96,55.97,-36.84,1785098636717.216
-0.605,-0.728,-0.532,63.17,64.06,-67.42,1785098636730.4639
-0.605,-0.621,-0.641,78.55,70.01,-97.81,1785098636736.4639
-0.636,-0.578,-0.768,80.84,76.72,-125.55,1785098636747.0222
-0.667,-0.557,-0.792,71.35,84.84,-146.58,1785098636760.295
-0.69,-0.581,-0.759,64.49,92.65,-160.37,1785098636766.2341
-0.661,-0.691,-0.751,67.05,100.92,-168.46,1785098636777.149
-0.606,-0.78,-0.751,72.33,108.98,-172.77,1785098636790.4373
-0.553,-0.732,-0.696,74.25,114.78,-165.78,1785098636796.313
-0.432,-0.616,-0.612,80.14,118.5,-146.61,1785098636807.324
-0.271,-0.52,-0.55,87.86,121.37,-126.13,1785098636820.574
-0.158,-0.385,-0.428,89.48,120.73,-108.98,1785098636826.545
-0.02,-0.364,-0.349,94.85,118.08,-94.79,1785098636837.5093
0.074,-0.41,-0.298,100.96,116.67,-86.21,1785098636850.7422
0.142,-0.399,-0.217,106.36,115.79,-74.1,1785098636856.75
0.262,-0.373,-0.187,116.37,114.66,-52.1,1785098636870.104
0.39,-0.339,-0.194,124.12,113.9,-25.15,1785098636876.1191
0.529,-0.26,-0.168,118.29,110.97,4.73,1785098636887.018
0.686,-0.174,-0.113,103.55,105.04,37.69,1785098636900.2122
0.862,-0.105,-0.055,89.45,96.41,71.66,1785098636906.36
1.056,-0.142,-0.022,81.06,87.13,100.8,1785098636916.97
1.185,-0.18,0.014,72.66,77.52,123.36,1785098636930.2139
1.24,-0.177,0.061,63.11,66.84,146.21,1785098636936.189
1.225,-0.186,0.077,54.66,54.23,169.87,1785098636946.946
1.184,-0.264,0.061,49.01,38.76,191.17,1785098636960.345
1.156,-0.345,0.026,46.33,24.29,206.34,1785098636966.047
1.195,-0.427,-0.021,47.58,16.02,221.96,1785098636976.733
1.192,-0.521,-0.047,53.9,13.25,237.86,1785098636989.0728
1.163,-0.649,-0.101,60.03,11.69,249.7,1785098637000.9531
1.12,-0.772,-0.156,59.57,11.6,254.04,1785098637007.1768
1.124,-0.883,-0.148,52.61,17.3,248.21,1785098637017.3691
1.081,-1.083,-0.144,39.67,22.31,240.61,1785098637030.897
1.201,-1.292,-0.103,23.9,22.19,236.03,1785098637036.822
1.182,-1.218,-0.147,8.39,24.81,199.87,1785098637047.4902
1.143,-1.374,-0.203,-26.31,28.14,177.28,1785098637060.791
1.182,-1.513,-0.134,-61.62,18.83,173.74,1785098637066.3418
1.178,-1.462,-0.112,-73.34,13.15,157.51,1785098637077.3252
1.151,-1.358,-0.18,-73.89,11.08,134.43,1785098637090.509
1.103,-1.298,-0.21,-74.16,5.22,111.48,1785098637096.118
1.071,-1.229,-0.227,-69.95,-2.01,88.26,1785098637107.2139
1.059,-1.162,-0.234,-60.18,-5.43,64.61,1785098637120.374
1.012,-1.094,-0.235,-46.48,-10.44,41.99,1785098637125.716
0.956,-1.07,-0.203,-28.63,-12.27,22.95,1785098637136.722
0.932,-1.084,-0.189,-6.9,-13.0,6.26,1785098637147.183
0.838,-1.113,-0.2,12.33,-16.36,-10.32,1785098637160.409
0.783,-1.118,-0.196,26.22,-19.23,-21.97,1785098637166.406
0.751,-1.115,-0.212,36.59,-20.29,-34.88,1785098637176.9128
0.717,-1.119,-0.224,40.07,-21.21,-50.9,1785098637187.5652
0.683,-1.126,-0.235,34.46,-21.64,-68.15,1785098637200.831
0.641,-1.135,-0.261,19.14,-20.54,-85.67,1785098637206.5261
0.568,-1.151,-0.253,-6.04,-20.33,-97.75,1785098637217.25
0.48,-1.232,-0.229,-30.3,-24.66,-94.15,1785098637230.436
0.513,-1.307,-0.189,-39.4,-28.63,-80.02,1785098637236.4539
0.524,-1.256,-0.203,-32.32,-28.93,-77.85,1785098637246.5852
0.493,-1.17,-0.292,-23.32,-25.24,-79.65,1785098637258.034
0.48,-1.081,-0.359,-23.22,-17.91,-82.64,1785098637270.55
0.451,-1.02,-0.399,-31.65,-10.59,-90.21,1785098637276.72
0.415,-0.972,-0.422,-46.78,-4.52,-98.12,1785098637286.885
0.387,-0.94,-0.415,-62.65,1.56,-103.03,1785098637300.369
0.364,-0.936,-0.398,-74.59,7.02,-106.08,1785098637306.357
0.327,-0.934,-0.382,-81.61,12.6,-107.97,1785098637316.9558
0.297,-0.943,-0.371,-84.05,17.4,-105.26,1785098637330.177
0.282,-0.953,-0.352,-79.26,20.81,-97.93,1785098637336.1357
0.259,-0.944,-0.338,-68.36,22.06,-89.63,1785098637346.724
0.249,-0.916,-0.34,-55.42,21.7,-80.48,1785098637357.368
0.251,-0.874,-0.352,-42.18,20.75,-72.36,1785098637370.645
0.241,-0.826,-0.364,-31.04,19.62,-66.96,1785098637376.5178
0.229,-0.798,-0.365,-22.58,18.46,-61.28,1785098637387.0698
0.218,-0.779,-0.37,-14.89,17.7,-55.97,1785098637400.3132
0.213,-0.748,-0.409,-6.99,16.97,-51.09,1785098637406.2632
0.219,-0.689,-0.412,-0.76,17.06,-45.38,1785098637416.599
0.262,-0.651,-0.388,6.01,16.24,-39.22,1785098637427.198
0.327,-0.629,-0.387,12.33,14.16,-34.88,1785098637440.4048
0.386,-0.607,-0.358,15.29,12.21,-30.34,1785098637446.343
0.386,-0.607,-0.358,17.24,9.58,-24.66,1785098637456.755
0.453,-0.623,-0.335,18.16,7.29,-20.97,1785098637467.321
0.533,-0.669,-0.34,15.29,4.79,-19.29,1785098637480.36
0.607,-0.683,-0.331,11.02,0.49,-17.12,1785098637486.492
0.692,-0.703,-0.32,3.88,-4.91,-16.11,1785098637496.705
0.767,-0.71,-0.343,3.88,-4.91,-16.11,1785098637507.18
0.856,-0.695,-0.376,-7.2,-8.85,-17.03,1785098637520.4312
0.977,-0.658,-0.391,-20.97,-10.13,-21.49,1785098637526.361
1.114,-0.621,-0.405,-35.74,-9.92,-28.78,1785098637536.618
1.254,-0.616,-0.428,-49.01,-10.1,-37.29,1785098637547.24
1.328,-0.617,-0.429,-61.37,-11.2,-46.69,1785098637560.5261
1.361,-0.58,-0.388,-69.67,-12.27,-54.57,1785098637566.122
1.367,-0.546,-0.347,-67.9,-14.59,-59.88,1785098637576.98
1.397,-0.531,-0.335,-57.59,-18.98,-61.22,1785098637587.767
1.436,-0.496,-0.334,-43.67,-23.77,-64.91,1785098637600.8499
1.456,-0.446,-0.35,-31.37,-27.77,-69.09,1785098637606.935
1.481,-0.378,-0.362,-25.12,-31.31,-70.28,1785098637617.292
1.493,-0.324,-0.339,-22.92,-32.69,-70.62,1785098637630.566
1.43,-0.305,-0.274,-23.65,-32.87,-68.7,1785098637636.53
1.281,-0.33,-0.219,-26.7,-37.23,-61.65,1785098637647.0288
1.089,-0.347,-0.185,-30.76,-46.08,-50.63,1785098637660.2502
0.931,-0.33,-0.173,-33.45,-56.49,-35.89,1785098637666.167
0.821,-0.278,-0.187,-34.76,-64.76,-18.52,1785098637676.721
0.72,-0.227,-0.208,-34.85,-70.96,0.31,1785098637687.266
0.622,-0.262,-0.22,-30.64,-75.17,20.23,1785098637700.4822
0.512,-0.449,-0.267,-20.02,-76.75,36.44,1785098637706.55
0.33,-0.64,-0.314,-8.39,-76.39,46.6,1785098637716.896
0.124,-0.726,-0.348,7.02,-75.69,59.45,1785098637727.4282
-0.023,-0.725,-0.409,25.64,-73.89,78.13,1785098637740.8582
-0.098,-0.671,-0.476,37.97,-70.25,96.44,1785098637746.639
-0.146,-0.682,-0.534,38.67,-64.58,108.13,1785098637757.2378
-0.231,-0.841,-0.581,28.87,-57.68,108.01,1785098637770.528
-0.377,-1.062,-0.584,11.35,-51.15,98.12,1785098637776.428
-0.531,-1.207,-0.572,-5.62,-44.71,86.83,1785098637786.951
-0.622,-1.289,-0.584,-14.92,-35.58,78.92,1785098637797.582
-0.674,-1.352,-0.612,-19.99,-25.85,68.85,1785098637810.888
-0.703,-1.389,-0.62,-22.43,-16.05,53.56,1785098637816.7678
-0.712,-1.404,-0.582,-15.9,-4.21,33.2,1785098637827.169
-0.708,-1.393,-0.527,1.95,7.26,9.34,1785098637837.7227
-0.675,-1.259,-0.482,28.84,18.71,-14.65,1785098637850.839
-0.6,-1.084,-0.499,64.61,28.69,-34.49,1785098637856.948
-0.518,-0.899,-0.566,96.26,35.95,-49.96,1785098637867.294
