ax,ay,az,gx,gy,gz,timestamp_ms
-0.327,-0.456,-0.522,-84.6,-186.22,168.71,1785098762697.413
-0.469,-0.743,-0.796,-104.19,-175.3,158.18,1785098762697.906
-0.657,-0.979,-0.933,-111.36,-161.08,139.29,1785098762698.3218
-0.757,-1.308,-1.17,-87.44,-147.53,124.36,1785098762698.7021
-0.808,-1.59,-1.432,-52.31,-128.82,107.24,1785098762699.067
-0.814,-1.623,-1.491,-21.7,-103.43,91.13,1785098762699.4473
-0.746,-1.491,-1.308,13.55,-70.65,72.05,1785098762699.803
-0.668,-1.299,-1.04,48.28,-42.39,48.86,1785098762700.15
-0.574,-1.09,-0.802,74.43,-24.75,31.77,1785098762700.502
-0.494,-0.906,-0.61,96.59,-9.83,17.76,1785098762700.85
-0.423,-0.78,-0.52,117.37,3.17,2.23,1785098762701.17
-0.32,-0.717,-0.526,133.15,11.32,-16.79,1785098762701.501
-0.207,-0.659,-0.566,138.25,16.57,-42.85,1785098762701.8088
-0.119,-0.62,-0.604,131.44,21.88,-72.27,1785098762702.115
-0.059,-0.599,-0.605,110.26,26.83,-96.19,1785098762702.419
-0.03,-0.604,-0.592,78.37,30.18,-111.88,1785098762702.719
-0.025,-0.622,-0.569,43.06,32.93,-118.29,1785098762703.0242
-0.005,-0.639,-0.492,12.45,35.71,-113.1,1785098762703.328
0.053,-0.647,-0.397,-4.91,38.03,-100.5,1785098762703.624
0.115,-0.617,-0.326,-8.3,40.28,-88.6,1785098762703.918
0.172,-0.563,-0.278,-2.47,41.32,-79.44,1785098762704.216
0.238,-0.547,-0.26,8.76,40.77,-71.6,1785098762704.5132
0.315,-0.589,-0.249,22.52,40.22,-64.46,1785098762704.807
0.378,-0.667,-0.23,38.51,38.54,-57.86,1785098762705.1047
0.429,-0.684,-0.242,54.05,35.4,-49.78,1785098762705.41
0.486,-0.635,-0.257,70.25,32.47,-35.49,1785098762705.7148
0.541,-0.539,-0.28,84.51,27.53,-17.15,1785098762706.069
0.624,-0.425,-0.344,92.1,21.91,0.55,1785098762706.3591
0.711,-0.325,-0.375,90.24,18.65,16.3,1785098762706.6838
0.761,-0.257,-0.358,80.57,15.93,29.94,1785098762706.9841
0.775,-0.275,-0.338,67.81,12.15,40.71,1785098762707.27
0.778,-0.337,-0.32,53.25,8.73,47.61,1785098762707.577
0.795,-0.408,-0.265,41.51,5.62,54.32,1785098762707.868
0.823,-0.488,-0.225,36.53,-0.4,61.86,1785098762708.1768
0.859,-0.527,-0.232,34.55,-8.64,70.31,1785098762708.495
0.877,-0.518,-0.228,31.92,-18.43,81.88,1785098762708.7988
0.871,-0.498,-0.24,27.74,-29.6,94.76,1785098762709.07
0.852,-0.52,-0.295,21.64,-39.64,105.47,1785098762709.342
0.813,-0.569,-0.362,10.9,-47.91,112.16,1785098762709.608
0.774,-0.621,-0.43,-1.89,-53.59,115.27,1785098762709.8723
0.744,-0.706,-0.501,-12.94,-57.62,118.23,1785098762710.1372
0.731,-0.832,-0.566,-21.18,-61.74,124.39,1785098762710.394
0.724,-0.921,-0.597,-26.06,-62.84,131.32,1785098762710.658
0.72,-0.95,-0.59,-22.71,-59.94,135.59,1785098762710.9229
0.722,-0.99,-0.576,-10.93,-57.07,138.49,1785098762711.185
0.729,-1.068,-0.556,4.12,-55.09,140.57,1785098762711.452
0.709,-1.115,-0.529,19.68,-50.87,136.54,1785098762711.721
0.651,-1.133,-0.506,33.57,-45.84,130.38,1785098762711.9941
0.626,-1.174,-0.488,45.99,-40.96,130.22,1785098762712.259
0.622,-1.205,-0.474,57.77,-34.18,130.34,1785098762712.532
0.634,-1.259,-0.483,69.0,-27.71,132.36,1785098762712.8079
0.663,-1.228,-0.491,77.27,-18.04,125.4,1785098762713.0728
0.634,-1.203,-0.515,78.98,-6.01,116.15,1785098762713.345
0.73,-1.231,-0.517,71.96,-2.66,119.17,1785098762713.666
0.685,-1.082,-0.508,57.47,-0.67,103.98,1785098762713.949
0.631,-0.982,-0.482,40.07,9.92,93.54,1785098762714.2651
0.64,-1.025,-0.462,20.66,18.52,90.18,1785098762714.536
0.628,-1.055,-0.422,-1.19,19.9,82.31,1785098762714.799
0.621,-1.054,-0.354,-16.42,22.16,75.11,1785098762715.0662
0.623,-1.049,-0.307,-20.05,24.14,71.14,1785098762715.331
0.617,-1.033,-0.283,-14.53,25.21,66.01,1785098762715.5972
0.603,-1.02,-0.28,-4.67,26.95,59.3,1785098762715.859
0.593,-0.999,-0.281,4.82,28.66,52.46,1785098762716.1238
0.587,-0.982,-0.286,13.92,29.48,46.02,1785098762716.3909
0.586,-0.984,-0.292,22.98,30.88,41.47,1785098762716.643
0.585,-0.999,-0.301,31.83,32.07,38.39,1785098762716.888
0.564,-0.996,-0.309,38.45,33.88,34.52,1785098762717.1309
0.549,-0.994,-0.318,40.65,35.16,30.85,1785098762717.3691
0.539,-0.983,-0.318,37.35,35.92,26.43,1785098762717.6099
0.532,-0.963,-0.314,28.93,36.53,21.18,1785098762717.854
0.528,-0.954,-0.313,17.55,37.17,14.86,1785098762718.0957
0.521,-0.943,-0.305,3.36,37.87,6.9,1785098762718.328
0.505,-0.919,-0.289,-11.51,38.42,-1.16,1785098762718.646
0.492,-0.903,-0.27,-23.96,37.81,-7.26,1785098762718.9187
0.476,-0.889,-0.255,-34.85,35.98,-11.69,1785098762719.205
0.457,-0.865,-0.236,-43.89,33.51,-14.65,1785098762719.468
0.448,-0.895,-0.232,-46.69,31.22,-15.26,1785098762719.708
0.449,-0.965,-0.228,-43.55,28.69,-15.08,1785098762719.947
0.434,-0.988,-0.229,-36.84,26.03,-18.56,1785098762720.189
0.421,-0.989,-0.249,-27.68,24.29,-22.31,1785098762720.4321
0.413,-0.997,-0.268,-19.32,22.74,-24.81,1785098762720.6719
0.401,-0.989,-0.274,-13.92,21.09,-26.95,1785098762720.9111
0.395,-0.978,-0.285,-10.35,19.32,-28.81,1785098762721.162
0.381,-0.967,-0.292,-8.91,17.49,-30.43,1785098762721.401
0.363,-0.958,-0.291,-10.1,15.44,-31.04,1785098762721.641
0.357,-0.955,-0.29,-12.02,13.25,-31.16,1785098762721.88
0.352,-0.949,-0.296,-14.65,11.08,-31.74,1785098762722.128
0.344,-0.933,-0.302,-18.13,9.09,-32.65,1785098762722.361
0.339,-0.909,-0.307,-21.73,7.29,-33.51,1785098762722.6108
0.336,-0.891,-0.31,-25.12,5.68,-34.36,1785098762722.8633
0.34,-0.892,-0.304,-27.38,4.03,-34.61,1785098762723.1118
0.33,-0.893,-0.3,-28.02,1.98,-35.83,1785098762723.3657
0.312,-0.879,-0.296,-27.89,-0.7,-36.56,1785098762723.613
0.302,-0.866,-0.286,-26.09,-3.66,-35.46,1785098762723.858
0.305,-0.871,-0.284,-21.79,-6.5,-32.93,1785098762724.1018
0.301,-0.886,-0.281,-15.17,-9.19,-30.82,1785098762724.344
0.294,-0.901,-0.275,-6.38,-12.09,-27.86,1785098762724.571
0.283,-0.889,-0.278,2.9,-15.47,-25.27,1785098762724.802
0.282,-0.875,-0.286,12.15,-18.77,-22.1,1785098762725.0317
0.287,-0.869,-0.29,19.93,-21.79,-19.44,1785098762725.26
0.282,-0.856,-0.286,24.93,-24.66,-18.04,1785098762725.489
0.287,-0.865,-0.276,29.3,-27.71,-15.96,1785098762725.7222
0.277,-0.878,-0.257,33.02,-31.37,-15.47,1785098762725.955
0.277,-0.878,-0.257,35.19,-36.23,-14.83,1785098762726.1829
0.255,-0.863,-0.222,37.35,-42.33,-12.12,1785098762726.419
0.248,-0.828,-0.162,40.74,-49.35,-9.61,1785098762726.646
0.253,-0.797,-0.133,42.33,-55.54,-8.45,1785098762726.884
0.271,-0.795,-0.144,40.47,-60.34,-9.7,1785098762727.1062
0.287,-0.832,-0.167,40.47,-60.34,-9.7,1785098762727.333
0.286,-0.898,-0.21,37.2,-64.12,-12.3,1785098762727.556
0.276,-0.951,-0.242,34.73,-66.62,-13.64,1785098762727.778
0.261,-0.949,-0.267,36.41,-68.33,-13.49,1785098762727.9949
0.265,-0.939,-0.333,43.49,-68.27,-10.47,1785098762728.218
0.286,-0.937,-0.399,50.84,-64.91,-7.57,1785098762728.44
0.298,-0.936,-0.434,55.82,-60.3,-4.94,1785098762728.679
0.305,-0.927,-0.439,60.4,-55.82,-1.77,1785098762728.904
0.305,-0.901,-0.429,65.37,-51.82,2.47,1785098762729.147
0.303,-0.862,-0.416,70.38,-47.46,7.2,1785098762729.366
0.322,-0.851,-0.405,71.99,-43.09,10.71,1785098762729.583
0.322,-0.833,-0.381,68.33,-39.22,11.75,1785098762729.804
0.318,-0.821,-0.358,61.46,-35.98,13.98,1785098762730.0251
0.325,-0.819,-0.339,52.74,-33.57,15.99,1785098762730.249
0.324,-0.821,-0.314,42.79,-32.47,16.82,1785098762730.4531
0.327,-0.835,-0.288,33.23,-32.56,17.67,1785098762730.665
0.328,-0.857,-0.27,25.21,-33.05,18.25,1785098762730.8748
0.323,-0.878,-0.267,19.1,-34.0,18.83,1785098762731.083
0.317,-0.89,-0.275,13.52,-35.16,18.92,1785098762731.2861
0.317,-0.899,-0.269,8.36,-36.1,19.41,1785098762731.492
0.325,-0.91,-0.248,5.22,-37.69,19.17,1785098762731.701
0.329,-0.923,-0.233,5.25,-39.67,18.59,1785098762731.906
0.333,-0.942,-0.23,7.69,-41.11,18.74,1785098762732.1118
0.331,-0.961,-0.235,10.83,-42.12,18.19,1785098762732.3252
0.328,-0.969,-0.243,12.45,-43.49,16.48,1785098762732.5361
0.335,-0.964,-0.24,11.6,-45.2,14.44,1785098762732.743
0.332,-0.964,-0.24,9.09,-46.82,13.12,1785098762732.9521
0.334,-0.979,-0.248,4.85,-48.13,13.21,1785098762733.16
0.332,-0.973,-0.26,-1.25,-49.35,11.35,1785098762733.367
0.335,-0.963,-0.272,-8.18,-50.14,9.16,1785098762733.5688
0.338,-0.962,-0.283,-14.47,-50.51,6.53,1785098762733.781
0.347,-0.98,-0.285,-18.95,-50.69,3.36,1785098762733.992
0.349,-1.002,-0.269,-20.72,-50.78,0.31,1785098762734.196
0.346,-1.004,-0.25,-18.8,-51.33,-2.78,1785098762734.404
0.344,-0.993,-0.235,-14.13,-52.19,-4.73,1785098762734.613
0.349,-0.99,-0.233,-8.18,-52.77,-6.04,1785098762734.8218
0.347,-0.991,-0.238,-2.14,-52.92,-7.69,1785098762735.023
0.344,-1.0,-0.247,2.84,-53.01,-9.61,1785098762735.2349
0.335,-1.006,-0.257,6.26,-53.19,-12.21,1785098762735.4482
0.327,-0.996,-0.27,7.54,-53.01,-14.77,1785098762735.6602
0.322,-0.975,-0.28,7.39,-52.43,-16.36,1785098762735.8652
0.321,-0.959,-0.287,5.68,-51.73,-17.18,1785098762736.074
0.316,-0.951,-0.294,3.05,-50.69,-18.07,1785098762736.274
0.311,-0.946,-0.297,-0.37,-49.59,-19.38,1785098762736.465
0.302,-0.94,-0.296,-4.55,-48.43,-21.0,1785098762736.661
0.3,-0.942,-0.289,-8.21,-47.3,-22.46,1785098762736.8928
0.3,-0.956,-0.282,-10.44,-46.21,-24.66,1785098762737.116
0.295,-0.966,-0.273,-11.02,-45.05,-27.04,1785098762737.3152
0.292,-0.973,-0.271,-9.52,-44.16,-28.63,1785098762737.535
0.292,-0.977,-0.273,-6.87,-43.31,-29.73,1785098762737.747
0.288,-0.97,-0.277,-4.09,-42.51,-30.37,1785098762737.946
0.283,-0.963,-0.282,-1.53,-41.57,-30.37,1785098762738.142
0.282,-0.963,-0.284,0.34,-40.53,-30.52,1785098762738.341
0.274,-0.97,-0.288,1.59,-39.46,-31.74,1785098762738.542
0.266,-0.968,-0.294,1.59,-38.09,-32.47,1785098762738.736
0.263,-0.962,-0.292,1.34,-36.41,-32.38,1785098762738.933
0.262,-0.955,-0.288,1.43,-34.97,-31.86,1785098762739.1301
0.259,-0.949,-0.285,1.22,-33.72,-31.65,1785098762739.327
0.249,-0.943,-0.288,0.46,-32.23,-31.28,1785098762739.5188
0.252,-0.938,-0.291,-0.89,-30.58,-30.12,1785098762739.711
0.251,-0.933,-0.301,-2.2,-28.84,-29.73,1785098762739.9038
9.0,-0.891,-0.563,22.4,-6.07,-1.0,1785098762740.289
0.239,-0.943,-0.296,-5.68,-23.99,-28.72,1785098762740.485
-1.047,-1.001,-0.553,19.2,-3.91,-19.96,1785098762740.927
-1.187,-1.077,-0.482,19.99,-2.99,-31.83,1785098762741.121
-1.272,-1.117,-0.398,31.89,-1.77,-42.05,1785098762741.313
-1.282,-1.154,-0.406,56.79,-0.82,-51.06,1785098762748.801
-1.28,-1.13,-0.447,81.88,-0.12,-60.61,1785098762759.327
-1.249,-1.056,-0.516,95.71,-0.95,-67.51,1785098762772.634
-1.217,-0.92,-0.627,89.6,-2.78,-74.16,1785098762778.255
-1.211,-0.789,-0.697,63.42,-6.38,-81.55,1785098762788.8389
-1.199,-0.748,-0.709,27.65,-9.37,-88.53,1785098762799.3337
-1.161,-0.798,-0.686,-4.67,-8.79,-94.79,1785098762812.608
-1.144,-0.881,-0.612,-23.53,-6.2,-99.98,1785098762818.326
-1.085,-0.948,-0.554,-23.83,-4.36,-102.02,1785098762828.83
-1.023,-0.955,-0.581,-11.66,-3.11,-102.08,1785098762839.4712
-0.934,-0.925,-0.606,0.89,-3.45,-97.05,1785098762852.721
-0.843,-0.871,-0.596,6.87,-4.15,-92.84,1785098762858.3723
-0.787,-0.842,-0.596,6.35,-4.91,-89.94,1785098762868.7073
-0.736,-0.829,-0.591,2.01,-4.55,-84.17,1785098762879.193
-0.678,-0.841,-0.562,-0.24,-3.57,-77.18,1785098762892.478
-0.621,-0.866,-0.535,1.89,-2.38,-71.08,1785098762897.993
-0.57,-0.884,-0.482,5.83,-0.64,-64.58,1785098762908.3882
-0.527,-0.907,-0.393,10.68,-0.34,-56.67,1785098762919.0688
-0.481,-0.919,-0.328,16.39,-1.92,-48.52,1785098762929.6582
-0.427,-0.895,-0.308,21.82,-4.36,-39.46,1785098762942.9387
-0.374,-0.873,-0.327,27.8,-6.99,-29.33,1785098762948.823
-0.317,-0.869,-0.387,33.02,-9.61,-20.63,1785098762959.2349
-0.252,-0.834,-0.452,34.12,-11.57,-15.23,1785098762972.388
-0.202,-0.786,-0.49,30.09,-12.76,-11.6,1785098762978.4219
-0.161,-0.774,-0.539,22.37,-12.94,-9.49,1785098762988.7231
-0.14,-0.786,-0.572,11.66,-11.08,-11.2,1785098762999.5232
-0.126,-0.8,-0.56,1.46,-7.23,-13.79,1785098763012.595
-0.103,-0.843,-0.536,-1.53,-2.35,-15.72,1785098763018.559
-0.091,-0.897,-0.531,2.59,3.78,-18.98,1785098763028.527
-0.09,-0.885,-0.532,9.4,11.54,-21.94,1785098763039.5068
-0.071,-0.86,-0.55,18.13,20.26,-22.98,1785098763052.3462
-0.047,-0.837,-0.565,22.86,29.45,-25.64,1785098763058.452
-0.03,-0.779,-0.537,20.78,38.61,-30.0,1785098763068.844
0.001,-0.758,-0.511,18.01,46.36,-34.21,1785098763079.586
0.03,-0.762,-0.478,15.14,52.92,-40.07,1785098763092.713
0.059,-0.743,-0.467,13.31,58.84,-46.91,1785098763098.675
0.11,-0.716,-0.46,15.96,65.22,-51.97,1785098763109.181
0.154,-0.657,-0.444,21.39,70.65,-57.53,1785098763122.467
0.188,-0.533,-0.402,27.13,74.56,-62.29,1785098763128.327
0.242,-0.39,-0.31,33.91,75.47,-63.08,1785098763138.7488
0.314,-0.296,-0.223,42.33,72.36,-64.64,1785098763149.503
0.37,-0.27,-0.158,49.87,65.86,-70.35,1785098763162.773
0.419,-0.299,-0.129,58.66,57.77,-78.04,1785098763168.8142
0.42,-0.382,-0.147,72.05,49.5,-84.69,1785098763179.214
0.51,-0.514,-0.19,90.55,39.52,-84.69,1785098763192.4731
0.499,-0.533,-0.281,110.87,40.31,-100.77,1785098763198.398
0.384,-0.543,-0.464,115.82,44.04,-111.7,1785098763209.3499
0.497,-0.668,-0.601,93.2,39.0,-106.02,1785098763222.574
0.447,-0.733,-0.648,51.55,36.32,-106.75,1785098763228.4648
0.503,-0.894,-0.631,10.38,39.09,-85.27,1785098763239.415
0.685,-1.119,-0.622,-12.3,40.68,-66.35,1785098763252.362
0.767,-1.231,-0.567,-13.86,53.32,-76.48,1785098763258.532
0.726,-1.267,-0.56,-3.51,65.28,-97.57,1785098763268.776
0.664,-1.326,-0.538,5.25,68.3,-106.72,1785098763279.4968
0.69,-1.353,-0.517,12.67,67.81,-106.05,1785098763292.6409
0.742,-1.267,-0.503,20.05,73.67,-114.23,1785098763298.4
0.764,-1.135,-0.535,28.08,78.19,-127.9,1785098763309.2769
0.823,-1.071,-0.568,33.81,77.49,-133.61,1785098763322.639
0.936,-1.056,-0.607,37.48,75.87,-139.41,1785098763328.579
0.999,-0.963,-0.653,36.96,76.6,-153.48,1785098763339.345
1.038,-0.851,-0.682,31.07,78.31,-166.3,1785098763352.619
1.08,-0.787,-0.71,20.78,76.6,-175.36,1785098763358.6262
1.141,-0.785,-0.751,7.72,72.12,-180.73,1785098763369.232
1.215,-0.789,-0.766,-6.78,68.54,-184.88,1785098763382.497
1.242,-0.769,-0.761,-19.5,67.11,-191.56,1785098763388.4219
1.235,-0.705,-0.732,-33.02,66.87,-197.67,1785098763399.256
1.223,-0.587,-0.671,-46.48,66.13,-201.18,1785098763412.3782
1.236,-0.472,-0.6,-55.33,63.84,-201.73,1785098763418.405
1.291,-0.46,-0.544,-59.08,59.91,-196.81,1785098763428.9038
1.389,-0.5,-0.547,-62.35,57.13,-193.61,1785098763442.292
1.498,-0.535,-0.633,-71.66,59.82,-194.86,1785098763448.242
1.54,-0.535,-0.578,-95.98,64.39,-189.18,1785098763459.0552
1.467,-0.532,-0.384,-125.86,57.65,-168.49,1785098763472.3452
1.317,-0.548,-0.195,-142.43,44.4,-143.25,1785098763478.025
1.165,-0.54,-0.039,-139.96,32.41,-122.59,1785098763489.102
1.073,-0.523,0.056,-121.74,18.59,-101.93,1785098763502.541
1.045,-0.561,0.033,-91.71,3.72,-79.23,1785098763508.425
0.976,-0.594,0.008,-62.9,-9.89,-55.82,1785098763519.137
0.826,-0.619,-0.012,-40.59,-23.77,-27.41,1785098763529.5942
0.639,-0.595,-0.109,-27.47,-37.9,5.46,1785098763542.842
0.451,-0.48,-0.185,-28.11,-48.86,40.68,1785098763548.758
0.269,-0.376,-0.198,-39.8,-55.7,76.57,1785098763559.509
0.103,-0.324,-0.219,-60.3,-63.84,110.11,1785098763572.541
-0.073,-0.328,-0.206,-82.8,-74.65,138.13,1785098763578.5752
-0.268,-0.368,-0.178,-101.17,-86.67,156.29,1785098763589.309
-0.464,-0.392,-0.125,-114.17,-99.31,168.0,1785098763602.535
-0.618,-0.488,-0.041,-112.31,-110.9,174.9,1785098763608.578
-0.747,-0.665,-0.002,-94.09,-125.4,171.45,1785098763619.626
-0.898,-0.75,-0.105,-64.82,-138.19,162.02,1785098763632.8472
-1.015,-0.731,-0.299,-26.58,-139.68,164.92,1785098763638.9912
-1.064,-0.773,-0.571,17.7,-128.88,175.02,1785098763652.243
-1.108,-0.84,-0.881,44.83,-110.75,174.41,1785098763658.3481
-1.108,-0.84,-0.881,31.77,-87.34,164.65,1785098763669.038
-1.077,-0.78,-1.13,-6.81,-55.54,146.52,1785098763682.2778
-0.901,-0.783,-1.235,-54.78,-20.11,111.45,1785098763688.3662
-0.743,-0.878,-1.172,-100.07,13.09,69.89,1785098763698.8643
-0.619,-0.962,-0.914,-125.4,35.34,29.27,1785098763709.7002
-0.509,-1.03,-0.566,-125.4,35.34,29.27,1785098763723.068
-0.442,-1.003,-0.227,-128.61,44.77,-10.53,1785098763728.9521
-0.405,-0.969,0.003,-100.74,45.5,-48.43,1785098763739.711
-0.402,-0.986,0.023,-42.94,41.63,-88.14,1785098763752.9558
-0.487,-0.959,-0.078,23.53,37.51,-128.39,1785098763759.207
-0.603,-0.954,-0.25,83.71,33.51,-163.95,1785098763769.628
-0.731,-0.952,-0.401,119.85,31.5,-197.91,1785098763782.8547
-0.91,-0.93,-0.502,126.83,28.11,-228.03,1785098763788.836
-0.997,-0.967,-0.592,113.19,21.85,-244.24,1785098763802.2512
-0.944,-0.985,-0.647,88.41,21.0,-252.69,1785098763808.196
-0.855,-0.903,-0.63,64.85,31.53,-255.84,1785098763819.0908
-0.775,-0.816,-0.55,56.09,46.85,-248.97,1785098763832.2969
-0.627,-0.715,-0.486,63.81,58.35,-237.53,1785098763838.3413
-0.375,-0.613,-0.466,86.7,68.33,-224.71,1785098763849.005
-0.08,-0.498,-0.461,114.11,79.5,-209.42,1785098763862.344
0.244,-0.418,-0.462,133.88,90.7,-186.9,1785098763868.296
0.507,-0.381,-0.443,139.99,102.42,-164.07,1785098763879.5789
0.666,-0.334,-0.37,131.47,111.73,-143.93,1785098763892.6458
0.774,-0.288,-0.272,114.93,113.47,-123.45,1785098763898.5322
0.881,-0.23,-0.194,99.55,111.21,-102.08,1785098763909.554
1.056,-0.175,-0.181,93.45,109.68,-77.76,1785098763923.014
1.301,-0.107,-0.196,98.3,111.91,-50.78,1785098763928.9119
1.545,0.016,-0.172,106.97,116.09,-23.32,1785098763942.2468
1.767,0.16,-0.09,113.86,117.92,3.17,1785098763948.168
1.947,0.223,-0.015,117.01,113.68,23.1,1785098763959.5388
2.072,0.217,0.033,112.49,108.71,31.16,1785098763972.4412
2.153,0.184,0.034,101.35,106.27,30.3,1785098763978.4429
2.271,0.184,-0.003,85.42,105.9,28.38,1785098763989.3171
2.427,0.234,-0.063,64.0,101.44,28.23,1785098764002.558
2.544,0.29,-0.128,37.97,90.58,28.63,1785098764008.516
2.572,0.335,-0.165,12.39,74.5,27.86,1785098764019.0288
2.522,0.348,-0.199,-7.26,53.59,24.05,1785098764029.585
2.412,0.38,-0.252,-24.84,30.85,14.16,1785098764042.8591
2.299,0.416,-0.275,-43.79,9.95,-0.18,1785098764048.718
2.192,0.4,-0.286,-62.56,-6.47,-17.21,1785098764059.02
2.08,0.347,-0.29,-81.73,-17.55,-34.27,1785098764069.7
1.967,0.294,-0.268,-98.91,-25.33,-47.15,1785098764082.893
1.852,0.237,-0.217,-108.37,-30.79,-53.71,1785098764088.887
1.757,0.162,-0.165,-111.76,-34.94,-54.02,1785098764099.5488
1.72,0.12,-0.139,-115.27,-40.41,-51.36,1785098764112.812
1.716,0.107,-0.137,-120.52,-45.87,-46.69,1785098764119.134
1.732,0.078,-0.147,-127.72,-48.68,-35.8,1785098764129.5527
1.706,0.022,-0.145,-135.78,-51.21,-18.8,1785098764142.8289
1.617,-0.018,-0.119,-140.42,-54.51,0.52,1785098764148.705
1.494,-0.088,-0.092,-136.66,-58.78,21.88,1785098764159.564
1.34,-0.177,-0.065,-125.25,-64.52,43.09,1785098764172.691
1.179,-0.261,-0.046,-105.26,-71.05,63.02,1785098764178.607
1.041,-0.307,-0.064,-77.18,-76.33,82.34,1785098764189.3452
0.929,-0.312,-0.074,-47.58,-79.84,103.98,1785098764202.556
0.764,-0.277,-0.06,-27.71,-86.28,127.63,1785098764208.5
0.537,-0.212,-0.044,-23.13,-97.75,152.38,1785098764219.141
0.287,-0.169,-0.026,-29.69,-114.17,178.41,1785098764232.496
0.026,-0.222,-0.008,-39.31,-134.34,200.81,1785098764238.5303
-0.253,-0.392,0.026,-43.89,-155.31,213.63,1785098764249.475
-0.541,-0.729,0.034,-28.53,-176.95,212.53,1785098764262.7861
-0.864,-1.227,-0.128,1.28,-199.8,200.78,1785098764268.674
-1.225,-1.452,-0.433,9.16,-211.22,196.57,1785098764279.692
-1.432,-1.312,-0.733,-12.33,-201.15,213.9,1785098764292.758
-1.465,-1.146,-1.153,-51.21,-178.32,230.93,1785098764298.7268
-1.441,-1.07,-1.592,-112.06,-143.96,224.16,1785098764312.222
-1.299,-1.1,-1.753,-183.9,-98.18,190.89,1785098764318.136
-1.055,-1.216,-1.572,-239.39,-50.29,139.44,1785098764329.248
-0.86,-1.291,-1.215,-259.99,-9.22,90.21,1785098764342.4622
-0.725,-1.226,-0.709,-248.45,21.67,57.01,1785098764348.4512
-0.589,-1.081,-0.232,-205.02,39.12,33.57,1785098764359.4082
-0.443,-1.055,0.005,-122.75,48.98,5.25,1785098764369.75
-0.376,-1.125,0.061,-17.33,50.72,-37.51,1785098764382.9373
-0.428,-1.084,-0.06,87.62,43.89,-89.45,1785098764388.771
-0.589,-0.928,-0.32,172.34,38.15,-134.13,1785098764399.7441
-0.782,-0.758,-0.618,213.26,32.81,-165.78,1785098764412.889
-0.925,-0.564,-0.848,203.22,27.95,-190.1,1785098764418.903
-1.021,-0.409,-0.921,158.6,28.2,-209.72,1785098764432.285
-0.925,-0.422,-1.002,100.71,34.79,-221.78,1785098764438.3591
-0.671,-0.517,-0.962,41.9,53.22,-237.22,1785098764449.2158
-0.559,-0.607,-0.855,0.21,70.74,-252.45,1785098764462.519
-0.502,-0.708,-0.768,-19.56,79.26,-253.98,1785098764468.4001
-0.425,-0.712,-0.655,-25.73,80.87,-242.29,1785098764478.92
-0.274,-0.645,-0.568,-17.79,79.41,-220.28,1785098764492.3992
-0.082,-0.596,-0.484,1.16,78.04,-196.11,1785098764498.396
0.104,-0.535,-0.394,23.04,77.61,-173.8,1785098764508.9468
0.286,-0.414,-0.303,42.15,75.38,-148.35,1785098764519.767
0.537,-0.303,-0.296,61.56,71.2,-118.56,1785098764532.917
0.856,-0.217,-0.31,79.84,68.76,-90.46,1785098764538.952
1.182,-0.114,-0.307,93.17,68.54,-60.85,1785098764549.48
1.511,-0.028,-0.305,102.24,70.28,-27.28,1785098764562.767
1.768,0.029,-0.289,104.5,69.43,7.35,1785098764568.848
1.912,0.052,-0.24,101.87,61.92,38.88,1785098764579.386
1.965,0.048,-0.227,101.84,53.65,62.69,1785098764592.623
2.003,0.042,-0.237,102.51,51.33,77.24,1785098764598.591
2.1,0.038,-0.278,98.79,51.48,81.39,1785098764609.262
2.269,0.087,-0.336,84.17,50.69,75.9,1785098764622.584
2.439,0.203,-0.382,57.86,48.95,66.9,1785098764628.407
2.58,0.307,-0.434,27.19,46.54,56.37,1785098764639.261
2.619,0.405,-0.475,-4.64,43.03,38.73,1785098764649.47
2.553,0.547,-0.504,-35.71,42.91,6.35,1785098764662.7542
2.442,0.651,-0.491,-67.75,47.64,-38.79,1785098764668.717
2.359,0.32,-0.482,-97.99,27.41,-38.39,1785098764679.4119
2.131,-0.014,-0.394,-101.14,-0.58,-3.17,1785098764689.6902
1.936,0.156,-0.348,-81.21,-2.01,-4.43,1785098764702.927
1.926,0.398,-0.36,-67.57,3.42,-13.58,1785098764708.844
1.898,0.411,-0.322,-74.01,5.89,-18.13,1785098764719.431
1.737,0.282,-0.241,-94.49,3.91,-13.37,1785098764729.563
1.542,0.189,-0.138,-108.74,3.33,-1.1,1785098764742.72
1.44,0.161,-0.079,-112.58,2.17,12.76,1785098764748.5151
1.339,0.151,-0.047,-113.35,-3.6,29.02,1785098764759.422
1.23,0.105,-0.047,-113.93,-13.79,48.74,1785098764772.516
1.168,0.038,-0.056,-115.39,-25.7,70.68,1785098764778.333
1.047,-0.014,-0.048,-113.83,-38.82,92.9,1785098764789.223
0.848,-0.067,-0.045,-105.14,-52.83,115.54,1785098764802.4421
0.668,-0.174,-0.041,-85.76,-66.5,136.54,1785098764808.392
0.451,-0.346,-0.05,-54.02,-79.99,149.88,1785098764819.256
0.18,-0.462,-0.093,-19.17,-96.53,157.75,1785098764832.484
-0.025,-0.452,-0.12,8.06,-115.3,170.23,1785098764838.5742
-0.141,-0.49,-0.172,30.24,-134.74,187.11,1785098764849.2869
-0.297,-0.67,-0.215,49.53,-149.36,191.69,1785098764862.5522
-0.534,-0.964,-0.308,67.08,-159.15,178.9,1785098764868.609
-0.761,-1.205,-0.49,76.78,-162.91,161.47,1785098764879.833
-0.869,-1.413,-0.685,81.42,-158.7,154.64,1785098764892.77
-0.863,-1.598,-0.923,84.51,-150.85,152.87,1785098764898.706
-0.834,-1.759,-1.248,83.47,-130.31,138.58,1785098764909.7568
-0.909,-1.847,-1.487,68.85,-96.32,105.32,1785098764923.011
-0.993,-1.808,-1.599,36.65,-59.27,65.61,1785098764928.9011
-0.944,-1.718,-1.529,-6.13,-17.67,32.29,1785098764939.455
-0.82,-1.577,-1.258,-41.87,21.55,1.89,1785098764952.6838
-0.82,-1.577,-1.258,-54.14,44.92,-26.76,1785098764958.613
-0.753,-1.35,-0.899,-37.51,51.61,-49.84,1785098764969.0508
-0.709,-1.112,-0.655,-1.16,53.9,-72.08,1785098764979.595
-0.67,-0.918,-0.566,42.36,60.18,-97.81,1785098764992.8289
-0.622,-0.797,-0.582,77.58,68.61,-128.51,1785098764998.964
-0.604,-0.749,-0.668,77.58,68.61,-128.51,1785098765009.4668
-0.627,-0.678,-0.734,90.21,74.62,-155.95,1785098765022.8103
-0.622,-0.63,-0.745,86.98,77.7,-168.8,1785098765028.6719
-0.568,-0.615,-0.727,79.07,79.29,-169.41,1785098765039.6118
-0.507,-0.55,-0.681,71.69,81.42,-163.3,1785098765052.707
-0.421,-0.427,-0.59,70.35,85.45,-152.65,1785098765058.665
-0.323,-0.295,-0.484,74.59,88.53,-139.35,1785098765069.45
-0.218,-0.214,-0.386,79.29,87.19,-123.87,1785098765082.701
-0.12,-0.173,-0.259,83.47,81.61,-107.52,1785098765088.694
-0.028,-0.195,-0.094,94.18,74.95,-92.72,1785098765099.3127
0.032,-0.292,0.034,114.6,69.19,-82.8,1785098765112.5288
0.057,-0.358,0.09,136.17,64.24,-72.54,1785098765118.5632
0.092,-0.365,0.141,156.01,59.66,-53.56,1785098765129.259
0.166,-0.373,0.175,177.8,52.89,-25.76,1785098765142.325
0.296,-0.385,0.125,196.17,46.17,4.43,1785098765148.447
0.482,-0.381,0.04,202.7,43.98,34.03,1785098765159.456
0.691,-0.397,-0.038,195.14,45.69,60.18,1785098765174.467
0.884,-0.444,-0.091,173.71,48.43,84.54,1785098765177.934
1.085,-0.558,-0.118,146.64,49.2,112.34,1785098765189.176
1.257,-0.722,-0.109,123.84,47.61,138.34,1785098765202.2969
1.393,-0.899,-0.068,109.32,44.74,157.84,1785098765208.2078
1.484,-0.973,-0.03,97.14,41.2,167.36,1785098765219.3489
1.613,-1.003,-0.019,82.74,39.12,169.99,1785098765232.602
1.812,-1.056,-0.073,59.33,37.66,163.61,1785098765238.899
2.049,-1.038,-0.143,18.52,36.1,148.17,1785098765249.296
2.278,-0.996,-0.199,-27.34,33.88,125.83,1785098765262.566
2.418,-0.995,-0.211,-65.58,31.5,95.89,1785098765268.461
2.452,-1.083,-0.19,-87.28,28.66,62.9,1785098765279.444
2.434,-1.206,-0.166,-87.71,24.17,32.35,1785098765289.7122
2.379,-1.256,-0.169,-69.19,20.6,2.08,1785098765302.9858
2.358,-1.264,-0.192,-42.94,16.51,-21.27,1785098765308.871
2.309,-1.124,-0.236,-20.72,8.64,-47.94,1785098765319.5032
2.121,-0.871,-0.242,-16.85,6.5,-88.35,1785098765332.464
2.046,-0.726,-0.236,-32.44,4.06,-122.01,1785098765338.5
1.874,-0.605,-0.197,-53.62,0.95,-154.94,1785098765348.8418
1.662,-0.558,-0.154,-72.05,2.87,-178.14,1785098765359.657
1.546,-0.611,-0.145,-84.99,1.92,-185.92,1785098765372.733
1.506,-0.611,-0.109,-94.24,-4.21,-189.0,1785098765378.669
1.438,-0.497,-0.086,-98.88,-12.73,-193.91,1785098765389.3352
1.416,-0.406,-0.111,-101.14,-25.12,-188.27,1785098765402.559
1.415,-0.335,-0.141,-100.77,-38.48,-178.96,1785098765408.522
1.384,-0.249,-0.154,-99.73,-47.27,-174.35,1785098765419.472
1.385,-0.179,-0.176,-102.39,-52.89,-168.83,1785098765432.721
1.409,-0.087,-0.298,-110.93,-56.37,-159.12,1785098765438.85
1.405,-0.009,-0.43,-123.05,-51.09,-141.24,1785098765449.6682
1.347,-0.011,-0.459,-134.59,-41.6,-116.25,1785098765462.965
1.229,-0.123,-0.308,-145.45,-39.06,-87.8,1785098765468.863
1.085,-0.211,-0.117,-155.58,-49.68,-58.63,1785098765479.486
0.955,-0.283,-0.056,-155.74,-62.29,-21.7,1785098765492.856
0.798,-0.356,-0.0,-141.64,-71.81,19.56,1785098765500.612
0.612,-0.46,0.015,-115.6,-84.72,56.03,1785098765509.597
0.409,-0.574,-0.01,-86.49,-97.26,84.38,1785098765522.998
0.209,-0.684,-0.086,-59.08,-106.27,108.46,1785098765528.918
0.061,-0.682,-0.189,-40.04,-112.13,132.15,1785098765539.855
-0.056,-0.546,-0.277,-30.3,-118.53,159.79,1785098765552.996
-0.156,-0.373,-0.356,-28.53,-122.9,188.24,1785098765559.0642
-0.27,-0.323,-0.424,-34.88,-125.64,207.92,1785098765572.4731
-0.481,-0.451,-0.484,-51.03,-130.5,213.39,1785098765578.488
-0.755,-0.729,-0.481,-63.51,-132.36,207.89,1785098765589.4429
-1.012,-1.155,-0.505,-48.55,-127.78,194.13,1785098765602.698
-1.261,-1.443,-0.686,-16.85,-116.21,182.41,1785098765608.667
-1.374,-1.336,-0.829,8.64,-94.55,191.41,1785098765619.4539
-1.201,-1.032,-0.958,22.46,-68.64,208.96,1785098765632.658
-0.87,-0.803,-1.098,9.89,-41.02,204.38,1785098765638.6921
-0.621,-0.64,-1.059,-35.19,-13.7,173.28,1785098765649.343
-0.483,-0.586,-0.877,-86.49,11.54,128.88,1785098765662.555
-0.399,-0.705,-0.633,-116.86,37.87,74.34,1785098765668.585
-0.348,-0.902,-0.402,-118.5,55.91,13.52,1785098765679.435
-0.301,-1.103,-0.222,-88.26,63.81,-44.56,1785098765692.516
-0.301,-1.247,-0.186,-30.46,63.69,-93.72,1785098765698.434
-0.365,-1.236,-0.272,38.85,58.93,-127.08,1785098765709.097
-0.473,-1.124,-0.44,104.1,52.61,-147.53,1785098765722.419
-0.627,-0.944,-0.641,143.38,46.05,-164.65,1785098765728.2988
-0.736,-0.797,-0.762,152.71,42.09,-180.21,1785098765739.395
-0.785,-0.78,-0.822,143.89,41.81,-200.2,1785098765752.552
-0.773,-0.818,-0.877,121.8,47.3,-226.36,1785098765758.6438
-0.708,-0.862,-0.909,91.77,60.06,-248.97,1785098765769.427
-0.621,-0.843,-0.906,55.09,76.2,-258.89,1785098765782.6948
-0.48,-0.752,-0.867,16.21,95.83,-252.66,1785098765788.686
-0.27,-0.737,-0.757,-11.14,118.2,-237.34,1785098765799.608
-0.079,-0.788,-0.643,-25.48,136.88,-227.67,1785098765812.79
0.052,-0.769,-0.539,-34.88,150.64,-222.27,1785098765818.729
0.212,-0.675,-0.439,-33.69,161.69,-209.48,1785098765829.761
0.452,-0.553,-0.385,-16.08,172.15,-188.79,1785098765843.019
0.696,-0.374,-0.338,5.92,179.51,-162.94,1785098765848.939
0.955,-0.185,-0.238,24.66,181.52,-134.04,1785098765862.3093
1.24,-0.126,0.001,45.66,176.76,-112.19,1785098765868.326
1.403,-0.221,0.174,70.83,163.61,-105.93,1785098765879.5112
1.333,-0.187,0.18,90.15,154.3,-104.46,1785098765892.565
1.292,-0.033,0.239,107.39,149.39,-84.48,1785098765898.472
1.475,0.101,0.28,114.93,137.61,-59.36,1785098765909.512
1.784,0.219,0.311,95.1,127.11,-51.33,1785098765922.825
1.879,0.352,0.391,47.4,120.43,-56.7,1785098765928.6667
1.918,0.456,0.435,-8.51,112.06,-60.61,1785098765939.3953
2.026,0.58,0.411,-54.26,99.03,-61.46,1785098765952.623
2.06,0.808,0.357,-80.66,81.85,-59.57,1785098765958.588
2.102,1.12,0.303,-82.25,70.5,-53.87,1785098765969.0671
2.14,1.478,0.287,-56.06,62.04,-42.73,1785098765979.74
2.142,1.798,0.277,-0.49,49.81,-29.48,1785098765992.817
2.11,1.925,0.248,71.23,33.88,-21.64,1785098765999.061
2.018,1.666,0.202,129.98,21.27,-24.6,1785098766009.4368
1.9,1.108,0.168,145.12,17.49,-37.93,1785098766022.797
1.776,0.637,0.177,109.93,13.58,-51.33,1785098766028.573
1.679,0.385,0.195,51.0,1.89,-52.74,1785098766039.468
1.587,0.318,0.193,-8.82,-14.68,-42.12,1785098766049.7239
1.465,0.363,0.177,-62.53,-29.08,-26.7,1785098766063.076
1.478,0.388,0.205,-109.47,-39.61,-7.32,1785098766069.729
1.502,0.359,0.236,-139.32,-51.85,13.0,1785098766079.6921
1.459,0.354,0.262,-152.38,-65.86,23.04,1785098766092.8518
1.349,0.349,0.271,-156.07,-77.73,30.61,1785098766098.736
1.309,0.299,0.286,-154.76,-81.7,41.32,1785098766109.577
1.247,0.26,0.281,-147.53,-84.87,53.87,1785098766122.915
1.156,0.25,0.249,-134.28,-91.53,68.27,1785098766128.751
1.055,0.241,0.212,-117.5,-99.03,84.17,1785098766139.5579
0.957,0.23,0.183,-99.73,-105.44,100.19,1785098766152.8042
0.852,0.214,0.162,-82.19,-114.54,115.24,1785098766158.913
0.761,0.19,0.143,-63.14,-127.78,131.44,1785098766169.7722
0.635,0.153,0.108,-42.18,-144.75,146.82,1785098766183.0
0.455,0.095,0.065,-21.49,-161.63,160.95,1785098766188.968
0.273,0.018,0.004,-4.0,-174.47,178.69,1785098766202.372
0.112,-0.059,-0.06,7.78,-182.9,199.44,1785098766208.4292
-0.055,-0.134,-0.093,13.95,-190.28,219.7,1785098766219.2068
-0.237,-0.243,-0.123,17.24,-200.87,237.46,1785098766232.4438
-0.428,-0.426,-0.179,19.93,-214.36,249.58,1785098766238.456
-0.428,-0.426,-0.179,22.25,-227.85,250.59,1785098766249.423
-0.588,-0.743,-0.342,12.21,-236.06,238.04,1785098766262.6692
-0.729,-1.034,-0.718,-15.23,-229.01,229.71,1785098766268.599
-0.925,-1.221,-1.148,-52.8,-204.93,228.68,1785098766279.6821
-1.093,-1.478,-1.509,-52.8,-204.93,228.68,1785098766292.8938
-1.21,-1.626,-1.761,-92.75,-163.03,210.61,1785098766298.841
-1.208,-1.532,-1.829,-124.97,-112.92,185.34,1785098766312.311
-0.941,-1.409,-1.645,-130.99,-65.31,164.19,1785098766318.254
-0.632,-1.279,-1.316,-116.43,-27.53,130.01,1785098766329.377
-0.446,-1.155,-0.967,-88.29,5.28,87.8,1785098766342.598
-0.394,-1.173,-0.641,-36.44,33.6,43.03,1785098766348.575
-0.395,-1.263,-0.453,33.39,48.92,-7.54,1785098766359.0232
-0.393,-1.282,-0.457,107.43,55.79,-60.43,1785098766369.801
-0.423,-1.23,-0.589,173.19,59.97,-106.78,1785098766382.901
-0.501,-1.149,-0.728,217.38,63.02,-143.22,1785098766388.8772
-0.634,-1.091,-0.756,239.33,61.86,-170.17,1785098766402.33
-0.755,-1.142,-0.849,256.26,57.71,-185.83,1785098766408.344
-0.78,-1.235,-1.027,274.91,64.79,-191.38,1785098766419.299
-0.706,-1.262,-1.332,289.04,84.32,-187.2,1785098766432.58
-0.472,-1.17,-1.604,271.1,113.1,-173.53,1785098766438.545
-0.169,-0.84,-1.351,211.1,142.67,-157.9,1785098766449.649
-0.002,-0.475,-0.853,151.55,163.46,-141.45,1785098766462.927
0.148,-0.34,-0.428,104.74,174.9,-129.92,1785098766468.9658
0.204,-0.272,-0.007,64.52,174.32,-134.13,1785098766482.519
0.206,-0.363,0.262,63.81,165.38,-140.75,1785098766488.312
0.325,-0.615,0.229,104.89,152.62,-145.42,1785098766499.588
0.486,-0.523,0.218,150.12,140.23,-146.4,1785098766512.811
0.783,-0.258,0.209,188.12,122.17,-119.39,1785098766519.0852
1.0,-0.15,0.21,211.43,107.7,-73.43,1785098766532.429
1.182,-0.062,0.231,221.14,95.1,-36.26,1785098766538.522
1.416,0.081,0.314,226.26,83.29,-15.5,1785098766549.1892
1.693,0.118,0.329,226.48,73.76,-7.57,1785098766562.472
1.854,0.093,0.311,208.87,67.32,-6.93,1785098766568.418
1.973,0.054,0.283,179.6,62.93,-8.42,1785098766578.91
2.101,0.02,0.276,148.72,59.05,-11.69,1785098766589.636
2.262,0.092,0.249,116.12,52.77,-16.94,1785098766602.918
2.347,0.086,0.205,84.51,42.63,-7.84,1785098766608.793
2.399,0.093,0.169,49.75,26.46,-1.53,1785098766619.278
2.408,0.102,0.149,16.57,8.64,-0.06,1785098766629.8472
2.389,0.091,0.133,-15.99,-7.87,-2.17,1785098766642.951
2.327,0.099,0.119,-49.75,-21.91,-10.65,1785098766648.8691
2.216,0.129,0.111,-82.19,-31.19,-25.15,1785098766659.2642
2.077,0.155,0.112,-110.14,-34.27,-42.79,1785098766672.556
1.931,0.169,0.098,-131.11,-32.99,-59.14,1785098766679.001
1.779,0.181,0.099,-145.15,-28.96,-69.4,1785098766689.2678
1.663,0.189,0.115,-150.73,-25.03,-71.11,1785098766702.461
1.555,0.204,0.136,-148.53,-22.89,-66.29,1785098766708.43
1.491,0.193,0.152,-140.45,-22.22,-55.76,1785098766719.428
1.468,0.179,0.167,-130.53,-24.05,-41.44,1785098766732.418
1.426,0.158,0.185,-121.68,-27.07,-24.87,1785098766738.448
1.368,0.126,0.207,-113.19,-29.66,-7.17,1785098766749.048
1.326,0.099,0.216,-105.99,-32.75,9.46,1785098766759.686
1.254,0.083,0.23,-103.52,-35.65,24.41,1785098766772.9512
1.163,0.057,0.249,-102.15,-38.51,37.81,1785098766778.871
1.087,-0.01,0.268,-95.98,-42.24,50.84,1785098766789.566
1.048,-0.111,0.263,-84.66,-44.83,63.97,1785098766802.824
1.006,-0.181,0.24,-75.29,-46.66,77.09,1785098766808.7612
0.92,-0.236,0.23,-70.96,-50.02,93.23,1785098766819.288
0.82,-0.277,0.205,-73.12,-57.59,110.39,1785098766832.547
0.732,-0.289,0.167,-83.71,-69.98,127.84,1785098766838.552
0.602,-0.307,0.199,-98.82,-85.15,146.67,1785098766849.23
0.452,-0.389,0.24,-107.79,-101.87,165.65,1785098766862.523
0.274,-0.551,0.295,-108.74,-117.77,180.06,1785098766868.511
0.058,-0.703,0.334,-104.28,-138.25,187.9,1785098766879.7961
-0.111,-0.829,0.325,-91.83,-160.68,190.95,1785098766892.995
-0.223,-0.957,0.212,-73.76,-182.41,191.47,1785098766898.958
-0.335,-1.042,-0.103,-67.23,-197.18,185.98,1785098766912.3972
-0.502,-1.007,-0.444,-89.36,-199.26,176.46,1785098766918.449
-0.626,-0.895,-0.763,-127.23,-191.5,169.87,1785098766929.481
-0.671,-0.836,-1.123,-167.36,-175.73,159.43,1785098766942.74
-0.71,-0.811,-1.456,-210.67,-152.32,139.65,1785098766948.7358
-0.743,-0.815,-1.666,-242.62,-120.94,113.44,1785098766962.309
-0.692,-0.884,-1.639,-246.77,-82.43,86.12,1785098766968.249
-0.568,-0.982,-1.416,-219.09,-46.24,58.66,1785098766979.214
-0.427,-0.984,-1.076,-167.21,-15.26,34.67,1785098766992.379
-0.306,-0.956,-0.699,-92.65,10.13,14.44,1785098766998.04
-0.239,-0.966,-0.397,-5.4,24.23,-9.8,1785098767008.78
-0.226,-0.972,-0.276,74.8,26.73,-42.09,1785098767019.43
-0.268,-0.913,-0.284,132.76,23.93,-75.35,1785098767032.6719
-0.317,-0.832,-0.362,166.88,20.08,-100.74,1785098767039.0342
-0.353,-0.779,-0.507,178.69,14.89,-118.17,1785098767049.601
-0.381,-0.689,-0.624,167.27,11.41,-130.16,1785098767062.8328
-0.377,-0.625,-0.67,143.5,12.36,-137.67,1785098767068.814
-0.367,-0.627,-0.674,113.68,17.67,-146.82,1785098767079.814
-0.37,-0.673,-0.643,83.5,24.32,-157.81,1785098767093.048
-0.355,-0.756,-0.604,62.04,29.6,-164.98,1785098767098.9802
-0.325,-0.817,-0.544,52.95,35.49,-166.72,1785098767109.762
-0.296,-0.859,-0.475,59.69,42.24,-165.2,1785098767123.0562
-0.273,-0.877,-0.437,77.79,48.46,-162.08,1785098767128.9758
-0.232,-0.783,-0.441,96.01,53.19,-154.09,1785098767139.801
-0.092,-0.642,-0.471,113.99,59.88,-136.2,1785098767153.0151
0.112,-0.539,-0.479,130.8,70.16,-113.1,1785098767159.366
0.332,-0.459,-0.476,140.2,84.2,-91.07,1785098767172.456
0.498,-0.385,-0.422,136.69,101.05,-70.28,1785098767178.5027
0.588,-0.277,-0.252,118.26,113.68,-46.97,1785098767189.2722
0.632,-0.239,0.036,97.63,117.98,-21.33,1785098767202.498
0.674,-0.373,0.25,86.21,110.97,-2.26,1785098767208.43
0.723,-0.573,0.343,83.29,98.06,5.65,1785098767219.015
0.773,-0.687,0.342,84.51,80.14,8.45,1785098767229.535
0.873,-0.6,0.274,85.54,56.31,17.61,1785098767242.7927
1.057,-0.404,0.196,85.57,31.19,37.75,1785098767248.72
1.277,-0.229,0.108,81.42,4.43,60.21,1785098767259.1602
1.438,-0.106,-0.023,68.06,-25.03,77.88,1785098767269.8281
1.451,0.028,-0.169,47.4,-54.14,89.08,1785098767283.03
1.377,0.077,-0.281,34.55,-78.71,96.35,1785098767288.9521
1.3,0.014,-0.381,34.67,-100.28,97.69,1785098767299.589
1.264,-0.069,-0.496,39.16,-117.37,95.34,1785098767312.838
1.214,-0.176,-0.574,46.72,-125.55,98.15,1785098767319.0488
1.083,-0.385,-0.623,57.71,-129.18,111.67,1785098767329.6353
0.946,-0.634,-0.627,69.52,-127.6,131.32,1785098767342.916
0.853,-0.896,-0.604,82.55,-120.06,149.14,1785098767348.8682
0.803,-1.108,-0.6,88.29,-107.03,160.47,1785098767362.324
0.808,-1.22,-0.619,78.49,-90.91,165.35,1785098767368.289
0.868,-1.301,-0.659,54.11,-75.5,172.37,1785098767379.175
1.004,-1.167,-0.704,22.49,-58.69,152.5,1785098767392.342
0.971,-1.094,-0.719,-14.31,-47.7,133.79,1785098767398.0042
1.024,-1.014,-0.671,-37.81,-34.33,121.65,1785098767409.089
0.987,-1.044,-0.617,-46.08,-17.85,107.15,1785098767419.862
0.926,-1.102,-0.539,-39.89,-14.86,112.43,1785098767433.014
0.879,-1.081,-0.46,-13.0,-10.01,114.08,1785098767439.345
0.836,-1.013,-0.466,22.71,-0.27,104.56,1785098767449.6372
0.786,-0.953,-0.472,46.82,8.51,92.56,1785098767462.882
0.773,-0.978,-0.462,55.02,16.05,82.37,1785098767468.8052
0.746,-1.011,-0.457,47.0,22.19,68.85,1785098767479.0608
0.703,-1.004,-0.419,24.93,27.59,57.16,1785098767492.5662
0.694,-0.985,-0.355,1.71,31.77,50.23,1785098767498.486
0.698,-0.968,-0.306,-15.02,33.78,42.48,1785098767508.917
0.688,-0.964,-0.282,-27.56,33.72,32.11,1785098767519.691
0.647,-0.944,-0.266,-39.03,33.2,20.87,1785098767532.779
0.647,-0.944,-0.266,-46.63,32.78,12.85,1785098767539.288
0.608,-0.924,-0.246,-46.05,32.56,6.81,1785098767549.1353
0.605,-0.925,-0.232,-40.01,32.84,-0.34,1785098767559.7341
0.598,-0.947,-0.234,-34.15,32.72,-7.54,1785098767573.028
0.565,-0.943,-0.236,-34.15,32.72,-7.54,1785098767578.916
0.513,-0.947,-0.227,-28.78,31.13,-7.69,1785098767589.25
0.514,-0.981,-0.212,-22.03,28.78,-2.14,1785098767599.706
0.536,-1.008,-0.208,-13.61,26.49,-0.24,1785098767613.014
0.501,-1.003,-0.22,-8.76,25.06,-5.4,1785098767618.9219
0.469,-1.001,-0.22,-11.72,22.8,-6.41,1785098767629.144
0.475,-1.011,-0.213,-16.21,21.0,-5.92,1785098767639.678
0.466,-1.008,-0.219,-20.05,20.39,-10.74,1785098767652.8699
0.44,-0.97,-0.212,-24.99,20.42,-16.05,1785098767658.8428
0.432,-0.926,-0.194,-27.44,20.87,-18.95,1785098767669.381
