ax,ay,az,gx,gy,gz,timestamp_ms
0.841,0.371,-0.539,11.29,-6.87,2.9,1784844311599.03
0.842,0.394,-0.541,13.55,-5.31,1.4,1784844311599.6953
0.833,0.418,-0.54,12.51,-3.72,0.03,1784844311600.427
0.82,0.425,-0.539,8.39,-2.38,-0.43,1784844311601.061
0.809,0.44,-0.525,2.99,-1.5,0.12,1784844311601.572
0.799,0.433,-0.516,-0.7,-1.37,1.5,1784844311602.0989
0.784,0.412,-0.523,-3.91,-1.43,1.53,1784844311606.809
0.772,0.383,-0.522,-7.54,-1.13,0.98,1784844311608.0278
0.772,0.348,-0.507,-8.67,-0.79,0.52,1784844311608.751
0.778,0.32,-0.493,-6.07,-0.85,0.03,1784844311609.3708
0.78,0.293,-0.481,-1.89,-1.19,-0.61,1784844311609.958
0.779,0.296,-0.465,1.46,-1.34,-1.62,1784844311610.541
0.78,0.316,-0.453,6.07,-1.71,-1.46,1784844311611.134
0.777,0.339,-0.462,11.66,-2.87,-1.5,1784844311612.2087
0.768,0.372,-0.499,14.01,-3.69,-1.31,1784844311612.8098
0.755,0.396,-0.531,10.47,-3.6,-0.55,1784844311613.419
0.748,0.408,-0.543,3.05,-3.57,0.27,1784844311614.259
0.753,0.399,-0.543,-3.08,-3.66,0.58,1784844311614.988
0.76,0.383,-0.528,-6.2,-3.42,0.49,1784844311615.3027
0.762,0.368,-0.514,-5.83,-3.11,0.95,1784844311615.62
0.762,0.351,-0.514,-3.6,-2.69,1.65,1784844311615.937
0.762,0.335,-0.52,-0.89,-2.17,2.11,1784844311616.256
0.765,0.339,-0.519,1.53,-1.77,2.32,1784844311616.5671
0.772,0.353,-0.524,4.7,-1.19,3.23,1784844311616.8872
0.774,0.371,-0.534,7.35,-0.4,3.63,1784844311617.2092
0.768,0.393,-0.542,6.65,0.43,3.78,1784844311617.537
0.767,0.404,-0.547,2.99,0.98,4.49,1784844311617.856
0.771,0.381,-0.549,-1.92,1.5,4.97,1784844311618.1782
0.776,0.35,-0.54,-6.41,1.8,4.09,1784844311618.503
0.779,0.346,-0.529,-7.63,2.17,3.69,1784844311618.8203
0.778,0.343,-0.522,-6.23,2.47,4.55,1784844311619.135
0.768,0.336,-0.522,-5.28,2.26,4.33,1784844311619.4492
0.764,0.333,-0.52,-5.8,2.17,3.05,1784844311619.759
0.769,0.323,-0.506,-5.92,2.47,2.5,1784844311620.07
0.779,0.32,-0.488,-3.54,2.38,2.81,1784844311620.38
0.79,0.335,-0.494,0.61,1.8,3.27,1784844311620.6929
0.788,0.34,-0.505,4.24,1.46,2.69,1784844311621.0051
0.778,0.347,-0.517,5.55,1.43,1.46,1784844311621.328
0.771,0.353,-0.529,5.65,1.59,1.43,1784844311621.6362
0.772,0.36,-0.52,5.8,1.62,2.08,1784844311621.966
0.776,0.384,-0.52,5.04,1.19,3.05,1784844311622.2908
0.775,0.393,-0.525,1.77,1.25,4.21,1784844311622.874
0.771,0.379,-0.526,-2.5,1.1,4.12,1784844311623.299
0.769,0.355,-0.514,-5.34,0.73,3.97,1784844311623.7
0.774,0.327,-0.504,-5.62,-0.34,3.54,1784844311624.0908
0.783,0.318,-0.5,-3.72,-1.07,2.84,1784844311624.486
0.788,0.327,-0.497,-0.27,-0.95,3.85,1784844311624.882
0.783,0.325,-0.502,4.18,-0.67,4.24,1784844311625.279
0.778,0.348,-0.516,6.9,-1.4,3.6,1784844311625.6719
0.778,0.356,-0.524,6.68,-1.8,4.21,1784844311626.121
0.787,0.342,-0.538,3.51,-1.89,3.91,1784844311626.5203
0.787,0.342,-0.538,-0.43,-1.68,2.81,1784844311626.912
0.796,0.329,-0.535,-2.11,-1.34,1.5,1784844311627.31
0.801,0.305,-0.524,-0.76,-1.1,-0.21,1784844311627.708
0.803,0.294,-0.51,3.63,-1.01,-1.01,1784844311628.105
0.806,0.297,-0.507,8.27,-0.52,-1.31,1784844311628.501
0.801,0.311,-0.522,8.27,-0.52,-1.31,1784844311628.9028
0.786,0.333,-0.538,10.07,0.24,-1.65,1784844311629.301
0.774,0.346,-0.542,9.37,0.79,-1.95,1784844311629.7112
0.771,0.356,-0.54,7.48,0.98,-2.38,1784844311630.126
0.774,0.367,-0.529,5.98,1.19,-2.01,1784844311630.53
0.773,0.36,-0.519,5.22,0.98,-1.31,1784844311630.929
0.773,0.351,-0.527,4.43,0.46,-1.53,1784844311631.329
0.772,0.352,-0.538,3.78,0.89,-1.07,1784844311631.7283
0.769,0.355,-0.538,2.87,1.19,0.27,1784844311632.125
0.766,0.355,-0.539,1.77,0.89,0.64,1784844311632.522
0.766,0.344,-0.53,1.16,1.19,0.85,1784844311632.917
0.766,0.342,-0.519,0.52,1.4,0.92,1784844311633.313
0.764,0.34,-0.507,0.18,1.25,1.53,1784844311633.708
0.764,0.324,-0.501,0.34,0.85,2.01,1784844311634.107
0.773,0.318,-0.493,1.04,0.27,2.11,1784844311634.502
0.78,0.324,-0.491,3.08,-0.37,2.23,1784844311634.9011
0.777,0.33,-0.5,5.49,-0.95,2.23,1784844311635.293
0.773,0.336,-0.518,7.26,-1.34,1.89,1784844311635.6877
0.773,0.342,-0.533,7.63,-1.43,1.71,1784844311636.089
0.775,0.347,-0.537,6.41,-1.19,2.14,1784844311636.482
0.775,0.355,-0.535,4.27,-0.82,3.05,1784844311636.8862
0.773,0.345,-0.532,2.38,-0.64,3.66,1784844311637.2878
0.776,0.324,-0.529,1.74,-0.76,3.05,1784844311637.686
0.783,0.319,-0.531,1.86,-0.92,2.5,1784844311638.076
0.784,0.318,-0.539,1.98,-0.82,2.81,1784844311638.481
0.781,0.32,-0.542,2.14,-0.67,2.32,1784844311638.876
0.784,0.315,-0.532,4.06,-0.31,2.17,1784844311639.272
0.787,0.328,-0.539,6.74,-0.27,1.77,1784844311639.6711
0.784,0.349,-0.55,7.54,-0.09,1.95,1784844311640.0708
0.777,0.355,-0.557,5.19,0.49,2.93,1784844311640.467
0.776,0.338,-0.554,1.62,0.92,3.14,1784844311640.8582
0.78,0.315,-0.543,-0.7,1.1,2.26,1784844311641.258
0.787,0.294,-0.532,-0.7,1.04,2.11,1784844311641.639
0.79,0.288,-0.528,1.1,1.01,1.83,1784844311641.977
0.786,0.289,-0.532,4.24,1.04,1.4,1784844311642.3198
0.785,0.297,-0.54,7.54,0.92,0.98,1784844311642.666
0.782,0.327,-0.55,8.42,0.85,0.76,1784844311643.007
0.777,0.353,-0.554,7.35,1.1,1.77,1784844311643.347
0.771,0.358,-0.558,4.58,1.22,2.26,1784844311643.6968
0.767,0.356,-0.561,0.43,1.13,1.92,1784844311644.042
0.771,0.348,-0.549,-4.0,1.22,1.8,1784844311644.386
0.773,0.323,-0.528,-6.32,1.43,2.2,1784844311644.73
0.773,0.3,-0.508,-5.37,1.19,2.38,1784844311645.079
0.775,0.287,-0.498,-1.56,0.76,2.47,1784844311645.4302
0.774,0.277,-0.49,3.57,0.55,2.35,1784844311645.772
0.768,0.267,-0.48,8.7,0.03,1.8,1784844311646.123
0.763,0.268,-0.476,13.82,-0.76,1.31,1784844311646.4739
0.761,0.276,-0.472,18.74,-1.68,1.37,1784844311646.822
0.754,0.282,-0.473,23.26,-2.72,1.43,1784844311647.1692
0.748,0.304,-0.478,25.97,-3.88,1.43,1784844311647.5188
0.737,0.319,-0.477,25.91,-4.43,2.72,1784844311647.871
0.72,0.305,-0.451,23.77,-5.25,3.72,1784844311648.214
0.7,0.285,-0.412,22.86,-7.42,4.0,1784844311648.561
0.689,0.245,-0.358,25.73,-10.01,5.01,1784844311648.9138
0.681,0.194,-0.282,33.27,-13.46,5.68,1784844311649.271
0.665,0.146,-0.202,46.17,-18.4,6.65,1784844311649.62
0.641,0.104,-0.127,64.55,-25.03,8.73,1784844311649.975
0.613,0.08,-0.103,86.95,-33.6,11.84,1784844311650.333
0.577,0.07,-0.114,109.13,-42.63,15.59,1784844311650.699
0.536,0.067,-0.156,128.73,-52.28,19.65,1784844311651.0579
0.504,0.061,-0.223,144.72,-61.71,24.11,1784844311651.405
0.49,0.041,-0.23,156.5,-69.89,27.56,1784844311651.724
0.482,-0.008,-0.218,165.72,-78.59,30.49,1784844311652.042
0.494,-0.05,-0.274,173.96,-88.32,33.66,1784844311652.3562
0.525,-0.064,-0.329,183.29,-95.22,37.57,1784844311652.673
0.55,-0.074,-0.33,197.24,-97.72,43.43,1784844311652.996
0.561,-0.08,-0.316,218.79,-100.25,49.59,1784844311653.3171
0.554,-0.075,-0.334,246.96,-103.7,55.02,1784844311653.636
0.527,-0.082,-0.383,274.48,-105.81,59.79,1784844311653.956
0.494,-0.119,-0.438,293.83,-104.56,66.87,1784844311654.277
0.461,-0.191,-0.501,301.83,-101.81,75.75,1784844311654.603
0.45,-0.246,-0.543,301.49,-97.14,83.53,1784844311654.922
0.454,-0.266,-0.535,301.58,-91.01,91.34,1784844311655.246
0.441,-0.279,-0.553,309.37,-84.6,96.96,1784844311655.5671
0.431,-0.211,-0.519,320.66,-76.72,101.47,1784844311655.8918
0.412,-0.182,-0.515,336.34,-71.11,113.53,1784844311656.212
0.354,-0.146,-0.554,344.4,-64.79,124.91,1784844311656.54
0.324,-0.155,-0.578,339.18,-56.98,142.83,1784844311656.8608
0.266,-0.188,-0.622,307.72,-52.98,162.76,1784844311657.1838
0.194,-0.159,-0.697,259.74,-48.77,180.39,1784844311657.501
0.134,-0.18,-0.85,216.07,-42.82,200.69,1784844311657.823
0.09,-0.245,-0.895,171.67,-33.33,217.41,1784844311658.143
0.053,-0.298,-0.789,126.8,-27.31,227.94,1784844311658.4648
0.028,-0.355,-0.66,93.48,-27.83,233.77,1784844311658.7788
0.024,-0.415,-0.542,76.82,-29.97,237.95,1784844311659.0981
0.012,-0.47,-0.417,76.05,-31.04,242.19,1784844311659.416
-0.013,-0.55,-0.312,89.97,-32.96,247.08,1784844311659.7341
-0.056,-0.649,-0.255,108.1,-36.68,252.42,1784844311660.0498
-0.115,-0.74,-0.36,122.81,-42.76,258.55,1784844311660.3699
-0.24,-0.805,-0.613,131.66,-44.43,267.01,1784844311660.69
-0.324,-0.867,-0.759,124.94,-35.89,279.4,1784844311661.0088
-0.395,-0.839,-0.739,99.95,-29.54,289.5,1784844311661.3218
-0.444,-0.82,-0.714,77.79,-30.98,297.07,1784844311661.639
-0.461,-0.965,-0.713,66.41,-34.12,301.1,1784844311661.96
-0.458,-1.204,-0.667,52.61,-34.76,297.62,1784844311662.2773
-0.452,-1.341,-0.543,34.64,-34.06,286.26,1784844311662.591
-0.416,-1.305,-0.375,33.78,-30.92,271.28,1784844311662.908
-0.399,-1.288,-0.25,57.71,-28.29,262.58,1784844311663.226
-0.418,-1.259,-0.241,77.67,-28.75,254.71,1784844311663.542
-0.435,-1.169,-0.243,79.5,-29.11,248.63,1784844311663.855
-0.477,-1.089,-0.255,70.59,-34.0,245.22,1784844311664.1763
-0.572,-1.073,-0.303,59.42,-43.64,242.07,1784844311664.4941
-0.686,-1.144,-0.379,48.71,-52.74,239.78,1784844311664.809
-0.776,-1.283,-0.408,41.54,-56.25,236.27,1784844311665.1243
-0.808,-1.413,-0.375,39.95,-55.27,228.1,1784844311665.442
-0.819,-1.475,-0.315,45.75,-52.98,216.07,1784844311665.761
-0.829,-1.452,-0.312,59.48,-50.81,205.66,1784844311666.079
-0.835,-1.363,-0.367,73.52,-47.36,199.65,1784844311666.396
-0.858,-1.241,-0.411,77.27,-44.13,196.17,1784844311666.713
-0.892,-1.12,-0.44,66.5,-44.83,193.33,1784844311667.0332
-0.917,-1.029,-0.436,47.12,-47.18,189.61,1784844311667.348
-0.92,-0.977,-0.401,28.96,-49.1,183.6,1784844311667.663
-0.911,-0.958,-0.364,17.55,-51.09,175.91,1784844311667.9822
-0.901,-0.987,-0.334,15.14,-52.64,166.51,1784844311668.2998
-0.924,-1.062,-0.414,8.76,-49.29,132.45,1784844311669.238
-0.946,-1.009,-0.445,-0.12,-45.23,12486.0,1784844311669.6948
-0.843,-0.49,-0.22,-5.19,-1.89,-0.79,1784844311669.996
-0.841,-0.49,-0.217,-5.22,-1.62,-0.85,1784844311670.305
-0.837,-0.486,-0.217,-4.85,-1.31,-0.85,1784844311670.6062
-0.836,-0.484,-0.22,-4.36,-0.95,-0.61,1784844311670.908
-0.836,-0.479,-0.223,-4.79,-0.52,-0.24,1784844311671.2131
-0.834,-0.478,-0.221,-5.16,-0.52,0.21,1784844311677.1682
-0.834,-0.477,-0.22,-4.79,-0.85,0.24,1784844311687.5022
-0.831,-0.474,-0.22,-4.43,-0.89,0.03,1784844311700.8838
-0.828,-0.47,-0.214,-3.81,-0.92,-0.12,1784844311706.3
-0.826,-0.47,-0.219,-2.99,-1.28,-0.09,1784844311716.4768
-0.83,-0.472,-0.224,-3.02,-1.37,0.37,1784844311726.824
-0.829,-0.469,-0.225,-3.45,-1.46,0.79,1784844311737.283
-0.826,-0.473,-0.226,-3.69,-1.71,0.92,1784844311747.733
-0.816,-0.474,-0.244,-4.61,-2.17,0.61,1784844311760.9558
-0.814,-0.471,-0.266,-6.56,-2.11,0.55,1784844311766.4338
-0.823,-0.461,-0.282,-8.42,-2.78,0.79,1784844311776.554
-0.812,-0.463,-0.303,-9.61,-3.66,1.74,1784844311786.999
-0.79,-0.479,-0.343,-12.6,-3.63,1.86,1784844311797.487
-0.787,-0.488,-0.384,-18.19,-1.77,0.76,1784844311810.82
-0.785,-0.488,-0.416,-24.29,0.61,-0.12,1784844311816.664
-0.77,-0.488,-0.447,-28.29,2.9,0.27,1784844311826.741
-0.758,-0.503,-0.475,-29.05,5.49,0.4,1784844311837.26
-0.744,-0.53,-0.532,-28.08,8.09,-0.34,1784844311847.897
-0.746,-0.553,-0.592,-26.46,11.93,-2.14,1784844311861.107
-0.753,-0.584,-0.649,-23.01,17.06,-3.48,1784844311866.991
-0.75,-0.622,-0.701,-19.07,23.29,-4.55,1784844311877.147
-0.752,-0.638,-0.711,-15.81,29.21,-5.37,1784844311887.775
-0.763,-0.618,-0.707,-13.52,32.69,-5.19,1784844311901.191
-0.764,-0.572,-0.719,-14.22,35.98,-2.35,1784844311906.971
-0.771,-0.543,-0.729,-18.86,40.96,1.92,1784844311917.449
-0.786,-0.532,-0.74,-26.28,45.23,5.43,1784844311927.774
-0.795,-0.523,-0.777,-36.87,49.99,7.9,1784844311941.082
-0.817,-0.501,-0.795,-50.51,55.85,10.13,1784844311946.9558
-0.816,-0.505,-0.807,-63.48,61.68,12.3,1784844311957.444
-0.824,-0.537,-0.798,-73.4,66.9,12.57,1784844311970.9739
-0.842,-0.572,-0.777,-78.34,72.45,11.69,1784844311976.5552
-0.855,-0.601,-0.747,-77.82,78.55,11.17,1784844311987.1418
-0.86,-0.617,-0.742,-72.24,84.41,10.53,1784844311997.76
-0.87,-0.626,-0.725,-62.29,91.46,9.09,1784844312011.201
-0.87,-0.626,-0.725,-48.62,98.36,6.68,1784844312017.173
-0.89,-0.631,-0.719,-35.1,105.41,4.88,1784844312027.232
-0.903,-0.621,-0.725,-23.74,112.25,4.52,1784844312040.566
-0.909,-0.603,-0.725,-14.1,118.02,4.58,1784844312046.241
-0.917,-0.573,-0.726,-14.1,118.02,4.58,1784844312057.047
-0.923,-0.545,-0.702,-4.18,122.9,4.49,1784844312067.625
-0.913,-0.544,-0.679,8.45,126.47,3.66,1784844312080.8289
-0.89,-0.565,-0.66,20.69,128.45,0.21,1784844312086.756
-0.88,-0.577,-0.667,25.88,129.0,-5.86,1784844312097.183
-0.877,-0.558,-0.674,22.06,129.64,-11.38,1784844312107.9092
-0.877,-0.54,-0.671,15.26,130.38,-14.62,1784844312121.363
-0.876,-0.537,-0.697,7.87,130.47,-16.72,1784844312127.0232
-0.87,-0.542,-0.726,-0.37,131.47,-18.13,1784844312137.802
-0.858,-0.553,-0.729,-5.13,132.91,-19.29,1784844312151.052
-0.858,-0.571,-0.692,-4.64,133.34,-20.23,1784844312156.981
-0.851,-0.561,-0.635,-3.11,131.75,-20.11,1784844312167.442
-0.821,-0.551,-0.617,-1.13,128.51,-19.23,1784844312180.7517
-0.809,-0.547,-0.646,-2.44,124.94,-18.83,1784844312186.6228
-0.808,-0.529,-0.718,-14.8,121.49,-18.62,1784844312197.139
-0.807,-0.507,-0.788,-35.98,118.38,-16.94,1784844312210.529
-0.759,-0.495,-0.849,-61.71,115.39,-12.33,1784844312216.3599
-0.736,-0.547,-0.896,-89.63,112.67,-5.34,1784844312227.0068
-0.704,-0.602,-0.811,-107.27,116.09,-7.32,1784844312237.9219
-0.703,-0.624,-0.731,-111.64,113.53,-14.22,1784844312251.2378
-0.726,-0.615,-0.633,-101.41,110.54,-19.84,1784844312257.2073
-0.724,-0.58,-0.622,-83.96,107.88,-22.61,1784844312270.825
-0.696,-0.499,-0.65,-68.73,108.86,-23.38,1784844312276.368
-0.649,-0.435,-0.676,-53.62,111.97,-22.68,1784844312287.241
-0.597,-0.433,-0.709,-36.68,113.47,-24.48,1784844312298.007
-0.577,-0.469,-0.714,-20.51,112.8,-31.74,1784844312311.2278
-0.56,-0.46,-0.783,-10.04,110.66,-40.74,1784844312317.12
-0.573,-0.431,-0.872,-10.16,109.93,-43.09,1784844312327.858
-0.58,-0.404,-0.849,-9.55,114.44,-47.52,1784844312341.1719
-0.562,-0.4,-0.864,-11.6,112.8,-52.71,1784844312347.019
-0.535,-0.384,-0.837,-16.6,112.83,-56.12,1784844312357.749
-0.513,-0.378,-0.756,-14.19,112.89,-57.19,1784844312371.22
-0.464,-0.397,-0.759,-3.97,111.06,-57.71,1784844312376.9321
-0.412,-0.389,-0.809,4.94,109.9,-59.97,1784844312387.5762
-0.388,-0.361,-0.825,11.41,109.04,-62.23,1784844312400.9048
-0.376,-0.339,-0.884,15.38,107.03,-62.96,1784844312406.744
-0.381,-0.32,-0.942,12.97,107.24,-62.5,1784844312417.5898
-0.392,-0.322,-0.926,6.74,109.07,-60.3,1784844312430.815
-0.371,-0.355,-0.886,1.83,109.65,-57.13,1784844312436.721
-0.319,-0.383,-0.845,2.2,109.71,-55.6,1784844312447.1482
-0.268,-0.389,-0.792,10.32,108.46,-55.51,1784844312460.559
-0.228,-0.374,-0.794,21.12,104.59,-54.32,1784844312466.421
-0.211,-0.33,-0.872,24.6,100.8,-52.22,1784844312477.116
-0.228,-0.287,-0.908,20.57,99.98,-49.23,1784844312487.8552
-0.24,-0.276,-0.9,13.67,99.03,-45.38,1784844312501.655
-0.221,-0.285,-0.861,5.34,97.78,-41.87,1784844312507.1519
-0.183,-0.297,-0.792,0.64,96.04,-38.88,1784844312517.5
-0.134,-0.326,-0.788,1.8,93.11,-36.65,1784844312527.8452
-0.105,-0.355,-0.824,3.75,91.68,-36.62,1784844312541.224
-0.105,-0.365,-0.833,5.07,91.74,-37.45,1784844312546.968
-0.109,-0.358,-0.818,8.06,91.53,-37.26,1784844312557.458
-0.098,-0.349,-0.797,13.31,91.04,-34.97,1784844312570.592
-0.075,-0.342,-0.802,17.21,90.43,-32.38,1784844312586.947
-0.056,-0.334,-0.785,18.95,90.3,-30.92,1784844312587.5461
-0.027,-0.325,-0.796,17.06,88.38,-30.12,1784844312597.697
-0.003,-0.32,-0.805,8.27,86.4,-30.82,1784844312610.841
0.015,-0.307,-0.784,-2.01,82.98,-32.81,1784844312616.3809
0.041,-0.337,-0.799,-13.43,76.42,-27.53,1784844312626.998
0.009,-0.386,-0.818,-17.24,75.38,-29.91,1784844312637.644
0.026,-0.371,-0.768,-11.87,75.01,-40.1,1784844312650.925
0.051,-0.373,-0.76,-10.13,73.82,-41.05,1784844312656.7
0.095,-0.359,-0.744,-9.8,74.19,-40.5,1784844312667.242
0.14,-0.356,-0.78,-6.53,73.31,-40.38,1784844312680.492
0.174,-0.362,-0.918,-6.44,72.85,-42.24,1784844312686.2349
0.157,-0.371,-0.944,-10.93,76.54,-45.44,1784844312696.77
0.133,-0.393,-0.844,-17.33,80.23,-45.75,1784844312707.352
0.165,-0.391,-0.784,-19.84,80.48,-44.98,1784844312720.606
0.215,-0.387,-0.724,-12.73,79.56,-43.79,1784844312726.327
0.251,-0.385,-0.733,-0.09,77.39,-43.7,1784844312737.0132
0.268,-0.369,-0.795,8.88,76.17,-45.38,1784844312747.587
0.266,-0.345,-0.797,13.31,76.75,-46.02,1784844312760.8052
0.276,-0.326,-0.803,14.8,76.3,-44.83,1784844312766.5012
0.303,-0.313,-0.844,12.18,75.5,-43.82,1784844312777.519
0.332,-0.29,-0.798,7.81,76.3,-42.57,1784844312790.6702
0.311,-0.326,-0.76,2.2,73.7,-36.16,1784844312796.348
0.359,-0.319,-0.743,3.27,72.97,-39.95,1784844312806.9702
0.377,-0.346,-0.762,-0.31,69.09,-42.91,1784844312817.485
0.38,-0.323,-0.709,-5.1,67.6,-42.42,1784844312830.5818
0.393,-0.299,-0.733,-6.01,63.94,-40.04,1784844312836.6091
0.393,-0.28,-0.662,-7.05,61.16,-37.29,1784844312846.901
0.428,-0.235,-0.613,-7.72,55.79,-33.08,1784844312857.5317
0.498,-0.253,-0.659,-11.69,48.68,-22.8,1784844312870.834
0.508,-0.243,-0.627,-9.7,47.18,-21.49,1784844312876.596
0.518,-0.194,-0.602,-1.34,42.7,-23.83,1784844312886.984
0.519,-0.134,-0.581,1.98,37.78,-17.3,1784844312897.583
0.517,-0.107,-0.554,2.26,32.72,-6.44,1784844312910.929
0.497,-0.187,-0.556,-3.94,24.78,7.75,1784844312916.7358
0.467,-0.205,-0.545,-9.46,20.2,12.54,1784844312926.836
0.494,-0.218,-0.582,-8.27,14.8,13.92,1784844312937.512
0.512,-0.229,-0.609,-11.11,10.1,17.64,1784844312950.871
0.508,-0.236,-0.622,-13.28,6.16,20.05,1784844312956.9412
0.478,-0.262,-0.612,-16.3,2.69,22.22,1784844312967.129
0.437,-0.292,-0.591,-20.08,-0.21,24.11,1784844312977.5933
0.421,-0.339,-0.592,-18.31,-2.47,25.3,1784844312990.9312
0.431,-0.382,-0.628,-11.93,-3.39,25.15,1784844312996.35
0.432,-0.414,-0.667,-4.03,-2.75,22.92,1784844313006.763
0.423,-0.418,-0.69,1.01,-1.83,19.93,1784844313017.356
0.418,-0.395,-0.696,1.89,-1.22,17.24,1784844313027.641
0.415,-0.377,-0.669,2.93,-0.58,14.86,1784844313041.0518
0.418,-0.375,-0.66,5.74,0.0,11.17,1784844313047.2588
0.429,-0.373,-0.668,9.09,1.25,7.2,1784844313056.894
0.449,-0.369,-0.679,11.6,2.72,3.63,1784844313067.2559
0.468,-0.356,-0.702,13.03,4.03,-0.09,1784844313077.754
0.467,-0.36,-0.745,12.24,4.79,-4.21,1784844313090.893
0.441,-0.385,-0.781,8.97,5.68,-9.8,1784844313096.611
0.429,-0.405,-0.77,5.74,6.9,-15.96,1784844313107.1091
0.44,-0.405,-0.755,4.79,7.97,-20.51,1784844313117.523
0.458,-0.389,-0.738,7.29,9.58,-23.77,1784844313127.944
0.477,-0.355,-0.735,12.94,10.19,-26.95,1784844313141.283
0.504,-0.311,-0.778,16.63,10.01,-28.6,1784844313147.1702
0.502,-0.316,-0.862,15.5,10.86,-28.93,1784844313157.398
0.475,-0.339,-0.873,9.61,13.86,-30.49,1784844313171.0222
0.481,-0.363,-0.869,5.55,16.45,-31.98,1784844313176.747
0.488,-0.443,-0.877,7.29,20.87,-33.81,1784844313187.095
0.468,-0.496,-0.837,12.76,27.01,-38.82,1784844313197.684
0.462,-0.501,-0.8,21.91,32.29,-44.04,1784844313211.1301
0.485,-0.52,-0.786,35.55,37.11,-48.92,1784844313217.008
0.51,-0.525,-0.776,49.38,39.98,-56.09,1784844313227.4648
0.533,-0.458,-0.827,57.77,39.43,-63.42,1784844313240.978
0.552,-0.376,-0.94,58.41,40.16,-67.2,1784844313246.6062
0.537,-0.365,-0.999,50.29,44.68,-69.12,1784844313257.3628
0.495,-0.408,-1.0,35.65,49.62,-73.64,1784844313267.894
0.473,-0.46,-0.909,20.57,54.51,-79.04,1784844313281.0813
0.5,-0.519,-0.815,12.45,57.53,-83.62,1784844313287.2751
0.525,-0.574,-0.747,13.92,59.18,-89.75,1784844313297.6157
0.525,-0.574,-0.747,21.24,58.02,-97.38,1784844313310.9187
0.563,-0.556,-0.648,28.66,51.3,-103.43,1784844313316.807
0.633,-0.473,-0.696,29.02,47.94,-106.72,1784844313327.5408
0.643,-0.417,-0.811,19.87,49.44,-109.93,1784844313340.8188
0.568,-0.402,-0.805,7.87,48.68,-112.61,1784844313346.352
0.532,-0.378,-0.781,7.87,48.68,-112.61,1784844313357.2742
0.54,-0.392,-0.746,-0.76,48.59,-113.5,1784844313368.0178
0.553,-0.415,-0.672,-4.18,49.65,-116.03,1784844313381.2202
0.614,-0.379,-0.603,0.24,48.59,-118.78,1784844313387.198
0.705,-0.354,-0.62,11.54,45.17,-119.82,1784844313397.6892
0.734,-0.34,-0.671,18.83,42.85,-123.26,1784844313411.125
0.705,-0.23,-0.698,14.56,40.71,-125.77,1784844313417.1672
0.69,-0.11,-0.74,3.48,38.48,-121.43,1784844313427.5168
0.685,-0.097,-0.709,-8.15,39.52,-116.52,1784844313444.7942
0.664,-0.111,-0.646,-18.37,39.31,-117.62,1784844313446.6382
0.649,-0.13,-0.608,-22.77,38.51,-119.72,1784844313457.181
0.664,-0.133,-0.558,-21.24,38.18,-119.63,1784844313470.4749
0.736,-0.069,-0.542,-16.82,34.67,-117.71,1784844313476.604
0.8,-0.016,-0.61,-12.51,31.4,-113.93,1784844313487.5579
0.799,-0.003,-0.621,-11.93,32.75,-112.7,1784844313500.8352
0.79,0.036,-0.628,-13.49,32.78,-113.56,1784844313506.686
0.788,0.043,-0.664,-15.99,33.63,-111.42,1784844313517.439
0.763,0.024,-0.649,-19.38,37.84,-109.56,1784844313530.596
0.742,0.018,-0.621,-19.47,41.44,-108.34,1784844313536.719
0.772,0.054,-0.592,-16.05,42.66,-106.08,1784844313547.331
0.84,0.119,-0.599,-12.97,42.54,-101.32,1784844313560.7148
0.86,0.119,-0.633,-9.74,44.34,-97.78,1784844313566.6729
0.836,0.098,-0.598,-6.04,47.85,-99.73,1784844313576.8152
0.826,0.134,-0.606,-3.63,47.98,-102.11,1784844313587.631
0.811,0.156,-0.64,-4.58,50.05,-101.32,1784844313601.0188
0.781,0.191,-0.607,-9.46,53.38,-99.7,1784844313606.6238
0.772,0.248,-0.594,-15.96,53.29,-97.08,1784844313617.198
0.789,0.273,-0.587,-22.8,53.16,-93.33,1784844313627.86
0.808,0.261,-0.556,-29.48,53.87,-91.46,1784844313641.105
0.813,0.237,-0.495,-33.14,53.5,-92.29,1784844313646.952
0.803,0.238,-0.447,-32.38,51.61,-92.96,1784844313657.523
0.781,0.227,-0.462,-29.3,49.68,-91.95,1784844313670.779
0.753,0.247,-0.413,-27.19,49.93,-91.83,1784844313676.674
0.751,0.343,-0.365,-23.29,47.88,-89.6,1784844313687.2031
0.763,0.393,-0.4,-16.27,45.17,-84.05,1784844313697.913
0.754,0.406,-0.397,-12.51,43.76,-81.67,1784844313711.179
0.752,0.44,-0.391,-14.5,40.44,-81.39,1784844313716.9448
0.77,0.434,-0.404,-19.07,38.0,-79.26,1784844313727.4639
0.776,0.424,-0.379,-25.79,37.29,-76.97,1784844313740.827
0.76,0.419,-0.389,-33.17,35.31,-73.76,1784844313746.754
0.735,0.413,-0.353,-38.3,35.58,-71.63,1784844313757.4402
0.729,0.454,-0.275,-38.7,34.36,-69.46,1784844313767.8062
0.749,0.449,-0.298,-32.9,31.1,-65.22,1784844313781.0713
0.758,0.412,-0.286,-25.64,30.73,-63.17,1784844313787.165
0.757,0.431,-0.24,-18.77,28.63,-62.75,1784844313797.481
0.774,0.473,-0.265,-10.99,24.63,-60.18,1784844313810.932
0.785,0.491,-0.298,-5.55,23.22,-56.37,1784844313816.71
0.766,0.502,-0.285,-4.7,23.13,-54.78,1784844313827.0872
0.748,0.525,-0.274,-6.23,21.33,-53.19,1784844313837.593
0.753,0.513,-0.296,-7.75,19.81,-49.62,1784844313850.803
0.759,0.503,-0.276,-11.14,19.44,-46.97,1784844313856.456
0.758,0.486,-0.268,-14.65,17.82,-45.2,1784844313867.189
0.758,0.457,-0.253,-17.09,16.42,-44.19,1784844313877.7102
0.76,0.45,-0.206,-16.54,14.13,-43.55,1784844313891.082
0.789,0.457,-0.2,-9.8,10.07,-40.35,1784844313896.8298
0.811,0.434,-0.235,-0.43,8.33,-39.74,1784844313907.3433
0.784,0.45,-0.221,5.01,7.66,-43.15,1784844313917.881
0.762,0.473,-0.268,8.51,4.18,-43.31,1784844313930.9949
0.75,0.47,-0.279,9.55,3.05,-41.84,1784844313936.862
0.745,0.502,-0.244,9.46,1.16,-41.72,1784844313946.943
0.757,0.522,-0.276,11.44,-2.47,-41.29,1784844313957.5833
0.759,0.525,-0.268,11.6,-3.54,-41.35,1784844313971.075
0.749,0.531,-0.247,9.8,-5.65,-41.99,1784844313976.7292
0.739,0.527,-0.292,5.34,-8.76,-42.15,1784844313986.793
0.73,0.541,-0.306,-2.62,-10.13,-40.93,1784844314004.42
0.723,0.531,-0.305,-5.1,-10.77,-38.94,1784844314008.6091
0.72,0.528,-0.281,-0.61,-11.81,-38.61,1784844314020.979
0.733,0.573,-0.282,7.84,-14.5,-37.97,1784844314026.6628
0.755,0.608,-0.324,17.21,-15.9,-34.91,1784844314037.272
0.755,0.627,-0.337,22.89,-15.08,-31.86,1784844314050.555
0.752,0.649,-0.325,25.97,-15.05,-30.37,1784844314056.4922
0.745,0.682,-0.333,26.95,-16.24,-30.34,1784844314067.2769
0.734,0.7,-0.364,25.15,-16.85,-28.38,1784844314077.921
0.721,0.702,-0.38,21.79,-16.08,-25.15,1784844314091.063
0.716,0.711,-0.411,16.85,-15.41,-21.09,1784844314096.8472
0.714,0.722,-0.419,10.96,-13.73,-16.75,1784844314107.573
0.715,0.722,-0.39,8.18,-12.45,-12.82,1784844314120.769
0.72,0.712,-0.371,10.77,-12.45,-10.53,1784844314126.648
0.726,0.725,-0.39,15.02,-12.21,-8.85,1784844314137.2769
0.729,0.712,-0.409,17.91,-10.74,-5.52,1784844314147.5342
0.724,0.669,-0.42,16.02,-9.0,-2.78,1784844314160.965
0.726,0.667,-0.406,11.96,-7.2,-0.79,1784844314166.626
0.751,0.689,-0.393,13.09,-4.73,3.81,1784844314176.789
0.771,0.714,-0.381,16.82,-2.47,9.03,1784844314187.135
0.759,0.746,-0.403,16.17,-2.01,11.66,1784844314197.739
0.735,0.741,-0.421,9.03,-1.5,13.18,1784844314211.2332
0.727,0.704,-0.4,-1.59,-0.73,13.25,1784844314216.897
0.738,0.643,-0.37,-10.47,-0.43,13.67,1784844314227.129
0.748,0.561,-0.324,-13.58,-0.37,13.79,1784844314237.9
0.764,0.525,-0.276,-9.25,-1.13,13.46,1784844314251.0679
0.782,0.521,-0.26,0.52,-3.2,13.49,1784844314256.768
0.787,0.527,-0.292,9.19,-5.68,11.93,1784844314266.881
0.773,0.543,-0.336,12.63,-7.72,9.03,1784844314277.384
0.758,0.547,-0.374,10.96,-9.49,5.86,1784844314287.7148
0.751,0.548,-0.4,5.77,-10.44,4.15,1784844314301.0881
0.751,0.525,-0.409,1.04,-10.59,3.3,1784844314306.8381
0.751,0.512,-0.413,-0.98,-10.8,1.56,1784844314317.064
0.746,0.504,-0.415,-0.12,-10.74,-0.4,1784844314327.3389
0.742,0.516,-0.407,2.14,-10.38,-1.74,1784844314337.899
0.742,0.534,-0.413,5.43,-9.8,-2.08,1784844314351.0708
0.741,0.557,-0.439,7.75,-9.03,-2.04,1784844314356.53
0.725,0.572,-0.459,7.45,-7.97,-2.04,1784844314366.798
0.712,0.602,-0.458,5.77,-6.65,-1.37,1784844314377.123
0.709,0.622,-0.469,4.27,-5.58,0.61,1784844314387.4978
0.701,0.607,-0.473,2.04,-3.94,2.01,1784844314400.9631
0.695,0.596,-0.464,-0.89,-2.41,2.84,1784844314406.3772
0.706,0.573,-0.458,-2.78,-1.4,3.81,1784844314416.501
0.719,0.544,-0.455,-4.52,-0.61,4.46,1784844314426.793
0.72,0.525,-0.453,-5.95,0.46,4.46,1784844314437.258
0.717,0.508,-0.447,-6.16,1.53,4.09,1784844314447.671
0.716,0.503,-0.428,-5.4,2.08,3.48,1784844314460.9019
0.718,0.507,-0.415,-4.0,2.08,2.87,1784844314466.494
0.718,0.505,-0.406,-2.35,2.2,1.74,1784844314476.4329
0.718,0.507,-0.402,-1.04,1.89,0.09,1784844314486.8218
0.714,0.52,-0.399,0.21,1.22,-0.7,1784844314497.209
0.714,0.529,-0.397,1.37,0.61,-0.82,1784844314507.67
0.72,0.536,-0.409,2.2,-0.06,-1.07,1784844314521.0828
0.726,0.544,-0.417,2.41,-0.06,-1.07,1784844314526.6619
0.728,0.548,-0.415,2.08,0.18,-0.98,1784844314536.7998
0.726,0.554,-0.411,1.86,0.12,-1.16,1784844314546.967
0.725,0.557,-0.415,2.26,-0.15,-1.37,1784844314557.433
0.723,0.551,-0.422,2.81,0.03,-1.77,1784844314567.883
0.726,0.551,-0.427,3.42,0.37,-2.11,1784844314580.972
0.73,0.552,-0.438,4.64,0.76,-2.11,1784844314586.6409
0.73,0.552,-0.438,5.55,0.82,-2.59,1784844314596.969
0.728,0.553,-0.446,4.85,0.49,-3.27,1784844314607.117
