ax,ay,az,gx,gy,gz,timestamp_ms
0.722,0.648,-0.308,-2.08,8.45,-69.34,1784844323267.612
0.748,0.684,-0.288,-9.64,5.25,-66.19,1784844323268.252
0.739,0.64,-0.311,-13.82,1.8,-61.8,1784844323268.929
0.746,0.632,-0.268,-15.5,-0.73,-57.77,1784844323269.555
0.772,0.645,-0.282,-9.09,-5.68,-50.36,1784844323270.062
0.783,0.621,-0.308,2.14,-8.18,-41.54,1784844323270.584
0.767,0.637,-0.319,10.53,-10.35,-35.74,1784844323271.133
0.755,0.665,-0.355,16.63,-12.36,-28.69,1784844323271.861
0.751,0.643,-0.374,20.69,-12.91,-21.82,1784844323272.83
0.754,0.64,-0.395,20.54,-14.56,-18.01,1784844323273.6143
0.762,0.623,-0.424,18.59,-15.14,-13.43,1784844323274.2012
0.767,0.6,-0.444,14.65,-14.95,-8.55,1784844323274.7751
0.767,0.578,-0.455,9.34,-14.01,-3.85,1784844323275.33
0.763,0.531,-0.464,5.34,-12.94,-0.15,1784844323275.894
0.76,0.488,-0.479,1.71,-11.93,1.83,1784844323276.4558
0.767,0.453,-0.486,-2.56,-10.77,4.03,1784844323277.02
0.78,0.408,-0.487,-5.8,-9.7,5.4,1784844323277.573
0.791,0.368,-0.481,-5.4,-8.7,4.61,1784844323278.1328
0.799,0.35,-0.474,-0.55,-8.12,3.08,1784844323278.95
0.799,0.362,-0.473,5.58,-7.35,2.69,1784844323279.8003
0.794,0.398,-0.466,9.55,-6.26,3.69,1784844323280.3618
0.785,0.429,-0.49,10.04,-5.4,5.28,1784844323280.928
0.772,0.449,-0.509,7.51,-4.58,6.41,1784844323281.483
0.758,0.434,-0.506,4.85,-4.15,6.13,1784844323282.033
0.759,0.424,-0.491,2.29,-4.88,4.3,1784844323282.5889
0.776,0.438,-0.487,1.86,-5.55,4.91,1784844323283.1318
0.789,0.428,-0.485,4.27,-5.22,7.39,1784844323283.5981
0.788,0.43,-0.494,5.19,-5.22,8.03,1784844323284.051
0.775,0.449,-0.495,3.23,-5.34,8.55,1784844323284.508
0.771,0.445,-0.498,0.34,-5.92,9.77,1784844323284.964
0.779,0.432,-0.503,-2.17,-6.13,10.07,1784844323285.422
0.792,0.395,-0.483,-1.65,-5.92,9.37,1784844323285.9001
0.8,0.369,-0.48,2.2,-6.5,7.97,1784844323286.373
0.804,0.365,-0.482,6.29,-6.5,8.27,1784844323286.847
0.803,0.385,-0.488,9.55,-6.56,9.7,1784844323287.301
0.79,0.407,-0.499,11.54,-6.96,10.16,1784844323287.771
0.78,0.411,-0.518,10.44,-7.57,9.19,1784844323288.238
0.782,0.422,-0.524,5.37,-7.57,8.18,1784844323288.7
0.784,0.404,-0.52,-1.56,-6.81,9.16,1784844323289.175
0.786,0.359,-0.496,-6.78,-6.53,9.03,1784844323289.763
0.798,0.341,-0.487,-7.11,-6.93,7.26,1784844323290.2322
0.808,0.326,-0.493,-3.2,-6.01,5.65,1784844323290.6912
0.808,0.312,-0.5,1.71,-4.76,4.18,1784844323291.1738
0.805,0.333,-0.517,5.65,-3.75,2.93,1784844323291.635
0.802,0.364,-0.537,8.0,-2.47,2.75,1784844323292.101
0.788,0.408,-0.546,6.99,-1.07,2.81,1784844323292.5552
0.772,0.433,-0.552,3.48,-0.31,3.05,1784844323293.025
0.77,0.42,-0.55,-2.14,0.21,3.02,1784844323293.496
0.774,0.396,-0.539,-8.76,0.67,2.87,1784844323293.959
0.776,0.364,-0.512,-12.73,1.37,3.11,1784844323294.436
0.787,0.333,-0.488,-11.11,1.34,2.59,1784844323294.8853
0.8,0.322,-0.486,-5.68,0.55,1.5,1784844323295.312
0.796,0.335,-0.497,-0.37,-0.03,0.37,1784844323295.714
0.784,0.353,-0.518,1.77,-0.52,-0.67,1784844323296.132
0.769,0.371,-0.536,1.16,-1.04,-1.13,1784844323296.5278
0.766,0.39,-0.543,-0.82,-1.5,-0.79,1784844323296.9238
0.769,0.401,-0.543,-3.05,-1.46,0.18,1784844323297.311
0.768,0.399,-0.532,-5.43,-1.4,0.58,1784844323297.7031
0.772,0.402,-0.521,-7.97,-1.74,0.7,1784844323298.0962
0.776,0.399,-0.503,-9.77,-1.65,1.25,1784844323298.483
0.776,0.388,-0.503,-9.95,-1.77,1.68,1784844323298.874
0.776,0.386,-0.513,-9.16,-1.77,1.8,1784844323299.265
0.777,0.396,-0.519,-8.64,-1.46,2.23,1784844323299.6611
0.768,0.39,-0.516,-9.67,-0.98,3.08,1784844323300.0488
0.762,0.364,-0.503,-11.63,-0.61,2.96,1784844323300.451
0.768,0.343,-0.484,-12.18,-0.4,2.75,1784844323300.873
0.779,0.325,-0.465,-9.43,-0.21,3.23,1784844323301.2668
0.779,0.325,-0.465,-4.79,-0.18,3.11,1784844323301.6619
0.785,0.321,-0.467,-0.27,-0.4,2.32,1784844323302.056
0.782,0.339,-0.469,2.59,-1.04,1.68,1784844323302.449
0.776,0.371,-0.484,2.17,-1.19,1.1,1784844323302.837
0.769,0.386,-0.506,-1.59,-0.58,0.4,1784844323303.23
0.763,0.385,-0.509,-1.59,-0.58,0.4,1784844323303.623
0.766,0.384,-0.501,-5.8,-0.64,0.7,1784844323304.011
0.777,0.37,-0.502,-7.17,-0.52,1.8,1784844323304.401
0.786,0.358,-0.494,-5.92,0.27,1.77,1784844323304.7712
0.784,0.357,-0.488,-3.42,0.4,0.61,1784844323305.112
0.784,0.371,-0.491,-1.04,0.7,0.24,1784844323305.45
0.781,0.382,-0.503,0.0,1.43,1.04,1784844323305.8062
0.77,0.386,-0.517,-0.82,2.29,1.8,1784844323306.159
0.765,0.383,-0.527,-1.83,2.93,2.01,1784844323306.4958
0.77,0.37,-0.526,-2.32,3.42,1.98,1784844323306.84
0.777,0.367,-0.512,-3.08,3.48,1.77,1784844323307.19
0.78,0.361,-0.498,-3.72,3.66,1.68,1784844323307.544
0.781,0.352,-0.486,-3.2,3.6,0.95,1784844323307.883
0.784,0.35,-0.474,-1.22,3.3,0.09,1784844323308.232
0.787,0.35,-0.469,1.1,2.56,-0.31,1784844323308.5881
0.783,0.364,-0.486,2.75,2.26,-0.52,1784844323308.928
0.776,0.373,-0.503,2.78,2.69,-0.15,1784844323309.2659
0.769,0.375,-0.504,1.43,2.66,0.12,1784844323309.6143
0.77,0.383,-0.505,-0.49,2.38,0.37,1784844323309.957
0.767,0.387,-0.493,-1.98,2.5,0.89,1784844323310.293
0.763,0.382,-0.476,-2.32,1.95,1.22,1784844323310.652
0.765,0.376,-0.473,-1.34,0.76,1.04,1784844323311.014
0.766,0.37,-0.483,0.31,0.15,0.85,1784844323311.3652
0.77,0.375,-0.491,1.53,0.0,1.43,1784844323311.705
0.77,0.379,-0.495,2.35,-0.21,2.44,1784844323312.0461
0.768,0.379,-0.505,2.72,-0.31,3.05,1784844323312.392
0.77,0.38,-0.513,2.2,-0.03,3.23,1784844323312.733
0.775,0.387,-0.505,0.89,0.21,4.0,1784844323313.079
0.778,0.386,-0.5,-0.98,0.37,5.1,1784844323313.4202
0.776,0.368,-0.497,-2.47,0.76,5.49,1784844323313.761
0.781,0.352,-0.493,-2.56,0.58,4.97,1784844323314.1
0.789,0.351,-0.492,-1.8,0.06,4.94,1784844323314.41
0.794,0.349,-0.497,-0.76,-0.03,5.28,1784844323314.71
0.79,0.354,-0.492,-0.18,0.15,4.76,1784844323315.006
0.789,0.358,-0.492,0.43,0.03,4.12,1784844323315.309
0.79,0.358,-0.499,1.16,-0.24,4.0,1784844323315.6108
0.789,0.362,-0.497,0.98,-0.12,4.18,1784844323315.9092
0.785,0.368,-0.495,0.73,-0.31,4.49,1784844323316.213
0.779,0.375,-0.494,0.79,-0.79,4.36,1784844323316.516
0.774,0.382,-0.489,0.21,-1.74,4.03,1784844323316.818
0.774,0.376,-0.487,-0.58,-2.62,3.91,1784844323317.1147
0.776,0.366,-0.484,-0.85,-2.96,3.97,1784844323317.416
0.773,0.361,-0.478,0.09,-3.02,4.39,1784844323317.7158
0.771,0.365,-0.478,2.32,-3.11,5.31,1784844323318.014
0.767,0.37,-0.474,4.61,-3.33,6.5,1784844323318.315
0.762,0.376,-0.47,5.92,-3.6,7.48,1784844323318.6182
0.754,0.368,-0.462,5.95,-3.63,8.36,1784844323318.919
0.747,0.367,-0.446,5.68,-4.09,9.43,1784844323319.216
0.738,0.366,-0.432,6.5,-4.85,11.29,1784844323319.5232
0.722,0.354,-0.402,8.79,-5.83,13.03,1784844323319.829
0.702,0.342,-0.343,12.27,-7.57,13.89,1784844323320.1333
0.681,0.332,-0.282,18.22,-10.19,15.69,1784844323320.4429
0.66,0.325,-0.217,27.5,-13.67,19.41,1784844323320.7568
0.633,0.318,-0.142,39.61,-17.76,24.6,1784844323321.0671
0.599,0.311,-0.067,54.57,-23.47,31.1,1784844323321.3718
0.552,0.291,-0.024,71.11,-30.58,38.73,1784844323321.6902
0.496,0.266,0.031,87.59,-38.06,47.21,1784844323322.031
0.437,0.24,0.077,105.17,-47.64,57.28,1784844323322.3513
0.381,0.214,0.077,123.51,-58.38,69.73,1784844323322.664
0.338,0.185,0.067,141.79,-68.45,83.56,1784844323322.9849
0.305,0.163,0.065,158.79,-78.49,97.93,1784844323323.3
0.271,0.145,-0.01,174.84,-88.81,112.37,1784844323323.618
0.248,0.128,-0.102,188.12,-95.77,126.13,1784844323323.9338
0.227,0.093,-0.138,198.1,-101.32,139.65,1784844323324.2559
0.216,0.012,-0.17,205.24,-105.32,151.16,1784844323324.6028
0.212,-0.075,-0.164,207.92,-107.7,158.48,1784844323324.9421
0.213,-0.162,-0.138,209.75,-111.94,168.1,1784844323325.265
0.224,-0.274,-0.124,214.85,-117.19,180.64,1784844323325.591
0.233,-0.386,-0.133,223.94,-121.01,191.11,1784844323325.913
0.235,-0.471,-0.159,237.62,-122.93,197.79,1784844323326.238
0.224,-0.525,-0.201,255.87,-125.71,202.86,1784844323326.557
0.193,-0.529,-0.239,275.25,-127.32,208.87,1784844323326.8809
0.168,-0.504,-0.423,295.88,-127.32,216.04,1784844323327.208
0.136,-0.517,-0.752,308.18,-123.42,227.85,1784844323327.5298
0.108,-0.479,-0.875,294.81,-108.55,242.62,1784844323327.8499
0.093,-0.409,-0.767,267.4,-93.02,252.85,1784844323328.174
0.086,-0.375,-0.652,239.94,-88.2,258.52,1784844323328.5
0.047,-0.446,-0.559,211.55,-89.08,267.04,1784844323328.8179
0.018,-0.552,-0.418,187.02,-87.16,271.28,1784844323329.133
-0.002,-0.657,-0.26,173.99,-90.24,272.84,1784844323329.4612
-0.065,-0.763,-0.178,179.27,-100.44,277.23,1784844323329.7842
-0.164,-0.891,-0.211,202.73,-111.21,284.89,1784844323330.107
-0.252,-1.008,-0.351,232.31,-116.09,291.7,1784844323330.424
-0.327,-1.029,-0.71,256.94,-114.78,295.08,1784844323330.7468
-0.386,-1.074,-0.964,261.76,-100.38,308.08,1784844323331.067
-0.449,-1.061,-0.918,226.02,-85.76,317.24,1784844323331.3843
-0.502,-1.074,-0.852,170.69,-84.35,320.11,1784844323331.697
-0.538,-1.135,-0.797,107.64,-87.41,317.64,1784844323332.0178
-0.52,-1.149,-0.626,48.4,-85.91,308.91,1784844323332.332
-0.475,-1.137,-0.437,15.93,-86.4,297.16,1784844323332.65
-0.465,-1.162,-0.308,16.36,-91.25,285.44,1784844323332.9612
-0.487,-1.244,-0.223,37.08,-97.72,276.59,1784844323333.282
-0.563,-1.292,-0.187,68.42,-103.31,266.67,1784844323333.601
-0.707,-1.373,-0.174,105.2,-107.73,262.31,1784844323333.923
-0.847,-1.369,-0.328,126.29,-116.98,258.43,1784844323334.241
-0.948,-1.313,-0.532,132.48,-112.13,257.39,1784844323334.567
-1.018,-1.244,-0.64,118.75,-97.66,257.09,1784844323334.938
-1.079,-1.16,-0.716,81.12,-89.48,257.39,1784844323335.252
-1.131,-1.067,-0.676,-25.54,-82.92,263.34,1784844323335.8772
-1.123,-1.089,-0.593,-71.66,-84.08,262.58,1784844323336.197
-0.841,-0.439,-0.262,-11.38,-8.06,-1.37,1784844323336.723
-0.845,-0.446,-0.258,-12.6,-8.51,-1.83,1784844323337.0293
-0.853,-0.451,-0.255,-12.91,-8.09,-1.98,1784844323337.333
-0.855,-0.454,-0.25,-11.87,-7.02,-1.74,1784844323337.6372
-0.853,-0.456,-0.243,-9.52,-5.89,-0.98,1784844323337.939
-0.847,-0.456,-0.241,-6.26,-4.67,-0.34,1784844323350.877
-0.843,-0.453,-0.24,-3.14,-3.54,0.0,1784844323356.3142
-0.843,-0.448,-0.244,-0.85,-2.56,0.15,1784844323366.478
-0.841,-0.443,-0.25,0.7,-2.01,-0.09,1784844323376.796
-0.845,-0.436,-0.249,1.1,-2.08,-0.89,1784844323387.166
-0.848,-0.428,-0.25,0.37,-2.26,-1.56,1784844323397.5999
-0.851,-0.429,-0.25,-1.1,-2.23,-2.11,1784844323410.879
-0.854,-0.437,-0.25,-2.72,-2.26,-2.47,1784844323416.481
-0.856,-0.442,-0.244,-4.0,-2.17,-2.62,1784844323426.561
-0.854,-0.444,-0.243,-4.36,-1.98,-2.5,1784844323437.0151
-0.848,-0.446,-0.244,-3.81,-1.74,-2.38,1784844323447.362
-0.842,-0.446,-0.244,-3.36,-1.68,-2.56,1784844323457.7688
-0.84,-0.435,-0.244,-3.39,-1.89,-2.69,1784844323471.169
-0.835,-0.43,-0.241,-3.39,-2.32,-2.78,1784844323476.605
-0.831,-0.429,-0.24,-3.54,-2.96,-3.14,1784844323486.743
-0.836,-0.423,-0.244,-4.58,-3.51,-3.94,1784844323497.1453
-0.833,-0.42,-0.256,-6.41,-4.03,-4.21,1784844323507.6008
-0.83,-0.424,-0.269,-8.85,-4.46,-4.64,1784844323518.019
-0.832,-0.434,-0.286,-11.63,-5.01,-5.22,1784844323531.377
-0.833,-0.44,-0.3,-14.8,-4.58,-5.49,1784844323537.152
-0.829,-0.446,-0.306,-17.24,-3.66,-5.31,1784844323547.2908
-0.831,-0.455,-0.312,-17.4,-2.99,-5.28,1784844323557.697
-0.838,-0.462,-0.314,-16.14,-1.98,-4.58,1784844323568.254
-0.842,-0.46,-0.309,-14.62,-1.04,-3.08,1784844323581.388
-0.836,-0.458,-0.311,-13.64,-0.09,-1.28,1784844323587.236
-0.829,-0.46,-0.315,-13.61,1.04,0.12,1784844323597.275
-0.827,-0.466,-0.316,-14.5,2.08,0.98,1784844323607.786
-0.836,-0.462,-0.321,-16.39,2.72,1.4,1784844323621.196
-0.842,-0.452,-0.318,-18.71,3.14,1.83,1784844323626.941
-0.836,-0.449,-0.312,-20.81,3.36,2.23,1784844323636.908
-0.836,-0.449,-0.312,-22.92,3.72,1.71,1784844323647.43
-0.816,-0.458,-0.328,-26.28,5.25,0.61,1784844323657.956
-0.811,-0.467,-0.363,-29.66,7.29,-0.73,1784844323671.2708
-0.818,-0.477,-0.381,-31.13,8.88,-2.78,1784844323676.974
-0.812,-0.494,-0.388,-31.13,8.88,-2.78,1784844323687.208
-0.797,-0.5,-0.407,-30.92,10.38,-5.01,1784844323697.554
-0.774,-0.498,-0.471,-30.21,11.87,-6.38,1784844323711.118
-0.768,-0.493,-0.584,-30.52,14.44,-7.78,1784844323717.2139
-0.794,-0.478,-0.672,-31.95,19.38,-9.34,1784844323727.0342
-0.819,-0.468,-0.65,-30.98,24.54,-10.86,1784844323737.7678
-0.782,-0.48,-0.619,-24.14,28.11,-13.0,1784844323751.273
-0.744,-0.5,-0.613,-13.18,34.36,-15.9,1784844323756.9148
-0.746,-0.534,-0.608,1.04,42.12,-18.07,1784844323767.315
-0.748,-0.589,-0.661,16.21,47.09,-20.17,1784844323777.927
-0.759,-0.63,-0.746,25.09,51.21,-22.25,1784844323791.168
-0.783,-0.636,-0.856,25.06,56.76,-22.68,1784844323796.817
-0.819,-0.608,-0.914,15.84,64.06,-21.24,1784844323807.648
-0.843,-0.577,-0.901,1.34,70.31,-18.22,1784844323820.9011
-0.843,-0.555,-0.843,-15.75,75.75,-15.35,1784844323826.658
-0.822,-0.548,-0.782,-31.43,81.51,-13.34,1784844323837.321
-0.802,-0.562,-0.734,-42.24,87.68,-11.93,1784844323848.027
-0.8,-0.584,-0.704,-45.56,94.0,-10.86,1784844323861.1882
-0.813,-0.61,-0.714,-39.98,99.98,-9.86,1784844323866.9187
-0.833,-0.633,-0.734,-27.41,105.9,-10.01,1784844323877.4941
-0.865,-0.643,-0.76,-11.9,110.78,-13.0,1784844323890.857
-0.899,-0.638,-0.75,2.41,115.05,-16.36,1784844323896.8862
-0.899,-0.646,-0.742,12.02,118.53,-19.44,1784844323907.5488
-0.887,-0.64,-0.742,14.83,122.71,-22.64,1784844323920.8489
-0.891,-0.61,-0.723,15.05,127.81,-23.8,1784844323926.676
-0.894,-0.589,-0.688,17.4,132.27,-21.88,1784844323937.479
-0.875,-0.598,-0.706,21.33,134.83,-19.75,1784844323950.773
-0.849,-0.615,-0.735,24.54,137.15,-21.58,1784844323956.633
-0.845,-0.639,-0.74,28.26,138.68,-26.43,1784844323967.3103
-0.852,-0.654,-0.741,30.85,139.96,-32.44,1784844323980.713
-0.857,-0.644,-0.702,33.54,141.7,-38.03,1784844323986.424
-0.851,-0.62,-0.664,37.39,142.09,-41.66,1784844323997.428
-0.828,-0.603,-0.648,41.38,142.06,-43.52,1784844324010.772
-0.798,-0.597,-0.627,45.38,142.0,-44.77,1784844324017.566
-0.767,-0.588,-0.628,46.78,141.27,-45.56,1784844324027.4902
-0.738,-0.577,-0.683,45.5,140.08,-47.79,1784844324038.2102
-0.73,-0.572,-0.721,41.2,140.23,-51.18,1784844324051.411
-0.719,-0.566,-0.701,36.62,139.1,-53.93,1784844324057.0
-0.745,-0.609,-0.761,33.11,135.04,-54.02,1784844324068.1228
-0.73,-0.595,-0.689,31.65,137.18,-60.37,1784844324081.325
-0.712,-0.56,-0.666,30.73,133.27,-64.24,1784844324087.3599
-0.655,-0.504,-0.697,26.58,130.04,-63.17,1784844324099.534
-0.613,-0.417,-0.642,21.12,128.82,-59.54,1784844324111.202
-0.579,-0.367,-0.61,16.6,126.8,-52.31,1784844324116.956
-0.502,-0.355,-0.728,6.47,123.81,-45.84,1784844324128.084
-0.482,-0.458,-0.925,-10.44,122.84,-39.28,1784844324141.21
-0.527,-0.589,-0.906,-19.84,133.85,-49.44,1784844324146.986
-0.545,-0.674,-0.8,-18.34,134.68,-61.01,1784844324157.946
-0.55,-0.675,-0.764,-16.94,128.51,-62.93,1784844324171.186
-0.505,-0.597,-0.73,-21.49,122.99,-57.53,1784844324176.924
-0.441,-0.514,-0.706,-24.9,116.86,-48.25,1784844324187.9292
-0.398,-0.504,-0.717,-27.86,109.71,-30.73,1784844324201.1973
-0.398,-0.576,-0.732,-25.82,107.73,-22.13,1784844324207.011
-0.375,-0.583,-0.651,-17.88,108.28,-31.83,1784844324217.924
-0.345,-0.582,-0.663,-6.62,104.16,-38.73,1784844324230.905
-0.301,-0.568,-0.65,1.89,103.0,-38.3,1784844324236.9338
-0.279,-0.557,-0.652,4.0,98.91,-30.34,1784844324247.36
-0.305,-0.577,-0.688,5.83,96.16,-26.67,1784844324258.137
-0.295,-0.536,-0.635,8.85,94.39,-33.45,1784844324271.4282
-0.268,-0.524,-0.654,9.8,89.24,-33.17,1784844324277.3499
-0.229,-0.514,-0.648,7.48,87.07,-29.76,1784844324287.523
-0.217,-0.501,-0.614,3.36,84.96,-26.15,1784844324297.844
-0.198,-0.497,-0.605,-0.61,82.0,-23.93,1784844324311.2222
-0.173,-0.509,-0.593,-1.95,79.35,-23.26,1784844324317.098
-0.15,-0.523,-0.587,-2.41,76.17,-22.61,1784844324327.286
-0.132,-0.532,-0.631,-3.54,72.66,-22.03,1784844324337.968
-0.126,-0.54,-0.652,-3.81,70.99,-20.94,1784844324351.436
-0.124,-0.546,-0.626,-4.3,69.34,-18.83,1784844324357.409
-0.084,-0.537,-0.598,-6.35,66.26,-13.55,1784844324367.626
-0.081,-0.617,-0.599,-5.22,64.09,-7.97,1784844324377.9998
-0.047,-0.578,-0.56,1.98,63.39,-17.46,1784844324391.2341
-0.04,-0.575,-0.613,8.55,59.54,-19.78,1784844324396.7622
-0.026,-0.561,-0.626,11.93,58.32,-18.71,1784844324407.642
-0.017,-0.542,-0.649,12.6,56.79,-17.73,1784844324418.263
-0.008,-0.537,-0.636,9.98,56.03,-17.52,1784844324431.488
0.009,-0.542,-0.623,7.97,54.08,-17.82,1784844324437.678
0.032,-0.545,-0.619,6.44,52.19,-17.7,1784844324447.625
0.056,-0.565,-0.63,4.03,49.2,-13.82,1784844324458.271
0.051,-0.588,-0.659,4.58,47.43,-14.13,1784844324471.3699
0.046,-0.569,-0.66,5.71,45.5,-22.0,1784844324477.5
0.04,-0.574,-0.668,3.17,43.7,-24.08,1784844324487.8171
0.06,-0.58,-0.641,1.1,43.09,-24.72,1784844324498.2568
0.093,-0.574,-0.616,1.83,41.26,-26.0,1784844324511.522
0.125,-0.574,-0.632,4.27,39.28,-27.34,1784844324517.164
0.146,-0.549,-0.642,5.52,38.18,-28.84,1784844324527.421
0.156,-0.544,-0.669,4.09,35.37,-24.32,1784844324538.09
0.125,-0.56,-0.699,2.78,34.97,-23.13,1784844324551.6218
0.117,-0.551,-0.68,0.46,34.27,-28.02,1784844324557.4348
0.124,-0.55,-0.634,-3.2,32.2,-26.43,1784844324567.767
0.139,-0.566,-0.597,-3.08,30.18,-24.17,1784844324578.273
0.167,-0.566,-0.568,0.09,27.31,-25.24,1784844324591.5342
0.207,-0.565,-0.594,5.8,23.65,-26.73,1784844324597.3389
0.214,-0.548,-0.621,8.85,20.66,-28.17,1784844324607.677
0.197,-0.5,-0.668,5.62,17.27,-28.14,1784844324618.252
0.177,-0.471,-0.693,-3.36,14.74,-25.54,1784844324631.515
0.173,-0.487,-0.678,-14.59,12.76,-22.95,1784844324637.3708
0.194,-0.532,-0.649,-22.1,11.29,-21.55,1784844324647.843
0.229,-0.576,-0.631,-22.16,10.53,-21.39,1784844324661.3901
0.264,-0.582,-0.615,-16.39,9.64,-21.94,1784844324666.978
0.282,-0.566,-0.661,-8.82,7.57,-21.91,1784844324677.126
0.266,-0.545,-0.709,-4.91,6.99,-21.33,1784844324687.707
0.243,-0.528,-0.719,-4.49,6.99,-20.02,1784844324698.136
0.242,-0.539,-0.719,-5.1,7.05,-17.98,1784844324711.6301
0.26,-0.554,-0.717,-5.07,7.05,-16.48,1784844324717.48
0.286,-0.554,-0.734,-3.75,6.59,-15.66,1784844324727.227
0.294,-0.564,-0.745,-2.23,6.74,-15.44,1784844324737.684
0.286,-0.567,-0.748,-2.69,6.9,-16.11,1784844324751.47
0.282,-0.571,-0.752,-3.85,7.02,-16.33,1784844324759.1948
0.281,-0.591,-0.745,-3.36,7.75,-16.36,1784844324770.7898
0.28,-0.592,-0.72,-0.98,8.33,-16.94,1784844324777.444
0.279,-0.576,-0.719,3.17,8.15,-16.79,1784844324787.6558
0.283,-0.567,-0.731,6.74,8.12,-16.45,1784844324801.2932
0.296,-0.557,-0.743,8.24,8.24,-16.75,1784844324807.115
0.314,-0.561,-0.772,7.78,7.84,-17.43,1784844324817.127
0.315,-0.573,-0.79,5.16,8.67,-18.28,1784844324827.6392
0.3,-0.567,-0.778,1.77,9.7,-18.86,1784844324838.0688
0.294,-0.565,-0.77,-0.27,9.77,-18.86,1784844324851.6082
0.297,-0.579,-0.773,-1.1,10.07,-19.07,1784844324857.198
0.302,-0.591,-0.792,-1.19,11.23,-19.75,1784844324867.497
0.304,-0.606,-0.793,0.0,13.58,-20.39,1784844324877.9521
0.311,-0.622,-0.798,2.75,15.84,-21.97,1784844324891.3523
0.32,-0.63,-0.804,6.23,18.59,-24.32,1784844324896.965
0.328,-0.625,-0.8,9.86,21.3,-26.49,1784844324907.4812
0.327,-0.629,-0.818,14.34,23.38,-28.23,1784844324918.182
0.327,-0.635,-0.819,17.82,26.22,-30.61,1784844324931.3608
0.327,-0.635,-0.819,19.87,28.32,-33.17,1784844324937.412
0.333,-0.633,-0.826,21.27,31.01,-35.74,1784844324947.8452
0.34,-0.641,-0.827,22.98,33.6,-39.77,1784844324961.149
0.34,-0.648,-0.805,25.48,35.07,-43.76,1784844324966.929
0.349,-0.646,-0.807,25.48,35.07,-43.76,1784844324977.554
0.348,-0.664,-0.816,27.5,37.2,-48.01,1784844324988.05
0.348,-0.688,-0.787,30.7,39.52,-53.16,1784844325001.2642
0.36,-0.684,-0.764,36.32,40.01,-58.23,1784844325006.936
0.377,-0.662,-0.74,44.16,39.89,-62.44,1784844325017.654
0.401,-0.637,-0.763,49.56,39.03,-66.5,1784844325030.821
0.412,-0.625,-0.85,47.03,39.28,-70.13,1784844325036.5388
0.382,-0.655,-0.888,35.68,42.7,-74.16,1784844325047.279
0.352,-0.713,-0.873,22.28,46.21,-80.02,1784844325057.9321
0.354,-0.775,-0.825,14.19,48.68,-86.28,1784844325071.1702
0.373,-0.802,-0.763,12.24,50.45,-92.47,1784844325076.8882
0.381,-0.803,-0.729,14.01,51.21,-98.79,1784844325087.616
0.365,-0.8,-0.707,15.99,51.33,-105.75,1784844325100.981
0.364,-0.766,-0.683,15.32,49.62,-113.56,1784844325106.73
0.396,-0.708,-0.684,12.97,46.11,-119.63,1784844325117.7542
0.415,-0.675,-0.701,8.3,43.31,-123.63,1784844325130.924
0.402,-0.649,-0.696,0.0,41.72,-128.03,1784844325136.7869
0.379,-0.623,-0.686,-8.94,40.07,-131.5,1784844325147.4219
0.381,-0.604,-0.613,-15.81,39.31,-133.4,1784844325160.7
0.435,-0.567,-0.559,-19.32,35.46,-134.68,1784844325166.5498
0.5,-0.542,-0.582,-20.72,31.53,-134.65,1784844325177.5452
0.516,-0.548,-0.583,-21.27,30.64,-136.48,1784844325190.917
0.513,-0.544,-0.587,-20.66,29.24,-140.75,1784844325196.7039
0.539,-0.506,-0.603,-19.26,27.13,-142.86,1784844325207.551
0.569,-0.485,-0.611,-15.17,26.37,-143.01,1784844325218.312
0.588,-0.477,-0.636,-9.98,26.12,-144.35,1784844325231.499
0.594,-0.441,-0.658,-7.9,26.95,-145.45,1784844325237.1973
0.605,-0.38,-0.647,-9.61,28.23,-144.44,1784844325252.436
0.638,-0.301,-0.648,-13.06,27.95,-142.52,1784844325261.1848
0.672,-0.235,-0.678,-18.25,27.83,-139.41,1784844325267.0332
0.688,-0.232,-0.678,-24.2,30.34,-137.58,1784844325277.642
0.708,-0.243,-0.633,-30.21,32.07,-138.89,1784844325291.038
0.713,-0.283,-0.616,-32.78,33.11,-141.03,1784844325296.974
0.707,-0.311,-0.581,-31.28,35.37,-143.41,1784844325307.8542
0.702,-0.299,-0.563,-24.72,35.65,-144.87,1784844325321.2622
0.707,-0.258,-0.562,-14.5,35.28,-144.72,1784844325327.288
0.713,-0.214,-0.571,-3.69,35.1,-143.56,1784844325338.187
0.713,-0.175,-0.619,2.59,34.64,-142.19,1784844325351.0708
0.714,-0.128,-0.626,1.22,35.8,-141.7,1784844325357.124
0.743,-0.04,-0.599,-5.43,35.89,-141.03,1784844325367.477
0.765,0.032,-0.621,-10.74,35.46,-138.31,1784844325378.203
0.757,0.076,-0.584,-14.04,38.03,-135.78,1784844325391.613
0.771,0.12,-0.553,-17.3,37.81,-132.42,1784844325397.2039
0.771,0.138,-0.547,-20.39,36.96,-133.09,1784844325408.3928
0.766,0.157,-0.524,-26.58,36.77,-133.88,1784844325421.4348
0.774,0.195,-0.502,-34.76,36.23,-131.63,1784844325427.335
0.786,0.188,-0.5,-39.74,36.07,-129.12,1784844325438.101
0.802,0.187,-0.478,-45.35,36.56,-128.42,1784844325451.4739
0.813,0.228,-0.455,-52.64,35.95,-126.32,1784844325457.349
0.812,0.241,-0.437,-54.05,36.59,-121.92,1784844325468.44
0.815,0.253,-0.378,-48.22,37.26,-118.87,1784844325481.2778
0.811,0.272,-0.358,-36.99,35.52,-117.56,1784844325487.539
0.802,0.263,-0.348,-23.26,35.0,-116.55,1784844325498.0017
0.806,0.287,-0.307,-11.14,33.97,-115.79,1784844325511.348
0.799,0.349,-0.335,-1.56,30.64,-113.01,1784844325517.3818
0.782,0.404,-0.365,4.06,30.03,-109.13,1784844325527.847
0.757,0.458,-0.353,4.24,29.54,-106.97,1784844325541.098
0.733,0.479,-0.34,0.37,27.1,-104.71,1784844325546.905
0.73,0.507,-0.321,-8.39,23.35,-101.5,1784844325557.5303
0.732,0.51,-0.339,-19.59,19.44,-95.89,1784844325568.328
0.729,0.468,-0.312,-28.72,17.94,-93.2,1784844325581.322
0.721,0.473,-0.255,-33.39,14.4,-93.42,1784844325587.477
0.72,0.463,-0.271,-31.04,9.86,-89.97,1784844325597.6802
0.726,0.431,-0.273,-25.57,7.32,-86.73,1784844325611.1282
0.726,0.449,-0.263,-19.87,4.7,-85.3,1784844325616.956
0.72,0.474,-0.251,-12.63,2.84,-83.07,1784844325627.1929
0.716,0.503,-0.222,-4.52,0.55,-80.08,1784844325637.6938
0.738,0.58,-0.224,3.91,-3.75,-75.41,1784844325648.0452
0.758,0.677,-0.27,12.88,-6.2,-67.29,1784844325661.471
0.73,0.723,-0.304,20.29,-5.22,-58.9,1784844325667.288
0.708,0.748,-0.294,25.48,-5.71,-53.5,1784844325677.598
0.686,0.813,-0.301,30.18,-9.55,-52.1,1784844325688.1978
0.688,0.881,-0.327,34.15,-11.78,-45.11,1784844325701.587
0.709,0.918,-0.39,36.5,-11.84,-33.63,1784844325707.349
0.714,0.928,-0.445,33.39,-10.35,-22.68,1784844325717.818
0.702,0.916,-0.468,23.83,-9.0,-13.76,1784844325731.028
0.686,0.878,-0.475,10.59,-8.24,-6.53,1784844325737.0398
0.689,0.831,-0.471,-2.2,-7.11,1.1,1784844325747.097
0.708,0.747,-0.441,-12.02,-5.62,8.94,1784844325757.608
0.724,0.642,-0.401,-17.06,-5.4,13.52,1784844325768.179
0.735,0.546,-0.374,-17.06,-6.5,15.9,1784844325781.218
0.747,0.471,-0.348,-13.12,-7.75,17.24,1784844325787.084
0.759,0.422,-0.352,-6.44,-9.77,18.04,1784844325797.3276
0.768,0.396,-0.374,-0.55,-11.78,18.04,1784844325808.0088
0.768,0.391,-0.392,3.42,-13.61,17.03,1784844325821.312
0.758,0.388,-0.418,5.13,-15.11,15.35,1784844325827.1501
0.755,0.361,-0.422,4.43,-15.99,12.05,1784844325837.3398
0.769,0.339,-0.42,2.87,-16.85,8.48,1784844325847.816
0.789,0.341,-0.432,3.48,-17.43,6.26,1784844325861.388
0.794,0.366,-0.449,6.04,-17.09,4.91,1784844325867.0132
0.779,0.396,-0.468,7.93,-16.66,2.87,1784844325877.0393
0.759,0.441,-0.501,6.56,-16.63,0.34,1784844325887.636
0.745,0.475,-0.521,1.83,-15.66,-0.7,1784844325897.9521
0.738,0.482,-0.518,-4.18,-14.44,-0.95,1784844325911.427
0.737,0.478,-0.521,-8.88,-13.43,-1.28,1784844325917.086
0.738,0.465,-0.505,-11.05,-11.9,-1.89,1784844325927.308
0.738,0.453,-0.486,-9.37,-10.44,-1.8,1784844325937.7751
0.738,0.457,-0.484,-4.94,-9.03,-0.76,1784844325948.1611
0.735,0.451,-0.476,1.01,-7.17,0.4,1784844325961.464
0.734,0.465,-0.463,7.11,-5.68,0.79,1784844325967.336
0.738,0.504,-0.484,11.35,-4.79,2.56,1784844325977.075
0.731,0.523,-0.51,11.02,-2.84,5.28,1784844325987.7388
0.72,0.529,-0.527,6.81,-0.98,6.93,1784844325997.951
0.719,0.528,-0.531,1.53,0.06,8.24,1784844326011.492
0.724,0.491,-0.515,-2.93,0.55,8.64,1784844326016.843
0.733,0.45,-0.49,-6.01,0.67,7.57,1784844326026.795
0.746,0.416,-0.468,-6.41,0.43,6.9,1784844326037.254
0.757,0.381,-0.454,-3.33,0.49,6.38,1784844326047.6821
0.767,0.357,-0.452,2.2,0.21,5.04,1784844326057.9773
0.77,0.368,-0.463,8.61,-0.15,3.75,1784844326071.3953
0.769,0.39,-0.485,14.16,-0.24,3.2,1784844326076.9138
0.76,0.423,-0.506,16.08,-0.34,2.35,1784844326087.1968
0.75,0.454,-0.521,13.37,-0.76,1.34,1784844326097.478
0.742,0.465,-0.533,7.48,-1.43,0.43,1784844326107.905
0.742,0.453,-0.53,0.76,-2.01,-1.01,1784844326121.216
0.751,0.429,-0.518,-3.54,-2.75,-2.32,1784844326126.7332
0.759,0.402,-0.511,-3.97,-3.3,-3.66,1784844326136.857
0.758,0.39,-0.504,-0.89,-3.42,-5.04,1784844326147.151
0.751,0.4,-0.505,4.39,-3.54,-5.58,1784844326157.58
0.745,0.435,-0.531,9.19,-4.0,-5.49,1784844326168.78
0.732,0.477,-0.555,10.41,-3.97,-4.09,1784844326181.447
0.72,0.499,-0.567,8.36,-3.72,-2.56,1784844326186.899
0.717,0.5,-0.579,3.94,-3.97,-2.53,1784844326197.078
0.717,0.487,-0.569,-0.85,-4.49,-3.33,1784844326207.542
0.721,0.465,-0.55,-4.0,-5.01,-3.81,1784844326217.871
0.721,0.465,-0.55,-4.73,-5.25,-3.36,1784844326231.07
0.726,0.452,-0.536,-2.75,-5.71,-2.08,1784844326236.776
0.734,0.444,-0.532,-0.03,-5.43,-1.1,1784844326246.687
0.738,0.444,-0.533,0.98,-5.13,-0.4,1784844326257.197
0.735,0.456,-0.527,-0.06,-5.34,0.31,1784844326267.6748
