ax,ay,az,gx,gy,gz,timestamp_ms
0.72,0.278,-0.599,5.46,-6.62,12.79,1784844267302.7551
0.735,0.262,-0.565,6.13,-6.41,12.09,1784844267303.561
0.756,0.262,-0.535,9.0,-7.57,12.09,1784844267304.194
0.764,0.264,-0.555,11.6,-9.37,13.09,1784844267304.729
0.745,0.258,-0.6,11.41,-9.92,13.64,1784844267305.305
0.732,0.266,-0.623,8.85,-9.8,13.49,1784844267305.9648
0.735,0.271,-0.637,5.49,-9.74,13.98,1784844267306.4849
0.741,0.261,-0.648,2.08,-8.82,13.92,1784844267306.997
0.744,0.225,-0.643,0.24,-7.29,12.73,1784844267307.5042
0.748,0.205,-0.611,0.58,-5.86,11.02,1784844267308.121
0.76,0.221,-0.604,3.48,-5.22,10.65,1784844267308.436
0.767,0.229,-0.62,8.55,-4.06,11.75,1784844267308.7393
0.759,0.233,-0.625,12.48,-2.66,11.6,1784844267309.0508
0.747,0.248,-0.621,13.76,-2.14,11.02,1784844267309.3618
0.737,0.253,-0.626,13.18,-1.92,10.62,1784844267309.7441
0.736,0.256,-0.615,11.57,-1.34,10.38,1784844267310.067
0.745,0.273,-0.605,10.41,-0.85,11.2,1784844267310.382
0.738,0.284,-0.603,10.1,-0.4,12.85,1784844267310.7
0.724,0.278,-0.595,9.52,-0.12,13.92,1784844267311.006
0.718,0.276,-0.589,8.24,-0.46,14.8,1784844267311.383
0.715,0.282,-0.575,6.32,-0.7,16.63,1784844267311.74
0.706,0.274,-0.544,4.91,-1.19,19.01,1784844267312.054
0.694,0.252,-0.512,5.16,-2.78,20.78,1784844267312.364
0.679,0.211,-0.477,8.36,-4.79,21.91,1784844267312.733
0.675,0.172,-0.421,14.16,-7.32,22.83,1784844267313.059
0.68,0.156,-0.387,22.64,-12.09,24.84,1784844267313.3828
0.688,0.163,-0.407,31.86,-18.25,27.34,1784844267313.7012
0.691,0.191,-0.389,39.19,-24.14,29.27,1784844267314.0217
0.683,0.207,-0.408,42.91,-31.04,30.12,1784844267314.349
0.672,0.212,-0.435,42.94,-36.04,29.88,1784844267315.346
0.662,0.194,-0.432,45.01,-39.19,30.27,1784844267315.693
0.663,0.156,-0.427,51.18,-42.02,31.77,1784844267316.025
0.663,0.112,-0.452,60.27,-45.23,34.27,1784844267316.349
0.66,0.069,-0.485,70.47,-47.43,36.87,1784844267316.7
0.649,0.032,-0.472,80.6,-48.04,38.76,1784844267317.045
0.637,0.006,-0.499,90.85,-50.05,40.04,1784844267317.365
0.63,0.023,-0.683,98.48,-53.35,42.3,1784844267317.6829
0.63,0.082,-0.737,99.8,-50.17,46.39,1784844267318.0007
0.62,0.125,-0.663,98.36,-47.61,50.11,1784844267318.323
0.612,0.123,-0.601,94.88,-49.5,52.52,1784844267318.6401
0.614,0.108,-0.491,90.06,-51.0,54.48,1784844267318.959
0.619,0.094,-0.38,87.1,-54.35,58.11,1784844267319.2861
0.596,0.083,-0.42,87.89,-61.4,63.69,1784844267319.615
0.553,0.103,-0.54,89.82,-64.46,71.47,1784844267320.104
0.526,0.133,-0.641,93.75,-63.6,81.48,1784844267320.6
0.507,0.138,-0.917,96.59,-64.73,90.82,1784844267321.097
0.519,0.092,-1.12,91.68,-57.89,96.77,1784844267321.597
0.524,0.026,-1.07,78.46,-44.92,97.51,1784844267322.0962
0.532,-0.018,-0.991,61.28,-38.06,96.16,1784844267322.759
0.56,-0.077,-0.952,48.95,-34.49,96.56,1784844267323.257
0.571,-0.168,-0.829,42.51,-26.95,97.26,1784844267323.606
0.563,-0.218,-0.669,40.93,-21.06,95.49,1784844267323.932
0.565,-0.229,-0.518,44.89,-23.56,98.45,1784844267324.253
0.518,-0.212,-0.405,57.16,-30.76,107.3,1784844267324.573
0.485,-0.221,-0.334,81.3,-37.23,118.11,1784844267324.893
0.447,-0.292,-0.298,107.85,-44.16,126.35,1784844267325.223
0.394,-0.348,-0.27,123.87,-51.73,129.7,1784844267325.553
0.339,-0.378,-0.3,131.14,-61.74,130.83,1784844267325.8801
0.298,-0.442,-0.362,133.85,-70.83,132.57,1784844267326.21
0.26,-0.485,-0.346,125.77,-78.71,134.4,1784844267326.5422
0.219,-0.46,-0.314,115.05,-89.02,137.55,1784844267326.861
0.202,-0.405,-0.309,113.96,-100.34,143.59,1784844267327.184
0.185,-0.345,-0.267,124.58,-109.84,150.67,1784844267327.5571
0.156,-0.305,-0.224,142.22,-119.88,156.74,1784844267327.8877
0.103,-0.275,-0.211,159.89,-131.84,162.88,1784844267328.211
0.053,-0.303,-0.293,175.27,-142.52,172.22,1784844267328.559
0.015,-0.404,-0.401,181.62,-146.58,180.06,1784844267328.886
-0.044,-0.495,-0.494,174.02,-147.43,178.9,1784844267329.2183
-0.068,-0.534,-0.589,162.02,-147.16,177.53,1784844267329.548
-0.106,-0.639,-0.662,151.01,-148.29,186.5,1784844267329.877
-0.144,-0.761,-0.669,142.19,-142.98,192.57,1784844267330.198
-0.154,-0.81,-0.601,135.32,-136.33,188.02,1784844267330.518
-0.114,-0.754,-0.483,136.45,-130.86,188.67,1784844267330.836
-0.129,-0.643,-0.404,136.2,-131.63,201.18,1784844267331.158
-0.206,-0.45,-0.362,126.13,-135.59,219.98,1784844267331.479
-0.334,-0.316,-0.426,112.46,-143.8,243.96,1784844267331.8022
-0.488,-0.287,-0.526,92.44,-154.33,264.56,1784844267332.116
-0.607,-0.434,-0.584,63.91,-168.22,277.11,1784844267332.438
-0.592,-0.709,-0.66,29.33,-178.35,271.0,1784844267332.76
-0.575,-0.968,-0.643,-3.08,-180.18,248.57,1784844267333.0823
-0.607,-1.227,-0.694,-25.82,-180.97,221.17,1784844267333.395
-0.634,-1.404,-0.698,-38.3,-175.42,196.57,1784844267333.713
-0.751,-1.475,-0.616,-40.07,-175.42,187.69,1784844267334.029
-0.859,-1.356,-0.652,-20.51,-169.87,191.26,1784844267334.347
-0.981,-1.153,-0.696,13.92,-157.54,209.27,1784844267334.661
-1.012,-1.035,-0.802,38.58,-148.78,232.76,1784844267334.979
-1.074,-0.974,-0.888,38.21,-143.1,244.79,1784844267335.298
-1.122,-0.905,-0.894,20.33,-136.66,244.36,1784844267335.6162
-1.142,-0.883,-0.83,2.62,-129.03,237.53,1784844267335.928
-1.153,-0.934,-0.775,-7.23,-122.53,223.91,1784844267336.244
-1.149,-0.975,-0.737,-11.78,-116.15,205.73,1784844267336.561
-1.163,-0.966,-0.678,-9.06,-108.98,188.94,1784844267336.8782
-1.181,-0.947,-0.667,0.73,-104.46,177.62,1784844267337.192
-1.187,-0.918,-0.696,8.3,-100.59,168.03,1784844267337.514
-1.178,-0.882,-0.726,9.37,-94.67,155.06,1784844267337.8591
-1.17,-0.846,-0.748,5.98,-86.49,137.24,1784844267338.182
-1.157,-0.822,-0.739,0.7,-76.6,116.89,1784844267338.4958
-1.125,-0.811,-0.71,-3.81,-66.65,96.68,1784844267338.811
-1.079,-0.796,-0.653,-5.98,-56.73,78.04,1784844267339.124
-1.031,-0.77,-0.591,-4.15,-47.7,61.95,1784844267339.437
-0.987,-0.734,-0.525,2.35,-40.13,47.85,1784844267339.746
-0.949,-0.697,-0.484,11.47,-34.61,34.42,1784844267340.061
-0.918,-0.653,-0.456,20.48,-30.73,21.27,1784844267340.3772
-0.9,-0.612,-0.449,27.77,-27.92,8.7,1784844267340.693
-0.9,-0.612,-0.449,32.93,-25.39,-2.69,1784844267341.002
-0.889,-0.579,-0.444,36.29,-23.04,-11.51,1784844267341.316
-0.873,-0.557,-0.443,37.93,-21.06,-17.49,1784844267341.629
-0.857,-0.545,-0.445,38.12,-18.89,-21.0,1784844267341.9421
-0.841,-0.535,-0.452,38.12,-18.89,-21.0,1784844267342.256
-0.83,-0.521,-0.437,38.3,-16.3,-22.16,1784844267342.5732
-0.814,-0.507,-0.417,39.74,-14.37,-21.27,1784844267342.9119
-0.793,-0.496,-0.404,40.28,-12.33,-19.44,1784844267343.2231
-0.78,-0.485,-0.387,38.76,-10.16,-17.94,1784844267343.5352
-0.772,-0.471,-0.363,34.91,-8.51,-16.72,1784844267343.8489
-0.767,-0.459,-0.34,29.02,-7.57,-15.32,1784844267344.162
-0.765,-0.457,-0.334,20.94,-7.42,-13.89,1784844267344.469
-0.765,-0.444,-0.345,9.06,-6.99,-12.27,1784844267344.779
-0.772,-0.419,-0.353,-4.15,-4.49,-8.94,1784844267345.091
-0.777,-0.422,-0.345,-13.0,-1.31,-5.25,1784844267345.4111
-0.784,-0.442,-0.332,-16.17,-0.09,-3.69,1784844267345.719
-0.789,-0.446,-0.318,-16.97,0.34,-3.05,1784844267346.026
-0.793,-0.442,-0.298,-16.17,1.31,-1.98,1784844267346.335
-0.799,-0.447,-0.28,-13.15,2.17,-0.64,1784844267346.638
-0.808,-0.456,-0.27,-9.16,2.53,0.4,1784844267346.941
-0.82,-0.461,-0.263,-5.49,2.59,1.1,1784844267347.248
-0.83,-0.46,-0.263,-2.72,2.2,1.46,1784844267347.552
-0.831,-0.459,-0.259,-1.13,1.86,1.43,1784844267347.8643
-0.839,-0.454,-0.259,-0.24,1.5,1.01,1784844267348.169
-0.847,-0.451,-0.262,-0.24,1.4,0.49,1784844267348.474
-0.852,-0.45,-0.261,-0.82,1.31,-0.15,1784844267348.776
-0.848,-0.443,-0.255,-1.4,1.01,-0.49,1784844267349.079
-0.842,-0.432,-0.248,-0.98,0.92,-0.31,1784844267349.3828
-0.842,-0.429,-0.245,0.58,0.06,0.34,1784844267349.684
-0.848,-0.43,-0.246,1.22,-0.95,0.61,1784844267349.988
-0.85,-0.433,-0.255,0.18,-2.08,0.12,1784844267350.291
-0.855,-0.425,-0.261,-3.08,-2.53,-0.27,1784844267350.598
-0.853,-0.426,-0.255,-5.89,-2.81,-0.03,1784844267350.898
-0.842,-0.433,-0.259,-7.35,-3.3,-0.43,1784844267351.204
-0.836,-0.434,-0.26,-9.31,-2.9,-0.58,1784844267351.5078
-0.836,-0.442,-0.254,-10.44,-2.44,-0.79,1784844267351.809
-0.839,-0.449,-0.258,-10.25,-2.04,-1.74,1784844267352.119
-0.846,-0.438,-0.255,-10.07,-1.53,-2.23,1784844267352.427
-0.843,-0.416,-0.249,-8.61,-1.16,-1.34,1784844267352.734
-0.832,-0.411,-0.246,-5.01,-1.46,-0.34,1784844267353.0527
-0.834,-0.419,-0.253,-1.98,-2.47,-0.24,1784844267353.3982
-0.843,-0.424,-0.264,-1.92,-3.05,-0.52,1784844267353.7432
-0.851,-0.428,-0.276,-3.33,-2.9,-0.49,1784844267354.0808
-0.852,-0.433,-0.283,-4.67,-2.44,-0.52,1784844267354.515
-0.845,-0.438,-0.286,-5.8,-1.95,-0.64,1784844267354.925
-0.845,-0.44,-0.281,-6.53,-1.19,-0.76,1784844267355.28
-0.845,-0.441,-0.278,-6.35,-1.07,-0.31,1784844267355.621
-0.843,-0.438,-0.268,-5.52,-0.92,0.61,1784844267355.9658
-0.841,-0.435,-0.261,-3.97,-0.89,0.98,1784844267356.308
-0.844,-0.434,-0.265,-2.38,-1.28,1.1,1784844267356.644
-0.846,-0.436,-0.268,-2.04,-1.5,1.22,1784844267356.983
-0.85,-0.436,-0.275,-2.53,-1.74,1.37,1784844267357.3252
-0.851,-0.436,-0.279,-3.6,-1.89,1.62,1784844267357.664
-0.852,-0.438,-0.279,-5.22,-1.71,1.8,1784844267358.055
-0.853,-0.44,-0.277,-6.41,-1.59,1.89,1784844267358.405
-0.85,-0.444,-0.275,-6.9,-1.56,1.43,1784844267358.749
-0.847,-0.445,-0.273,-6.87,-1.46,0.76,1784844267359.087
-0.845,-0.44,-0.272,-6.41,-1.46,0.21,1784844267359.435
-0.846,-0.44,-0.262,-4.97,-1.71,-0.18,1784844267359.78
-0.845,-0.44,-0.262,-2.93,-2.08,-0.82,1784844267360.121
-0.84,-0.436,-0.271,-2.04,-2.11,-1.37,1784844267360.458
-0.84,-0.432,-0.281,-2.26,-1.83,-1.71,1784844267360.802
-0.841,-0.432,-0.288,-2.99,-1.59,-1.83,1784844267361.1519
-0.845,-0.429,-0.293,-4.0,-1.34,-1.65,1784844267361.4888
-0.847,-0.431,-0.29,-4.58,-1.13,-1.43,1784844267361.8281
-0.843,-0.435,-0.278,-4.12,-1.13,-1.56,1784844267362.504
-0.843,-0.434,-0.27,-2.75,-0.92,-1.04,1784844267362.841
-0.846,-0.421,-0.265,-1.07,-0.31,-0.34,1784844267363.6128
-0.845,-0.426,-0.262,-0.76,-0.4,-0.18,1784844267363.9521
-0.845,-0.43,-0.262,-0.18,-0.43,-0.06,1784844267364.289
-0.846,-0.427,-0.262,0.37,-0.27,0.27,1784844267369.515
-0.847,-0.423,-0.26,1.01,-0.09,0.52,1784844267374.9321
-0.846,-0.421,-0.257,1.31,-0.34,0.82,1784844267385.223
-0.845,-0.422,-0.259,1.31,-0.67,1.04,1784844267395.4949
-0.844,-0.42,-0.261,0.82,-0.76,1.04,1784844267405.91
-0.842,-0.419,-0.26,0.0,-1.16,0.92,1784844267416.3242
-0.842,-0.419,-0.261,-0.82,-1.56,0.82,1784844267429.464
-0.839,-0.419,-0.259,-1.43,-2.17,0.7,1784844267434.9702
-0.839,-0.417,-0.254,-1.68,-2.78,0.7,1784844267445.15
-0.839,-0.42,-0.258,-1.8,-3.54,1.13,1784844267455.621
-0.834,-0.431,-0.264,-2.47,-4.18,1.46,1784844267465.993
-0.832,-0.443,-0.263,-3.66,-4.52,1.37,1784844267476.309
-0.83,-0.448,-0.253,-4.43,-5.25,1.31,1784844267489.697
-0.818,-0.459,-0.252,-3.78,-6.35,1.28,1784844267495.036
-0.811,-0.468,-0.26,-3.14,-7.23,0.76,1784844267505.396
-0.808,-0.456,-0.272,-3.6,-8.55,0.09,1784844267515.866
-0.798,-0.445,-0.282,-4.61,-10.86,-0.27,1784844267526.365
-0.776,-0.446,-0.32,-7.23,-13.31,-1.16,1784844267539.592
-0.761,-0.452,-0.37,-13.52,-13.82,-2.62,1784844267545.6208
-0.756,-0.467,-0.43,-23.53,-13.76,-4.76,1784844267555.884
-0.749,-0.478,-0.47,-34.94,-12.91,-7.51,1784844267566.5122
-0.752,-0.463,-0.492,-42.73,-10.53,-8.82,1784844267579.712
-0.76,-0.453,-0.499,-45.72,-7.72,-7.9,1784844267586.2332
-0.748,-0.479,-0.53,-46.51,-4.36,-6.78,1784844267595.6963
-0.73,-0.492,-0.578,-49.44,0.34,-7.2,1784844267606.354
-0.722,-0.469,-0.634,-50.97,7.26,-6.74,1784844267616.7622
-0.731,-0.449,-0.686,-44.34,15.59,-2.93,1784844267629.8262
-0.737,-0.47,-0.722,-31.1,23.5,1.07,1784844267635.8281
-0.741,-0.522,-0.779,-19.47,29.45,1.22,1784844267646.053
-0.745,-0.574,-0.833,-14.19,33.97,-2.41,1784844267656.624
-0.759,-0.626,-0.887,-13.79,38.36,-7.05,1784844267669.832
-0.783,-0.646,-0.923,-16.51,44.62,-10.32,1784844267676.0361
-0.81,-0.606,-0.903,-16.82,51.45,-10.5,1784844267686.4377
-0.805,-0.566,-0.897,-11.26,58.47,-7.84,1784844267696.647
-0.784,-0.559,-0.945,-5.16,67.26,-6.84,1784844267710.1992
-0.777,-0.554,-0.968,-5.37,77.61,-7.87,1784844267715.5552
-0.792,-0.585,-1.001,-10.77,85.79,-8.33,1784844267725.8188
-0.824,-0.651,-1.027,-18.04,95.74,-12.02,1784844267736.64
-0.847,-0.691,-0.959,-25.82,104.13,-19.14,1784844267749.887
-0.864,-0.699,-0.936,-30.15,108.86,-25.24,1784844267755.8882
-0.87,-0.664,-0.9,-31.07,115.18,-28.05,1784844267766.6821
-0.872,-0.609,-0.888,-29.39,120.94,-27.19,1784844267780.0242
-0.881,-0.564,-0.874,-25.54,126.16,-24.87,1784844267785.8838
-0.902,-0.547,-0.812,-19.07,130.31,-23.07,1784844267796.504
-0.923,-0.559,-0.742,-12.73,132.27,-22.71,1784844267809.814
-0.92,-0.561,-0.673,-7.69,132.33,-23.44,1784844267815.5361
-0.917,-0.576,-0.653,-4.7,127.66,-18.86,1784844267826.416
-0.925,-0.592,-0.647,-1.83,128.57,-20.39,1784844267839.747
-0.909,-0.549,-0.643,1.13,126.59,-28.99,1784844267845.642
-0.927,-0.498,-0.697,1.22,122.32,-33.54,1784844267856.194
-0.946,-0.462,-0.696,-3.39,121.56,-34.3,1784844267866.6758
-0.946,-0.454,-0.697,-11.02,120.64,-35.52,1784844267880.4788
-0.923,-0.458,-0.68,-19.35,120.12,-37.39,1784844267885.8992
-0.885,-0.459,-0.653,-24.87,120.37,-37.08,1784844267896.5928
-0.836,-0.453,-0.655,-23.93,121.22,-34.91,1784844267910.1091
-0.79,-0.438,-0.668,-16.14,122.44,-32.01,1784844267915.7979
-0.759,-0.448,-0.726,-6.5,123.33,-30.09,1784844267926.537
-0.752,-0.457,-0.789,-2.56,124.52,-30.98,1784844267939.81
-0.752,-0.444,-0.818,-4.36,126.16,-30.95,1784844267946.63
-0.747,-0.431,-0.835,-9.25,128.12,-28.9,1784844267956.184
-0.751,-0.433,-0.837,-12.36,130.74,-28.05,1784844267969.625
-0.747,-0.455,-0.814,-11.66,134.07,-25.51,1784844267975.387
-0.711,-0.487,-0.791,-8.03,136.27,-21.64,1784844267986.233
-0.681,-0.516,-0.775,-1.43,137.61,-19.56,1784844267996.696
-0.654,-0.524,-0.759,6.62,137.15,-18.07,1784844268010.13
-0.633,-0.532,-0.784,15.02,134.62,-17.33,1784844268016.0962
-0.618,-0.538,-0.83,21.0,132.39,-18.65,1784844268026.69
-0.617,-0.525,-0.855,21.39,131.44,-20.33,1784844268039.815
-0.621,-0.501,-0.856,16.24,131.75,-21.18,1784844268045.849
-0.608,-0.485,-0.792,12.91,131.69,-21.85,1784844268056.749
-0.583,-0.468,-0.742,12.36,127.96,-20.78,1784844268069.886
-0.543,-0.447,-0.767,9.16,123.57,-18.13,1784844268075.8818
-0.543,-0.447,-0.767,2.56,121.52,-16.21,1784844268086.8179
-0.514,-0.447,-0.779,-5.98,119.97,-14.8,1784844268099.724
-0.483,-0.434,-0.773,-15.44,116.37,-5.77,1784844268105.5469
-0.497,-0.52,-0.807,-13.12,121.22,-14.4,1784844268116.277
-0.46,-0.566,-0.702,-5.86,115.6,-25.76,1784844268129.3992
-0.419,-0.559,-0.693,-5.86,115.6,-25.76,1784844268135.318
-0.37,-0.535,-0.686,-2.29,112.25,-26.76,1784844268145.876
-0.34,-0.519,-0.698,-1.07,109.04,-24.78,1784844268156.605
-0.334,-0.497,-0.755,-0.09,106.39,-24.54,1784844268169.854
-0.344,-0.461,-0.696,1.43,104.62,-21.3,1784844268175.7458
-0.375,-0.511,-0.675,7.54,102.15,-16.54,1784844268186.536
-0.327,-0.492,-0.644,14.16,101.32,-25.88,1784844268199.6401
-0.289,-0.459,-0.639,16.63,97.2,-30.85,1784844268205.642
-0.241,-0.425,-0.621,15.47,94.73,-28.9,1784844268216.136
-0.2,-0.372,-0.654,8.39,91.37,-25.67,1784844268226.6519
-0.21,-0.436,-0.692,1.95,88.5,-18.49,1784844268239.937
-0.171,-0.44,-0.671,1.25,88.56,-25.45,1784844268245.9058
-0.152,-0.436,-0.725,-0.27,83.35,-30.52,1784844268256.0981
-0.128,-0.442,-0.71,-3.2,82.16,-29.69,1784844268266.6829
-0.105,-0.447,-0.679,-1.86,80.6,-29.27,1784844268279.7607
-0.086,-0.463,-0.624,2.87,78.37,-28.57,1784844268285.992
-0.057,-0.47,-0.62,6.32,75.17,-28.47,1784844268296.0378
-0.026,-0.453,-0.625,6.84,72.27,-28.41,1784844268307.0322
0.003,-0.412,-0.623,5.01,68.7,-25.85,1784844268319.798
-0.021,-0.469,-0.691,2.93,63.88,-20.78,1784844268325.382
0.005,-0.416,-0.699,3.63,61.4,-30.73,1784844268335.915
-0.001,-0.393,-0.793,-1.4,57.22,-33.3,1784844268346.656
0.009,-0.401,-0.757,-13.25,59.08,-31.34,1784844268359.6968
0.024,-0.43,-0.71,-18.65,58.17,-30.82,1784844268365.356
0.047,-0.466,-0.609,-15.87,56.0,-30.43,1784844268376.048
0.069,-0.474,-0.589,-9.74,50.48,-31.13,1784844268389.303
0.087,-0.461,-0.635,-4.49,44.8,-33.2,1784844268395.1091
0.096,-0.433,-0.666,-1.8,40.86,-36.13,1784844268405.488
0.086,-0.364,-0.721,-2.26,38.12,-37.9,1784844268416.153
0.07,-0.309,-0.719,-3.48,37.08,-37.32,1784844268429.434
0.073,-0.301,-0.695,-5.28,36.38,-34.42,1784844268435.257
0.095,-0.336,-0.647,-7.97,35.19,-30.21,1784844268445.647
0.132,-0.387,-0.607,-8.06,31.92,-27.86,1784844268456.278
0.168,-0.416,-0.624,-6.68,26.86,-26.22,1784844268469.4731
0.18,-0.393,-0.671,-7.32,21.85,-24.87,1784844268475.1812
0.179,-0.344,-0.724,-7.75,17.82,-23.04,1784844268485.685
0.171,-0.33,-0.746,-8.91,16.3,-19.04,1784844268496.29
0.168,-0.335,-0.727,-11.87,16.05,-14.5,1784844268509.7869
0.182,-0.365,-0.69,-12.82,15.93,-10.77,1784844268517.466
0.209,-0.419,-0.664,-9.4,15.75,-9.09,1784844268525.7239
0.232,-0.441,-0.68,-2.56,15.38,-9.46,1784844268536.121
0.244,-0.44,-0.702,5.37,15.14,-9.95,1784844268546.596
0.234,-0.422,-0.749,10.01,13.82,-10.1,1784844268560.24
0.214,-0.379,-0.785,7.93,12.7,-9.22,1784844268565.96
0.202,-0.36,-0.782,2.41,11.26,-6.13,1784844268576.0642
0.213,-0.376,-0.761,-3.14,9.64,-3.51,1784844268586.444
0.225,-0.4,-0.745,-6.04,8.3,-3.14,1784844268599.8489
0.238,-0.429,-0.753,-5.71,7.32,-3.94,1784844268605.546
0.241,-0.477,-0.761,-2.75,7.2,-5.58,1784844268615.369
0.238,-0.505,-0.789,0.12,6.5,-8.76,1784844268625.727
0.232,-0.493,-0.818,2.5,6.07,-11.75,1784844268636.306
0.218,-0.48,-0.84,3.78,5.98,-13.7,1784844268646.8962
0.204,-0.457,-0.872,0.89,6.16,-15.84,1784844268660.1548
0.199,-0.438,-0.89,-5.83,6.5,-17.79,1784844268665.8298
0.198,-0.445,-0.894,-14.25,7.2,-20.51,1784844268675.9648
0.189,-0.466,-0.886,-24.72,8.42,-25.54,1784844268686.458
0.188,-0.475,-0.869,-34.79,8.76,-33.54,1784844268699.897
0.206,-0.5,-0.889,-40.62,7.63,-41.72,1784844268705.676
0.22,-0.559,-0.915,-44.95,7.26,-49.71,1784844268715.934
0.22,-0.595,-0.925,-50.9,7.32,-58.05,1784844268726.409
0.21,-0.568,-0.941,-57.5,6.78,-65.1,1784844268739.82
0.183,-0.512,-0.905,-60.82,8.61,-71.93,1784844268745.571
0.175,-0.45,-0.855,-59.76,9.4,-77.43,1784844268756.0918
0.215,-0.439,-0.855,-55.76,9.83,-79.53,1784844268766.567
0.265,-0.439,-0.891,-52.8,11.32,-80.69,1784844268779.788
0.291,-0.422,-0.93,-54.63,13.4,-83.19,1784844268785.81
0.297,-0.416,-0.955,-54.75,16.36,-86.52,1784844268796.253
0.291,-0.459,-0.981,-49.17,20.36,-89.27,1784844268809.669
0.272,-0.5,-0.948,-41.14,26.06,-91.98,1784844268815.38
0.26,-0.511,-0.924,-27.92,31.37,-93.66,1784844268825.971
0.277,-0.502,-0.894,-11.32,36.1,-94.7,1784844268836.652
0.323,-0.433,-0.94,3.11,38.24,-96.35,1784844268850.008
0.351,-0.356,-0.972,14.31,41.96,-97.08,1784844268855.8071
0.333,-0.273,-0.975,19.07,45.56,-97.26,1784844268866.3318
0.33,-0.191,-1.046,12.73,47.46,-94.7,1784844268879.42
0.321,-0.25,-1.064,-0.49,52.61,-93.26,1784844268885.47
0.293,-0.373,-1.014,-16.6,57.71,-97.75,1784844268895.9097
0.285,-0.464,-0.959,-27.04,61.59,-103.76,1784844268906.728
0.287,-0.538,-0.915,-22.55,66.13,-108.46,1784844268920.104
0.294,-0.569,-0.878,-8.09,69.43,-113.38,1784844268925.738
0.303,-0.514,-0.872,8.39,70.25,-119.42,1784844268936.4841
0.339,-0.322,-0.933,16.79,68.51,-122.5,1784844268949.7869
0.389,-0.153,-0.954,17.03,68.51,-121.52,1784844268955.5718
0.399,-0.076,-0.96,7.69,68.85,-120.88,1784844268966.2622
0.388,-0.081,-0.993,-16.3,68.91,-120.79,1784844268979.4612
0.376,-0.18,-0.938,-46.78,70.62,-124.33,1784844268985.4688
0.411,-0.266,-0.846,-72.48,68.85,-130.07,1784844268996.166
0.52,-0.324,-0.844,-81.42,64.88,-134.92,1784844269009.6582
0.581,-0.293,-0.791,-78.95,64.36,-138.92,1784844269015.8037
0.571,-0.168,-0.752,-70.01,62.35,-140.84,1784844269026.114
0.547,-0.06,-0.677,-54.54,60.64,-139.81,1784844269039.4812
0.538,-0.016,-0.671,-44.62,58.05,-136.11,1784844269045.2637
0.546,-0.019,-0.664,-40.83,57.07,-134.31,1784844269056.0159
0.565,-0.024,-0.761,-37.02,55.97,-133.37,1784844269069.365
0.591,-0.06,-0.838,-30.55,60.12,-135.11,1784844269075.839
0.573,-0.047,-0.815,-25.27,63.39,-139.5,1784844269088.244
0.569,0.045,-0.815,-22.58,62.93,-138.4,1784844269099.3438
0.611,0.155,-0.812,-20.39,62.84,-131.99,1784844269104.985
0.656,0.25,-0.803,-18.8,63.6,-126.74,1784844269116.1921
0.669,0.31,-0.767,-18.28,65.68,-124.27,1784844269129.491
0.652,0.319,-0.708,-21.85,67.05,-122.2,1784844269135.5688
0.637,0.316,-0.701,-31.13,67.02,-119.45,1784844269145.8782
0.63,0.289,-0.71,-39.74,68.36,-117.01,1784844269157.027
0.622,0.247,-0.721,-41.44,71.11,-115.45,1784844269170.098
0.632,0.246,-0.711,-39.37,73.79,-113.07,1784844269176.165
0.647,0.298,-0.73,-36.65,75.14,-107.7,1784844269186.9253
0.656,0.332,-0.693,-33.51,77.12,-102.27,1784844269200.1719
0.642,0.417,-0.628,-34.27,76.63,-99.34,1784844269206.029
0.626,0.492,-0.629,-38.94,75.99,-94.12,1784844269216.527
0.616,0.506,-0.524,-43.4,77.52,-87.83,1784844269229.865
0.623,0.508,-0.483,-45.35,75.69,-86.18,1784844269235.862
0.62,0.505,-0.449,-46.88,74.19,-86.52,1784844269246.051
0.626,0.481,-0.435,-46.91,71.23,-84.93,1784844269259.9941
0.636,0.426,-0.445,-44.47,68.51,-84.41,1784844269265.5251
0.629,0.465,-0.376,-42.91,66.13,-83.32,1784844269275.805
0.652,0.494,-0.438,-36.84,61.56,-78.34,1784844269286.481
0.656,0.455,-0.444,-32.01,60.15,-74.04,1784844269299.891
0.639,0.446,-0.381,-32.01,57.53,-73.15,1784844269305.583
0.62,0.438,-0.361,-30.03,53.32,-71.5,1784844269316.283
0.655,0.416,-0.284,-25.85,49.56,-67.87,1784844269329.504
0.656,0.455,-0.23,-16.97,43.28,-70.35,1784844269335.811
0.651,0.536,-0.249,-6.5,36.59,-70.19,1784844269345.758
0.641,0.617,-0.284,0.31,31.19,-66.23,1784844269356.527
0.643,0.605,-0.352,2.47,26.8,-62.59,1784844269369.6692
0.643,0.605,-0.352,-3.85,23.71,-62.53,1784844269375.347
0.609,0.603,-0.327,-8.06,20.33,-58.69,1784844269385.955
0.617,0.666,-0.274,1.43,18.01,-52.4,1784844269396.305
0.643,0.695,-0.254,17.67,15.9,-45.66,1784844269410.129
0.658,0.72,-0.255,33.85,12.82,-38.3,1784844269415.441
0.652,0.84,-0.231,33.85,12.82,-38.3,1784844269426.061
0.635,1.025,-0.26,47.06,8.73,-25.79,1784844269436.6812
0.597,1.09,-0.341,49.93,5.71,-10.47,1784844269450.0278
0.573,1.072,-0.4,34.3,3.63,-0.49,1784844269455.921
0.546,0.991,-0.395,9.0,2.04,5.31,1784844269465.893
0.562,0.829,-0.38,-10.77,0.52,12.94,1784844269476.397
0.612,0.668,-0.312,-16.82,-0.73,19.81,1784844269489.897
0.664,0.546,-0.305,-8.55,-2.11,26.43,1784844269495.341
0.698,0.489,-0.302,4.88,-2.62,29.48,1784844269505.74
0.724,0.498,-0.308,16.6,-3.81,29.39,1784844269516.29
0.743,0.522,-0.345,17.94,-4.97,30.88,1784844269529.4358
0.754,0.494,-0.36,8.45,-5.43,32.38,1784844269535.456
0.752,0.513,-0.335,-3.81,-7.32,30.82,1784844269545.471
0.742,0.612,-0.349,-15.41,-9.95,30.64,1784844269556.223
0.74,0.613,-0.37,-24.57,-11.63,31.74,1784844269566.924
0.742,0.486,-0.388,-31.74,-14.44,30.0,1784844269579.88
0.75,0.37,-0.37,-36.19,-15.35,26.76,1784844269585.949
0.778,0.322,-0.335,-28.35,-14.1,23.35,1784844269596.3408
0.832,0.351,-0.332,-6.81,-13.49,19.62,1784844269609.84
0.865,0.471,-0.395,15.5,-13.31,15.53,1784844269615.5442
0.834,0.635,-0.472,23.87,-10.83,14.13,1784844269626.05
0.785,0.719,-0.536,17.27,-8.33,16.21,1784844269636.652
0.763,0.718,-0.57,1.46,-5.58,17.49,1784844269650.128
0.761,0.672,-0.545,-15.47,-2.84,17.18,1784844269655.7542
0.774,0.585,-0.517,-26.86,-1.22,18.25,1784844269666.027
0.788,0.484,-0.48,-32.35,1.01,18.4,1784844269676.4631
0.794,0.396,-0.418,-31.13,2.35,15.59,1784844269691.916
0.803,0.35,-0.372,-22.95,1.37,11.14,1784844269695.641
0.808,0.366,-0.356,-11.2,0.34,6.99,1784844269706.052
0.798,0.425,-0.379,0.89,-0.61,4.82,1784844269716.371
0.772,0.487,-0.426,6.01,-1.4,3.88,1784844269726.561
0.742,0.541,-0.464,0.79,-2.01,3.78,1784844269739.9548
0.727,0.551,-0.475,-8.06,-2.11,4.36,1784844269745.496
0.725,0.514,-0.45,-14.47,-2.53,4.0,1784844269755.7703
0.732,0.483,-0.437,-15.66,-3.94,2.72,1784844269766.1282
0.737,0.442,-0.459,-12.51,-4.79,2.5,1784844269776.649
0.73,0.403,-0.465,-8.48,-4.49,2.14,1784844269790.199
0.726,0.419,-0.462,-2.75,-4.46,1.25,1784844269795.7817
0.719,0.466,-0.463,4.3,-3.88,1.19,1784844269805.6697
0.708,0.517,-0.477,8.18,-3.33,2.17,1784844269816.051
0.692,0.562,-0.485,6.44,-3.45,4.36,1784844269826.3381
0.687,0.569,-0.51,1.1,-3.78,7.02,1784844269836.7568
0.685,0.525,-0.52,-6.78,-3.45,8.24,1784844269850.1802
0.684,0.444,-0.5,-12.42,-3.72,7.75,1784844269855.843
0.696,0.37,-0.466,-10.71,-3.91,6.65,1784844269865.9358
0.723,0.351,-0.454,-1.83,-3.3,5.77,1784844269876.227
0.741,0.373,-0.477,8.88,-2.5,4.94,1784844269886.6018
0.739,0.411,-0.496,15.08,-2.14,4.21,1784844269899.998
0.728,0.453,-0.524,14.92,-2.17,3.27,1784844269905.756
0.715,0.482,-0.544,8.51,-1.5,2.84,1784844269915.838
0.711,0.487,-0.539,-0.06,-0.76,3.27,1784844269926.77
0.72,0.486,-0.533,-5.58,-1.34,3.78,1784844269936.773
0.725,0.477,-0.509,-6.74,-0.98,3.88,1784844269946.806
0.718,0.465,-0.486,-4.24,-0.46,3.97,1784844269960.1409
0.712,0.446,-0.479,0.46,-0.73,4.18,1784844269965.7249
0.718,0.438,-0.493,4.61,-1.04,4.09,1784844269975.7139
0.728,0.449,-0.511,8.0,-0.34,4.12,1784844269986.029
0.735,0.471,-0.513,10.13,0.67,4.33,1784844269996.448
0.735,0.506,-0.518,9.34,1.1,4.73,1784844270009.707
0.731,0.529,-0.511,4.7,1.86,6.16,1784844270015.0889
0.723,0.509,-0.483,-0.89,2.14,7.14,1784844270025.2559
0.73,0.47,-0.466,-4.76,1.04,6.62,1784844270035.805
0.74,0.433,-0.46,-5.8,-0.09,5.77,1784844270046.0469
0.747,0.415,-0.465,-4.52,-0.46,4.97,1784844270056.4429
0.75,0.411,-0.461,-0.76,-0.34,4.58,1784844270069.8362
0.751,0.417,-0.459,4.61,-0.76,3.54,1784844270075.211
0.747,0.431,-0.467,8.45,-1.1,2.26,1784844270085.523
0.745,0.444,-0.471,10.07,-0.98,1.65,1784844270095.843
0.747,0.464,-0.471,10.35,-0.85,1.53,1784844270106.425
0.748,0.486,-0.486,9.25,-0.85,1.98,1784844270119.794
0.74,0.493,-0.496,5.71,-0.58,2.75,1784844270125.2139
0.733,0.476,-0.494,0.58,-0.85,3.11,1784844270135.375
0.732,0.463,-0.476,-2.84,-1.46,2.72,1784844270145.736
0.736,0.457,-0.459,-1.4,-1.8,2.66,1784844270156.087
0.733,0.458,-0.452,3.63,-1.98,2.78,1784844270166.619
0.729,0.462,-0.462,8.7,-2.56,3.45,1784844270179.894
0.728,0.464,-0.469,10.93,-2.5,4.46,1784844270185.6958
0.73,0.463,-0.48,10.16,-2.14,5.37,1784844270195.631
0.735,0.455,-0.489,9.37,-1.92,5.86,1784844270206.199
0.737,0.44,-0.494,9.86,-2.17,5.65,1784844270216.6082
0.738,0.431,-0.494,10.28,-2.59,4.73,1784844270229.833
0.735,0.43,-0.502,10.32,-3.2,3.69,1784844270235.711
0.736,0.437,-0.509,10.22,-3.08,3.39,1784844270245.713
0.739,0.445,-0.516,9.43,-2.72,3.66,1784844270256.0608
0.735,0.447,-0.517,8.12,-2.23,3.88,1784844270266.45
0.736,0.456,-0.514,6.47,-1.86,4.09,1784844270276.726
0.737,0.462,-0.509,5.65,-1.34,4.36,1784844270290.1353
0.736,0.445,-0.507,5.68,-0.89,4.03,1784844270295.745
0.734,0.414,-0.505,5.71,-0.79,3.14,1784844270305.747
