ax,ay,az,gx,gy,gz,timestamp_ms
-0.869,-0.227,-0.314,0.92,-3.63,-9.09,1785102089915.8962
-0.86,-0.221,-0.326,-0.76,-3.57,-8.73,1785102089916.2542
-0.865,-0.228,-0.341,-4.0,-3.33,-9.7,1785102089916.6091
-0.866,-0.247,-0.347,-7.66,-2.78,-10.35,1785102089916.969
-0.872,-0.262,-0.345,-10.47,-3.14,-10.28,1785102089917.332
-0.877,-0.27,-0.346,-11.66,-4.3,-9.52,1785102089917.736
-0.874,-0.263,-0.341,-11.54,-3.66,-7.63,1785102089918.161
-0.871,-0.266,-0.346,-10.38,-2.96,-6.53,1785102089918.5212
-0.87,-0.266,-0.348,-9.92,-3.57,-6.68,1785102089918.873
-0.862,-0.273,-0.352,-9.77,-3.57,-6.78,1785102089919.221
-0.861,-0.277,-0.35,-8.67,-2.81,-6.53,1785102089919.5671
-0.866,-0.278,-0.346,-6.38,-2.23,-6.26,1785102089919.9941
-0.876,-0.271,-0.339,-4.12,-2.66,-5.92,1785102089920.3289
-0.875,-0.265,-0.344,-3.05,-3.75,-4.64,1785102089920.665
-0.87,-0.265,-0.351,-3.02,-4.33,-3.45,1785102089921.0059
-0.87,-0.267,-0.36,-3.45,-3.97,-2.84,1785102089921.3389
-0.869,-0.276,-0.376,-4.49,-3.63,-2.87,1785102089921.675
-0.866,-0.287,-0.382,-5.89,-3.23,-3.36,1785102089922.015
-0.873,-0.287,-0.369,-7.42,-3.08,-3.45,1785102089922.395
-0.872,-0.28,-0.357,-7.81,-3.2,-2.44,1785102089922.7422
-0.87,-0.274,-0.357,-7.35,-2.99,-1.74,1785102089923.078
-0.871,-0.274,-0.358,-6.87,-2.84,-1.59,1785102089923.418
-0.868,-0.278,-0.362,-6.9,-2.69,-1.4,1785102089923.717
-0.871,-0.279,-0.363,-7.08,-2.26,-1.22,1785102089924.0261
-0.87,-0.28,-0.362,-6.96,-1.77,-0.95,1785102089924.317
-0.871,-0.282,-0.361,-6.71,-1.31,-0.67,1785102089924.607
-0.874,-0.28,-0.36,-6.38,-1.28,-0.49,1785102089924.8992
-0.871,-0.277,-0.36,-6.29,-1.37,0.31,1785102089925.194
-0.867,-0.279,-0.366,-6.07,-1.25,0.76,1785102089925.495
-0.869,-0.277,-0.367,-6.71,-0.95,0.82,1785102089925.7832
-0.871,-0.276,-0.36,-7.42,-0.79,1.1,1785102089926.078
-0.871,-0.275,-0.362,-8.15,-0.7,1.43,1785102089926.385
-0.87,-0.279,-0.364,-8.76,-0.52,1.68,1785102089926.6802
-0.871,-0.279,-0.361,-9.13,-0.27,1.77,1785102089926.968
-0.871,-0.283,-0.358,-9.28,-0.34,1.89,1785102089927.261
-0.874,-0.29,-0.357,-9.0,-0.27,2.04,1785102089927.561
-0.875,-0.292,-0.356,-8.21,-0.06,2.38,1785102089927.849
-0.875,-0.294,-0.357,-6.71,0.03,2.93,1785102089928.149
-0.875,-0.294,-0.357,-5.07,-0.06,3.14,1785102089928.4438
-0.875,-0.291,-0.353,-3.66,-0.09,3.36,1785102089928.727
-0.873,-0.282,-0.353,-3.17,0.0,3.97,1785102089929.021
-0.873,-0.274,-0.353,-3.17,0.15,4.09,1785102089929.3152
-0.871,-0.269,-0.347,-3.17,0.15,4.09,1785102089929.614
-0.875,-0.263,-0.339,-3.42,-0.43,4.0,1785102089929.9043
-0.878,-0.261,-0.337,-3.11,-0.82,4.39,1785102089930.1948
-0.879,-0.26,-0.345,-2.17,-0.82,4.58,1785102089930.492
-0.887,-0.252,-0.336,-1.77,-0.61,4.43,1785102089930.778
-0.883,-0.258,-0.308,0.12,-1.4,4.24,1785102089931.077
-0.877,-0.258,-0.309,2.38,-2.9,3.23,1785102089931.3918
-0.881,-0.225,-0.308,0.95,-3.94,3.91,1785102089931.6501
-0.883,-0.203,-0.297,-1.4,-4.46,6.5,1785102089931.9182
-0.879,-0.219,-0.295,-2.01,-5.46,7.48,1785102089932.179
-0.874,-0.237,-0.312,-0.79,-5.92,6.65,1785102089932.437
-0.88,-0.238,-0.32,-0.09,-5.68,5.04,1785102089932.69
-0.88,-0.239,-0.327,-0.15,-5.34,4.0,1785102089932.949
-0.878,-0.243,-0.335,-0.7,-4.46,3.02,1785102089933.212
-0.881,-0.254,-0.338,-0.98,-3.63,2.47,1785102089933.4668
-0.881,-0.264,-0.344,-0.03,-2.96,1.83,1785102089933.728
-0.888,-0.269,-0.354,1.19,-2.26,1.07,1785102089933.987
-0.894,-0.274,-0.358,2.29,-1.77,0.76,1785102089934.247
-0.897,-0.268,-0.354,4.36,-1.62,0.92,1785102089934.499
-0.892,-0.26,-0.358,7.32,-1.83,1.4,1785102089934.762
-0.887,-0.253,-0.365,9.92,-1.71,1.68,1785102089935.0212
-0.886,-0.248,-0.365,11.02,-1.46,1.4,1785102089935.278
-0.883,-0.252,-0.365,10.9,-1.46,0.85,1785102089935.5452
-0.889,-0.253,-0.362,9.98,-1.53,0.64,1785102089935.812
-0.891,-0.248,-0.36,8.61,-1.46,0.52,1785102089936.122
-0.887,-0.252,-0.359,7.39,-1.4,0.73,1785102089936.3809
-0.886,-0.253,-0.355,6.35,-1.31,0.89,1785102089936.643
-0.885,-0.249,-0.347,5.1,-1.31,0.67,1785102089936.914
-0.881,-0.25,-0.34,4.15,-1.43,0.7,1785102089937.1892
-0.877,-0.258,-0.34,4.27,-1.46,0.82,1785102089937.538
-0.877,-0.257,-0.341,3.94,-1.19,0.34,1785102089937.85
-0.88,-0.257,-0.341,3.66,-1.01,0.64,1785102089938.122
-0.876,-0.262,-0.339,4.09,-0.67,1.07,1785102089938.3838
-0.875,-0.271,-0.341,4.97,-0.46,0.73,1785102089938.6602
-0.882,-0.266,-0.342,5.04,-0.55,0.27,1785102089938.931
-0.88,-0.262,-0.337,4.91,-0.64,0.61,1785102089939.188
-0.879,-0.259,-0.336,5.52,-0.52,0.55,1785102089939.4583
-0.886,-0.254,-0.333,5.98,-0.79,0.49,1785102089939.703
-0.886,-0.257,-0.331,5.83,-1.65,0.95,1785102089939.9412
-0.88,-0.26,-0.33,5.86,-2.04,1.1,1785102089940.182
-0.882,-0.259,-0.334,6.2,-1.74,0.79,1785102089940.418
-0.881,-0.259,-0.339,5.68,-1.68,0.31,1785102089940.6562
-0.878,-0.264,-0.344,4.73,-1.53,-0.03,1785102089940.882
-0.882,-0.266,-0.344,3.78,-1.28,-0.55,1785102089941.1167
-0.887,-0.262,-0.338,2.44,-1.19,-0.52,1785102089941.356
-0.887,-0.264,-0.336,1.71,-1.65,-0.64,1785102089941.5942
-0.889,-0.272,-0.331,1.19,-2.26,-0.98,1785102089941.8318
-0.89,-0.268,-0.323,0.03,-2.66,-0.92,1785102089942.0723
-0.883,-0.266,-0.323,-0.49,-2.56,-0.67,1785102089942.3052
-0.877,-0.275,-0.333,-0.46,-2.26,-1.53,1785102089942.543
-0.875,-0.271,-0.337,-0.98,-1.89,-2.9,1785102089942.782
-0.874,-0.275,-0.348,-1.46,-1.71,-3.48,1785102089943.036
-0.875,-0.279,-0.357,-1.37,-1.16,-4.33,1785102089943.262
-0.885,-0.269,-0.345,-1.46,-0.61,-5.19,1785102089943.499
-0.892,-0.258,-0.317,-2.32,-0.52,-4.76,1785102089943.756
-0.894,-0.256,-0.301,-2.87,-1.34,-3.91,1785102089943.9812
-0.882,-0.265,-0.311,-2.32,-2.11,-3.02,1785102089944.214
-0.874,-0.276,-0.328,-1.89,-1.92,-2.41,1785102089944.4502
-0.876,-0.27,-0.349,-2.11,-1.13,-2.53,1785102089944.675
-0.883,-0.261,-0.361,-2.56,-0.03,-2.78,1785102089944.907
-0.885,-0.254,-0.358,-3.33,0.79,-2.75,1785102089945.1467
-0.884,-0.26,-0.35,-4.18,1.34,-2.78,1785102089945.3682
-0.882,-0.265,-0.347,-4.09,1.71,-2.9,1785102089945.579
-0.88,-0.263,-0.341,-3.57,1.86,-2.62,1785102089945.7979
-0.882,-0.258,-0.336,-2.69,1.5,-2.08,1785102089946.016
-0.882,-0.252,-0.331,-1.37,1.5,-1.5,1785102089946.2322
-0.881,-0.254,-0.329,0.27,1.46,-1.01,1785102089946.455
-0.885,-0.252,-0.334,1.31,1.37,-0.95,1785102089946.6829
-0.887,-0.249,-0.336,2.08,1.37,-0.61,1785102089946.893
-0.887,-0.252,-0.335,3.27,1.28,-0.31,1785102089947.113
-0.885,-0.253,-0.335,4.64,1.25,-0.43,1785102089947.335
-0.881,-0.257,-0.345,5.8,0.79,-0.7,1785102089947.563
-0.881,-0.26,-0.357,6.04,0.92,-1.25,1785102089947.777
-0.882,-0.256,-0.348,5.95,1.77,-1.01,1785102089948.0232
-0.887,-0.254,-0.338,6.47,2.99,0.18,1785102089948.241
-0.894,-0.248,-0.327,6.84,3.2,1.13,1785102089948.5078
-0.894,-0.252,-0.33,6.1,2.26,1.16,1785102089948.724
-0.889,-0.264,-0.341,4.55,1.65,0.24,1785102089948.941
-0.886,-0.287,-0.34,3.57,1.68,-0.52,1785102089949.154
-0.887,-0.293,-0.328,3.42,1.37,-0.92,1785102089949.3718
-0.887,-0.282,-0.308,4.18,0.43,-0.46,1785102089949.5881
-0.884,-0.265,-0.287,5.49,-1.43,0.21,1785102089949.8071
-0.876,-0.258,-0.291,7.35,-2.96,0.43,1785102089950.021
-0.877,-0.254,-0.298,8.27,-3.33,0.52,1785102089950.238
-0.878,-0.245,-0.301,6.04,-3.69,0.64,1785102089950.477
-0.874,-0.247,-0.324,2.2,-3.2,1.01,1785102089950.6938
-0.881,-0.265,-0.319,-1.01,-2.2,0.92,1785102089950.912
-0.879,-0.291,-0.303,-2.26,-2.26,-0.34,1785102089951.1301
-0.879,-0.309,-0.293,-2.17,-2.72,-1.92,1785102089951.335
-0.882,-0.312,-0.298,-0.27,-3.05,-1.19,1785102089951.5361
-0.886,-0.304,-0.316,4.18,-2.2,1.28,1785102089951.743
-0.898,-0.294,-0.317,9.55,-1.22,3.14,1785102089951.953
-0.899,-0.277,-0.309,14.28,-1.98,3.85,1785102089952.157
-0.89,-0.262,-0.318,17.03,-3.11,4.27,1785102089952.3599
-0.889,-0.265,-0.334,17.91,-3.33,4.39,1785102089952.5703
-0.892,-0.27,-0.347,18.19,-2.78,4.27,1785102089952.776
-0.893,-0.267,-0.349,17.76,-2.29,4.36,1785102089952.981
-0.898,-0.27,-0.343,16.54,-2.17,4.52,1785102089953.1882
-0.897,-0.278,-0.337,15.56,-2.53,4.3,1785102089953.397
-0.898,-0.273,-0.331,14.22,-3.27,3.97,1785102089953.601
-0.9,-0.266,-0.322,11.44,-4.39,4.15,1785102089953.81
-0.889,-0.267,-0.319,8.3,-5.55,4.3,1785102089954.019
-0.887,-0.259,-0.312,4.73,-6.68,3.39,1785102089954.22
-0.877,-0.261,-0.305,1.16,-8.06,2.78,1785102089954.424
-0.863,-0.27,-0.316,-1.89,-8.39,1.53,1785102089954.638
-0.865,-0.272,-0.329,-6.04,-8.09,-0.52,1785102089954.8691
-0.875,-0.278,-0.331,-9.67,-7.97,-0.92,1785102089955.073
-0.887,-0.26,-0.311,-12.02,-8.12,0.06,1785102089955.2852
-0.883,-0.254,-0.301,-13.52,-8.79,0.82,1785102089955.497
-0.871,-0.253,-0.313,-15.59,-10.25,0.82,1785102089955.701
-0.859,-0.268,-0.339,-18.98,-10.28,-0.15,1785102089955.911
-0.863,-0.281,-0.362,-21.39,-8.58,-1.19,1785102089956.128
-0.879,-0.266,-0.363,-22.74,-5.58,-0.52,1785102089956.3342
-0.898,-0.252,-0.335,-20.72,-3.39,1.68,1785102089956.555
-0.887,-0.266,-0.371,-13.09,-2.41,4.06,1785102089956.764
-0.88,-0.263,-0.394,-7.35,0.18,3.3,1785102089956.9722
-0.884,-0.261,-0.386,-8.3,0.89,2.66,1785102089957.1897
-0.875,-0.287,-0.428,-9.98,3.81,3.08,1785102089957.4202
-0.874,-0.298,-0.427,-10.71,7.93,2.35,1785102089957.6519
-0.884,-0.308,-0.39,-11.51,9.4,1.25,1785102089957.8618
-0.897,-0.324,-0.362,-10.1,9.34,0.73,1785102089958.088
-0.892,-0.316,-0.354,-4.64,8.91,0.7,1785102089958.297
-0.894,-0.284,-0.343,-1.4,8.82,0.24,1785102089958.512
-0.893,-0.259,-0.331,-1.68,7.81,-0.09,1785102089958.7122
-0.893,-0.259,-0.331,-4.33,5.86,0.12,1785102089958.913
-0.892,-0.251,-0.316,-7.39,4.7,0.18,1785102089959.1128
-0.884,-0.253,-0.331,-10.74,4.52,-0.03,1785102089959.305
-0.885,-0.254,-0.331,-14.28,4.15,-0.76,1785102089959.505
-0.885,-0.25,-0.337,-17.73,4.06,-1.56,1785102089959.699
-0.881,-0.253,-0.341,-17.73,4.06,-1.56,1785102089959.889
-0.882,-0.248,-0.326,-22.16,3.51,-1.95,1785102089960.078
-0.879,-0.255,-0.316,-30.34,2.93,-0.4,1785102089960.4631
-0.871,-0.275,-0.317,-31.1,2.78,-0.09,1785102089960.654
-0.855,-0.229,-0.335,-6.56,2.96,-12.48,1785102089960.9758
-0.861,-0.227,-0.335,-6.65,3.11,-12.54,1785102089961.183
-0.867,-0.214,-0.334,-7.57,3.3,-12.36,1785102089961.3728
-0.871,-0.205,-0.329,-8.64,3.81,-11.6,1785102089965.3389
-0.87,-0.213,-0.332,-9.31,4.3,-11.02,1785102089975.8132
-0.872,-0.226,-0.34,-9.8,4.73,-11.32,1785102089986.316
-0.878,-0.231,-0.332,-9.31,5.34,-11.17,1785102089999.5132
-0.877,-0.248,-0.336,-6.29,5.43,-10.53,1785102090005.217
-0.88,-0.245,-0.342,-2.38,5.71,-9.64,1785102090015.43
-0.879,-0.233,-0.343,1.22,5.95,-8.03,1785102090025.768
-0.872,-0.227,-0.348,3.23,5.98,-6.78,1785102090036.2097
-0.873,-0.223,-0.342,3.85,5.65,-6.23,1785102090049.4102
-0.863,-0.214,-0.34,3.39,5.16,-5.55,1785102090054.94
-0.848,-0.227,-0.341,3.23,5.34,-4.97,1785102090065.0981
-0.839,-0.245,-0.348,3.94,5.62,-4.58,1785102090075.5232
-0.83,-0.238,-0.315,7.23,6.29,-4.24,1785102090086.041
-0.83,-0.229,-0.308,10.32,6.29,-4.73,1785102090096.3398
-0.84,-0.216,-0.287,8.85,5.58,-4.39,1785102090109.64
-0.848,-0.204,-0.262,7.14,3.3,-3.57,1785102090115.165
-0.856,-0.206,-0.256,8.67,0.98,-3.14,1785102090125.294
-0.869,-0.208,-0.251,10.99,-0.76,-2.75,1785102090136.014
-0.875,-0.211,-0.253,13.12,-2.72,-2.08,1785102090146.3699
-0.887,-0.216,-0.256,14.92,-4.94,-0.95,1785102090159.6428
-0.901,-0.218,-0.26,15.5,-7.84,1.01,1785102090165.5623
-0.911,-0.223,-0.272,15.56,-10.59,3.91,1785102090175.705
-0.916,-0.236,-0.282,15.53,-12.54,8.03,1785102090186.358
-0.918,-0.242,-0.295,15.9,-14.4,12.18,1785102090199.484
-0.919,-0.239,-0.304,15.38,-16.57,16.72,1785102090205.524
-0.91,-0.244,-0.313,14.31,-18.46,21.52,1785102090215.981
-0.902,-0.263,-0.322,13.64,-19.75,25.12,1785102090226.6072
-0.896,-0.278,-0.32,14.22,-20.87,28.63,1785102090239.906
-0.887,-0.288,-0.309,16.24,-22.89,32.14,1785102090245.743
-0.877,-0.279,-0.305,17.7,-25.18,35.22,1785102090256.308
-0.867,-0.259,-0.3,18.22,-27.13,38.85,1785102090269.648
-0.859,-0.252,-0.307,18.74,-28.78,41.75,1785102090275.5671
-0.857,-0.243,-0.314,17.76,-29.73,42.85,1785102090286.07
-0.853,-0.244,-0.332,15.2,-30.09,43.06,1785102090296.658
-0.861,-0.247,-0.323,10.74,-29.69,42.02,1785102090309.8992
-0.858,-0.256,-0.317,5.8,-30.18,40.41,1785102090315.826
-0.853,-0.271,-0.337,0.92,-29.69,39.03,1785102090326.205
-0.867,-0.28,-0.322,-3.42,-28.29,37.97,1785102090340.3289
-0.879,-0.289,-0.311,-4.03,-28.11,36.44,1785102090345.3389
-0.873,-0.297,-0.328,-1.37,-27.22,33.75,1785102090355.657
-0.881,-0.308,-0.347,1.77,-25.03,29.91,1785102090366.1902
-0.89,-0.318,-0.346,5.04,-21.88,27.01,1785102090379.4482
-0.899,-0.345,-0.343,10.56,-18.62,24.45,1785102090385.6143
-0.914,-0.355,-0.336,16.63,-16.48,21.82,1785102090395.805
-0.923,-0.35,-0.331,22.25,-15.53,20.14,1785102090406.465
-0.928,-0.345,-0.338,26.64,-14.83,17.94,1785102090419.772
-0.93,-0.333,-0.349,29.24,-13.89,15.53,1785102090425.646
-0.928,-0.318,-0.351,30.58,-12.63,13.21,1785102090436.254
-0.926,-0.307,-0.356,31.53,-11.11,9.98,1785102090446.693
-0.936,-0.297,-0.358,31.34,-9.61,7.08,1785102090459.95
-0.943,-0.294,-0.346,28.57,-9.06,5.19,1785102090465.7832
-0.944,-0.292,-0.337,23.96,-9.0,3.6,1785102090475.9302
-0.934,-0.287,-0.333,19.62,-9.22,2.84,1785102090486.447
-0.925,-0.291,-0.332,16.51,-8.91,2.38,1785102090499.625
-0.921,-0.298,-0.329,14.71,-8.36,1.83,1785102090505.572
-0.916,-0.298,-0.324,13.58,-7.84,1.37,1785102090515.523
-0.909,-0.295,-0.32,13.0,-7.54,1.37,1785102090526.012
-0.903,-0.295,-0.314,12.85,-7.17,1.53,1785102090536.604
-0.897,-0.287,-0.311,12.54,-7.11,1.71,1785102090549.661
-0.885,-0.283,-0.312,11.96,-6.99,2.26,1785102090555.663
-0.881,-0.286,-0.32,11.35,-6.35,2.53,1785102090565.645
-0.885,-0.284,-0.314,10.68,-5.74,2.62,1785102090576.2173
-0.881,-0.292,-0.315,10.35,-5.37,2.84,1785102090586.6658
-0.878,-0.299,-0.333,10.07,-4.64,2.62,1785102090599.8762
-0.89,-0.287,-0.326,8.3,-3.81,2.9,1785102090605.682
-0.899,-0.281,-0.323,6.04,-3.75,3.51,1785102090615.5789
-0.901,-0.281,-0.325,3.17,-3.27,3.57,1785102090625.975
-0.902,-0.286,-0.324,1.25,-2.17,3.42,1785102090636.538
-0.903,-0.296,-0.325,0.98,-0.89,2.75,1785102090649.587
-0.902,-0.304,-0.321,2.08,0.21,1.71,1785102090655.4282
-0.903,-0.302,-0.319,4.15,1.04,0.7,1785102090665.47
-0.91,-0.299,-0.317,7.11,1.95,-0.03,1785102090675.7122
-0.919,-0.292,-0.313,9.52,2.47,-1.01,1785102090686.089
-0.918,-0.269,-0.307,8.82,2.75,-1.59,1785102090696.407
-0.91,-0.267,-0.314,6.41,3.54,-2.04,1785102090709.6892
-0.919,-0.273,-0.311,4.21,4.85,-3.11,1785102090715.348
-0.942,-0.285,-0.303,4.18,5.83,-4.58,1785102090725.375
-0.964,-0.289,-0.299,5.77,6.9,-5.92,1785102090735.859
-0.977,-0.28,-0.292,8.0,8.48,-6.96,1785102090746.1409
-0.987,-0.252,-0.27,10.65,9.89,-7.05,1785102090756.67
-0.977,-0.229,-0.262,14.56,10.13,-5.46,1785102090770.044
-0.95,-0.203,-0.254,18.68,9.34,-3.39,1785102090775.834
-0.928,-0.169,-0.246,19.68,7.84,-1.46,1785102090786.014
-0.926,-0.14,-0.253,16.79,6.74,0.31,1785102090796.317
-0.933,-0.127,-0.247,11.72,5.77,2.75,1785102090809.6099
-0.931,-0.134,-0.248,5.8,4.24,4.61,1785102090815.339
-0.928,-0.146,-0.248,-0.82,3.02,4.24,1785102090825.363
-0.93,-0.153,-0.239,-7.9,2.32,3.81,1785102090835.843
-0.929,-0.132,-0.222,-15.23,1.37,4.58,1785102090846.178
-0.923,-0.109,-0.202,-21.39,-0.24,6.84,1785102090856.79
-0.919,-0.11,-0.204,-26.18,-1.86,8.85,1785102090870.094
-0.927,-0.093,-0.191,-31.92,-3.17,9.8,1785102090875.795
-0.929,-0.097,-0.192,-34.88,-4.97,12.42,1785102090886.066
-0.931,-0.126,-0.214,-35.22,-5.98,14.86,1785102090896.482
-0.944,-0.141,-0.225,-36.1,-6.5,16.33,1785102090909.751
-0.941,-0.163,-0.238,-35.46,-6.78,18.4,1785102090915.689
-0.937,-0.188,-0.246,-33.94,-6.71,18.92,1785102090925.9573
-0.941,-0.187,-0.234,-33.08,-6.9,18.46,1785102090936.7412
-0.942,-0.162,-0.219,-32.14,-7.29,19.2,1785102090949.727
-0.938,-0.122,-0.204,-30.27,-8.21,21.36,1785102090955.7769
-0.935,-0.088,-0.212,-27.8,-9.86,23.1,1785102090965.8088
-0.935,-0.088,-0.212,-27.38,-10.8,23.77,1785102090976.4202
-0.942,-0.075,-0.241,-30.76,-10.96,23.68,1785102090989.928
-0.952,-0.081,-0.27,-36.01,-10.56,23.04,1785102090995.752
-0.956,-0.112,-0.292,-41.08,-10.04,22.71,1785102091006.356
-0.957,-0.146,-0.291,-44.4,-10.19,22.74,1785102091019.6538
-0.955,-0.163,-0.273,-44.4,-10.19,22.74,1785102091025.4973
-0.941,-0.172,-0.264,-44.56,-10.5,23.26,1785102091036.129
-0.931,-0.174,-0.272,-43.61,-10.5,22.13,1785102091046.609
-0.939,-0.144,-0.249,-43.73,-10.32,19.81,1785102091059.901
-0.946,-0.12,-0.231,-41.66,-10.96,19.41,1785102091065.93
-0.947,-0.126,-0.254,-37.45,-11.38,20.26,1785102091076.438
-0.965,-0.121,-0.261,-35.19,-11.2,19.9,1785102091089.649
-0.977,-0.12,-0.269,-33.54,-10.8,20.08,1785102091095.594
-0.969,-0.14,-0.284,-31.5,-9.46,20.14,1785102091105.9849
-0.955,-0.164,-0.281,-29.27,-7.63,18.74,1785102091116.538
-0.941,-0.18,-0.279,-26.12,-6.53,16.94,1785102091129.7358
-0.932,-0.189,-0.285,-22.34,-5.13,14.71,1785102091135.835
-0.927,-0.186,-0.284,-19.04,-3.39,12.21,1785102091145.9573
-0.92,-0.179,-0.273,-15.47,-2.14,9.74,1785102091156.429
-0.917,-0.163,-0.259,-10.99,-1.25,7.69,1785102091169.846
-0.921,-0.139,-0.248,-5.01,-0.95,6.26,1785102091175.409
-0.924,-0.121,-0.255,1.5,-0.85,5.31,1785102091185.597
-0.932,-0.092,-0.265,5.74,-0.52,5.04,1785102091195.801
-0.935,-0.073,-0.286,7.35,0.24,6.2,1785102091206.2122
-0.944,-0.084,-0.293,6.1,1.13,7.2,1785102091216.596
-0.95,-0.12,-0.303,3.33,1.65,7.51,1785102091229.8188
-0.954,-0.147,-0.304,-0.21,2.17,7.63,1785102091235.58
-0.943,-0.165,-0.294,-2.41,2.41,8.64,1785102091245.464
-0.924,-0.176,-0.29,-2.04,2.99,9.4,1785102091255.899
-0.915,-0.171,-0.278,-0.21,3.54,9.0,1785102091266.239
-0.908,-0.152,-0.275,2.81,3.81,8.0,1785102091276.653
-0.905,-0.141,-0.285,5.49,4.61,6.41,1785102091289.907
-0.909,-0.139,-0.298,5.71,5.62,4.09,1785102091295.5022
-0.92,-0.142,-0.301,3.6,6.29,1.13,1785102091305.582
-0.931,-0.159,-0.306,0.76,6.41,-1.68,1785102091315.902
-0.932,-0.181,-0.32,-1.53,6.26,-4.49,1785102091326.3108
-0.923,-0.196,-0.347,-4.09,6.13,-7.54,1785102091336.7761
-0.918,-0.216,-0.38,-8.42,6.56,-11.2,1785102091350.0212
-0.916,-0.217,-0.373,-14.47,7.14,-15.14,1785102091355.988
-0.9,-0.214,-0.36,-18.28,6.9,-17.43,1785102091366.136
-0.879,-0.212,-0.37,-19.47,7.14,-18.49,1785102091376.6511
-0.86,-0.208,-0.391,-20.45,8.06,-20.29,1785102091389.755
-0.847,-0.209,-0.416,-21.58,9.55,-22.13,1785102091395.812
-0.85,-0.231,-0.446,-21.55,11.51,-23.44,1785102091406.203
-0.865,-0.254,-0.455,-21.64,13.55,-24.51,1785102091419.517
-0.872,-0.261,-0.451,-20.66,15.23,-23.99,1785102091425.364
-0.87,-0.262,-0.465,-17.15,17.73,-22.22,1785102091435.991
-0.877,-0.245,-0.466,-13.55,21.06,-20.78,1785102091446.514
-0.872,-0.238,-0.461,-10.53,23.38,-19.78,1785102091459.5571
-0.865,-0.246,-0.465,-9.06,25.42,-20.6,1785102091465.744
-0.867,-0.262,-0.459,-8.91,27.5,-22.43,1785102091476.0361
-0.861,-0.28,-0.468,-7.69,29.24,-23.87,1785102091486.737
-0.851,-0.295,-0.518,-5.65,31.31,-26.06,1785102091499.848
-0.848,-0.313,-0.59,-2.62,34.52,-29.36,1785102091505.929
-0.863,-0.337,-0.627,1.62,39.0,-33.05,1785102091516.043
-0.896,-0.361,-0.649,8.61,43.58,-36.32,1785102091526.577
-0.921,-0.398,-0.669,17.58,48.34,-38.97,1785102091539.998
-0.935,-0.409,-0.682,24.51,53.53,-42.39,1785102091545.987
-0.932,-0.407,-0.696,28.44,58.5,-46.57,1785102091556.364
-0.904,-0.403,-0.759,28.44,63.97,-51.24,1785102091569.7039
-0.877,-0.37,-0.826,23.5,69.7,-57.34,1785102091575.7197
-0.876,-0.36,-0.883,17.37,76.14,-63.3,1785102091586.1602
-0.91,-0.37,-0.906,10.19,83.07,-70.04,1785102091596.674
-0.944,-0.416,-0.921,4.55,89.54,-76.27,1785102091609.926
-0.97,-0.488,-0.913,2.17,95.92,-81.33,1785102091615.862
-0.986,-0.561,-0.886,4.46,101.32,-84.9,1785102091626.209
-0.986,-0.591,-0.862,9.67,105.87,-86.61,1785102091639.479
-0.979,-0.591,-0.842,16.91,109.65,-87.56,1785102091645.353
-0.974,-0.569,-0.844,24.26,113.28,-88.9,1785102091656.1978
-0.974,-0.533,-0.851,28.47,116.86,-91.4,1785102091669.4983
-0.973,-0.507,-0.863,29.48,119.88,-94.49,1785102091675.3
-0.963,-0.509,-0.872,28.32,122.35,-97.14,1785102091686.176
-0.951,-0.532,-0.888,26.0,124.21,-99.06,1785102091699.295
-0.945,-0.547,-0.892,22.13,126.35,-99.89,1785102091705.3682
-0.945,-0.573,-0.878,18.04,128.27,-99.98,1785102091715.9949
-0.946,-0.579,-0.844,13.92,129.76,-100.16,1785102091729.269
-0.943,-0.562,-0.813,9.98,130.77,-100.53,1785102091735.46
-0.936,-0.544,-0.779,6.62,131.29,-100.38,1785102091746.058
-0.928,-0.548,-0.762,4.06,130.92,-100.44,1785102091759.341
-0.919,-0.551,-0.77,2.08,129.73,-100.68,1785102091765.29
-0.901,-0.552,-0.791,0.61,128.54,-99.8,1785102091775.9658
-0.884,-0.564,-0.791,0.61,127.93,-98.57,1785102091786.709
-0.872,-0.588,-0.786,2.38,127.38,-98.06,1785102091799.834
-0.857,-0.595,-0.768,4.52,127.32,-97.02,1785102091805.8682
-0.836,-0.573,-0.742,4.64,126.47,-94.88,1785102091816.322
-0.799,-0.536,-0.722,2.47,124.88,-92.5,1785102091829.545
-0.761,-0.517,-0.709,-0.58,122.68,-90.67,1785102091835.784
-0.735,-0.505,-0.707,-5.04,120.18,-89.66,1785102091845.981
-0.709,-0.503,-0.716,-9.77,117.74,-89.33,1785102091856.696
-0.684,-0.517,-0.72,-13.09,115.7,-89.39,1785102091870.057
-0.664,-0.526,-0.719,-14.89,114.2,-89.33,1785102091875.8608
-0.649,-0.514,-0.698,-15.35,112.52,-87.74,1785102091886.783
-0.64,-0.501,-0.685,-15.47,110.26,-85.36,1785102091899.908
-0.629,-0.478,-0.673,-17.4,108.01,-82.71,1785102091905.976
-0.606,-0.482,-0.65,-19.26,105.78,-80.6,1785102091916.612
-0.575,-0.491,-0.641,-20.97,103.12,-79.78,1785102091929.836
-0.537,-0.487,-0.642,-22.03,100.65,-78.25,1785102091936.0051
-0.499,-0.488,-0.647,-21.52,98.45,-76.94,1785102091946.463
-0.47,-0.481,-0.648,-20.72,96.13,-76.63,1785102091959.731
-0.443,-0.467,-0.654,-20.48,93.14,-77.06,1785102091965.683
-0.415,-0.434,-0.664,-21.58,90.06,-77.09,1785102091976.3232
-0.391,-0.402,-0.67,-23.9,87.92,-76.3,1785102091989.5198
-0.378,-0.39,-0.66,-27.53,86.21,-75.11,1785102091995.3752
-0.362,-0.392,-0.637,-31.92,84.17,-73.43,1785102092005.903
-0.338,-0.393,-0.637,-35.8,81.24,-71.47,1785102092016.657
-0.305,-0.385,-0.649,-38.33,79.35,-69.09,1785102092029.747
-0.269,-0.39,-0.648,-38.51,77.85,-66.44,1785102092035.8982
-0.239,-0.396,-0.651,-37.72,75.84,-64.33,1785102092046.2358
-0.219,-0.4,-0.647,-37.6,73.0,-62.2,1785102092059.477
-0.213,-0.406,-0.626,-36.71,70.74,-59.91,1785102092065.4622
-0.198,-0.399,-0.622,-34.18,68.15,-59.3,1785102092075.948
-0.178,-0.375,-0.632,-32.44,64.97,-57.34,1785102092086.7322
-0.153,-0.356,-0.644,-32.14,62.26,-54.81,1785102092099.825
-0.127,-0.336,-0.665,-33.69,59.24,-52.25,1785102092105.833
-0.106,-0.326,-0.671,-36.26,56.43,-48.98,1785102092116.277
-0.096,-0.32,-0.673,-38.73,54.2,-46.63,1785102092129.496
-0.083,-0.312,-0.661,-40.62,52.55,-45.01,1785102092135.666
-0.066,-0.302,-0.65,-41.63,50.45,-43.64,1785102092146.003
-0.046,-0.282,-0.628,-42.39,48.68,-42.09,1785102092156.5981
-0.033,-0.258,-0.61,-42.54,45.93,-39.77,1785102092170.042
-0.019,-0.245,-0.608,-42.45,42.97,-37.32,1785102092175.9482
-0.002,-0.237,-0.625,-42.79,39.92,-34.52,1785102092186.45
0.008,-0.234,-0.641,-43.95,36.81,-30.95,1785102092199.5789
0.014,-0.241,-0.652,-44.53,33.88,-27.47,1785102092205.594
0.023,-0.256,-0.656,-43.52,31.13,-24.23,1785102092215.9949
0.037,-0.269,-0.65,-41.26,28.17,-21.24,1785102092226.654
0.048,-0.288,-0.661,-37.81,25.79,-20.02,1785102092239.916
0.054,-0.288,-0.67,-33.78,24.17,-19.38,1785102092245.855
0.065,-0.287,-0.667,-28.17,22.43,-17.94,1785102092256.406
0.065,-0.287,-0.667,-22.31,20.39,-16.97,1785102092269.761
0.079,-0.284,-0.66,-17.52,17.91,-16.02,1785102092275.5789
0.093,-0.27,-0.669,-14.71,15.9,-14.83,1785102092286.1387
0.105,-0.247,-0.692,-13.67,14.62,-13.55,1785102092296.723
0.113,-0.235,-0.721,-13.55,14.44,-12.54,1785102092309.992
0.111,-0.243,-0.752,-13.55,14.44,-12.54,1785102092315.9868
0.114,-0.263,-0.777,-13.92,14.47,-11.9,1785102092326.401
0.119,-0.281,-0.792,-14.01,14.01,-11.44,1785102092339.756
0.126,-0.299,-0.81,-11.81,13.89,-11.08,1785102092345.621
0.13,-0.303,-0.808,-7.9,14.53,-10.77,1785102092356.071
0.147,-0.297,-0.799,-3.27,14.8,-10.71,1785102092366.6072
0.159,-0.283,-0.812,0.21,14.86,-11.2,1785102092379.8132
0.159,-0.286,-0.83,1.83,15.5,-11.66,1785102092386.401
0.156,-0.289,-0.832,1.74,15.53,-12.15,1785102092396.032
0.164,-0.284,-0.835,0.34,14.44,-11.35,1785102092406.569
0.181,-0.28,-0.844,-1.89,13.09,-10.25,1785102092419.888
0.193,-0.283,-0.88,-3.94,12.18,-9.52,1785102092425.759
0.188,-0.291,-0.922,-5.1,12.63,-9.49,1785102092435.957
0.183,-0.302,-0.946,-5.71,14.28,-9.4,1785102092446.291
0.175,-0.316,-0.966,-5.31,16.79,-9.64,1785102092459.553
0.18,-0.327,-0.96,-4.91,19.99,-10.16,1785102092465.5293
0.193,-0.344,-0.894,-3.51,22.03,-11.6,1785102092475.6821
0.207,-0.343,-0.872,-0.12,22.13,-13.18,1785102092486.449
0.227,-0.319,-0.871,1.28,22.25,-13.89,1785102092499.485
0.228,-0.315,-0.91,1.43,21.94,-14.98,1785102092505.5798
0.22,-0.325,-0.97,0.21,23.16,-16.42,1785102092515.713
0.207,-0.344,-1.0,-1.86,25.82,-17.58,1785102092526.2258
0.203,-0.356,-0.998,-3.2,28.72,-18.16,1785102092539.5078
0.208,-0.365,-0.985,-2.56,31.4,-18.74,1785102092545.392
0.215,-0.366,-0.974,-1.31,33.54,-20.17,1785102092555.718
0.227,-0.369,-0.968,0.24,35.86,-23.16,1785102092566.237
0.235,-0.358,-0.959,0.49,37.87,-26.4,1785102092579.457
0.244,-0.345,-0.959,-0.24,39.16,-28.93,1785102092585.687
0.255,-0.334,-0.962,-1.31,39.67,-30.55,1785102092595.676
0.258,-0.327,-0.979,-3.3,40.31,-30.98,1785102092606.236
0.252,-0.325,-0.998,-7.17,42.09,-31.16,1785102092619.54
0.243,-0.35,-1.013,-10.77,44.8,-31.37,1785102092625.4111
0.237,-0.383,-0.997,-12.85,47.94,-32.14,1785102092636.1458
0.253,-0.39,-0.951,-12.18,49.99,-33.88,1785102092646.525
0.301,-0.371,-0.925,-8.58,50.51,-35.71,1785102092659.7642
0.334,-0.349,-0.932,-4.97,51.0,-37.75,1785102092665.663
0.325,-0.328,-0.947,-4.39,52.06,-40.04,1785102092676.044
0.314,-0.323,-0.956,-6.71,53.1,-41.2,1785102092686.594
0.317,-0.313,-0.95,-11.35,53.93,-40.96,1785102092699.765
0.338,-0.295,-0.931,-15.56,54.57,-39.25,1785102092705.802
0.372,-0.289,-0.922,-17.49,55.45,-37.2,1785102092716.203
0.392,-0.304,-0.92,-16.79,57.16,-36.81,1785102092729.472
0.399,-0.315,-0.911,-16.05,58.9,-37.2,1785102092735.5908
0.405,-0.317,-0.906,-15.17,60.37,-36.35,1785102092745.91
0.401,-0.323,-0.893,-13.64,62.14,-35.0,1785102092756.609
0.412,-0.324,-0.852,-11.78,63.02,-34.24,1785102092769.9739
0.459,-0.308,-0.845,-9.22,62.59,-33.3,1785102092775.7913
0.498,-0.289,-0.858,-8.12,62.87,-31.77,1785102092786.2668
0.51,-0.275,-0.88,-9.67,63.51,-30.61,1785102092796.6511
0.516,-0.285,-0.892,-12.39,64.85,-29.45,1785102092809.8682
0.52,-0.291,-0.876,-15.63,66.13,-28.84,1785102092815.9412
0.521,-0.293,-0.87,-16.69,67.42,-28.05,1785102092826.3901
0.515,-0.298,-0.843,-14.83,69.8,-26.89,1785102092839.627
0.534,-0.289,-0.81,-10.28,71.93,-26.09,1785102092845.5469
0.589,-0.298,-0.793,-3.85,73.49,-25.27,1785102092856.0068
0.622,-0.317,-0.78,0.58,74.28,-26.12,1785102092866.55
0.625,-0.308,-0.77,1.68,74.04,-26.64,1785102092879.7961
0.62,-0.287,-0.75,1.68,73.12,-25.39,1785102092885.9
0.616,-0.263,-0.754,1.46,72.02,-23.68,1785102092895.946
0.611,-0.247,-0.762,0.43,72.3,-23.07,1785102092906.555
0.611,-0.258,-0.746,0.12,72.66,-23.99,1785102092919.8457
0.633,-0.271,-0.739,1.8,73.06,-24.87,1785102092925.652
0.645,-0.318,-0.745,8.12,75.05,-24.96,1785102092936.112
0.644,-0.345,-0.728,15.81,76.57,-25.09,1785102092946.6018
0.679,-0.309,-0.716,22.34,76.05,-23.41,1785102092959.918
0.724,-0.242,-0.693,24.14,74.37,-21.18,1785102092966.5542
0.742,-0.177,-0.677,17.64,73.27,-20.72,1785102092976.3232
0.741,-0.148,-0.659,4.52,73.4,-22.19,1785102092989.655
0.741,-0.16,-0.64,-9.52,73.73,-24.17,1785102092995.539
0.739,-0.209,-0.639,-19.07,74.71,-25.76,1785102093005.9011
0.724,-0.262,-0.621,-22.74,76.02,-28.11,1785102093016.549
0.73,-0.288,-0.605,-20.05,75.5,-31.19,1785102093029.7441
0.744,-0.292,-0.584,-13.09,74.1,-33.81,1785102093035.823
0.748,-0.259,-0.563,-6.29,71.5,-34.12,1785102093046.159
0.759,-0.198,-0.525,-2.26,67.48,-31.89,1785102093056.775
0.786,-0.144,-0.505,-0.43,62.99,-29.02,1785102093070.067
0.808,-0.103,-0.5,-1.16,59.72,-28.14,1785102093075.9011
0.819,-0.06,-0.509,-4.43,56.89,-28.63,1785102093086.293
0.837,-0.062,-0.556,-8.64,56.03,-29.39,1785102093096.6567
0.875,-0.049,-0.588,-15.72,59.57,-29.88,1785102093109.967
0.973,-0.048,-0.561,-22.25,70.5,-24.41,1785102093116.024
1.003,-0.12,-0.448,-27.62,81.91,-15.84,1785102093126.411
0.964,-0.199,-0.393,-33.14,82.37,-12.33,1785102093139.6648
0.983,-0.219,-0.344,-35.89,76.94,-13.21,1785102093145.538
1.048,-0.215,-0.323,-32.5,72.21,-14.56,1785102093156.11
1.012,-0.221,-0.375,-26.55,68.21,-17.64,1785102093166.7522
0.881,-0.172,-0.423,-23.35,65.25,-22.34,1785102093179.9468
0.778,-0.127,-0.442,-20.36,64.94,-23.01,1785102093186.157
0.726,-0.094,-0.433,-17.0,66.07,-21.73,1785102093196.448
0.726,-0.033,-0.414,-12.57,65.77,-19.78,1785102093209.7002
0.754,0.016,-0.392,-6.38,64.09,-16.33,1785102093215.559
0.799,0.019,-0.405,-2.75,61.46,-11.99,1785102093225.988
0.856,0.02,-0.409,-8.97,57.86,-8.88,1785102093236.516
0.899,0.017,-0.367,-22.64,53.47,-6.9,1785102093249.6907
0.91,-0.023,-0.333,-33.17,51.12,-5.86,1785102093255.688
0.897,-0.055,-0.313,-37.2,50.39,-7.35,1785102093265.854
0.886,-0.043,-0.308,-34.58,47.61,-9.25,1785102093276.4531
0.879,-0.025,-0.343,-28.23,44.07,-9.98,1785102093289.7432
0.851,-0.021,-0.38,-24.48,42.54,-10.56,1785102093295.5652
0.839,-0.024,-0.365,-25.7,40.89,-10.68,1785102093306.057
0.865,-0.047,-0.338,-27.71,36.74,-9.19,1785102093316.6653
0.898,-0.07,-0.317,-27.5,32.69,-7.78,1785102093329.818
0.904,-0.072,-0.311,-24.6,28.35,-7.42,1785102093335.861
0.898,-0.067,-0.318,-18.77,24.23,-7.97,1785102093346.0337
0.89,-0.037,-0.322,-12.7,19.9,-9.09,1785102093356.599
0.896,-0.007,-0.341,-8.45,17.12,-9.4,1785102093369.9739
0.908,0.02,-0.342,-8.42,15.99,-8.73,1785102093375.679
0.923,0.038,-0.347,-11.05,15.38,-6.9,1785102093385.993
0.945,0.026,-0.34,-14.1,15.17,-4.64,1785102093396.446
0.966,-0.001,-0.33,-17.52,15.17,-3.81,1785102093409.6638
0.968,0.018,-0.305,-22.16,14.28,-2.99,1785102093415.622
0.977,0.005,-0.315,-23.47,12.94,-1.25,1785102093425.875
0.981,-0.016,-0.328,-26.37,12.82,-2.08,1785102093436.521
0.974,0.014,-0.343,-33.81,13.37,-2.96,1785102093449.763
0.971,0.025,-0.359,-41.29,13.76,-1.37,1785102093455.7432
0.963,0.041,-0.371,-49.32,14.13,0.12,1785102093465.829
0.956,0.047,-0.36,-56.37,14.34,1.62,1785102093476.4312
0.975,0.016,-0.354,-61.04,14.53,1.95,1785102093489.57
0.989,0.015,-0.355,-67.87,15.93,0.58,1785102093495.625
0.985,0.02,-0.353,-76.6,18.28,0.37,1785102093505.899
0.98,0.026,-0.335,-85.36,19.9,1.28,1785102093516.395
0.975,0.051,-0.33,-92.93,20.23,2.32,1785102093529.658
0.965,0.073,-0.324,-99.7,20.63,3.85,1785102093535.739
0.947,0.074,-0.301,-105.08,20.78,5.65,1785102093545.971
0.947,0.074,-0.301,-106.57,20.2,6.9,1785102093556.711
0.938,0.047,-0.273,-102.08,18.95,7.29,1785102093570.015
0.937,0.005,-0.229,-89.88,17.37,6.87,1785102093575.831
0.944,-0.033,-0.191,-72.36,15.26,6.2,1785102093586.313
0.956,-0.041,-0.152,-72.36,15.26,6.2,1785102093596.6777
0.962,-0.029,-0.131,-53.29,12.36,5.95,1785102093609.913
0.964,-0.003,-0.129,-36.96,8.91,6.26,1785102093615.822
0.962,0.015,-0.158,-24.11,5.16,6.59,1785102093625.9739
0.966,0.03,-0.204,-15.87,2.75,6.78,1785102093636.606
0.97,0.048,-0.231,-12.09,1.31,8.18,1785102093649.68
0.977,0.049,-0.242,-9.0,0.89,10.01,1785102093655.615
0.978,0.05,-0.227,-5.37,1.07,10.01,1785102093665.654
0.98,0.05,-0.211,0.0,1.04,8.97,1785102093676.016
0.982,0.054,-0.185,6.35,0.24,8.64,1785102093686.451
0.987,0.038,-0.165,14.83,-1.65,8.51,1785102093699.604
0.98,0.019,-0.158,24.08,-3.6,7.81,1785102093705.6482
0.981,0.007,-0.166,32.53,-5.52,7.51,1785102093715.581
0.984,0.013,-0.196,37.32,-7.14,7.45,1785102093725.939
0.98,0.024,-0.23,37.57,-8.12,7.54,1785102093736.358
0.978,0.025,-0.255,35.19,-9.28,7.72,1785102093749.554
0.983,0.018,-0.276,32.75,-10.38,7.57,1785102093755.317
0.986,0.041,-0.291,30.06,-10.93,7.54,1785102093765.6262
0.991,0.058,-0.297,28.63,-10.53,7.84,1785102093776.4558
0.989,0.049,-0.295,28.72,-9.28,7.17,1785102093789.776
0.981,0.038,-0.294,29.05,-8.3,6.41,1785102093795.484
0.978,0.026,-0.299,28.78,-7.69,6.38,1785102093805.602
0.98,0.007,-0.292,28.5,-7.08,6.44,1785102093815.8772
0.983,-0.012,-0.283,28.69,-7.23,6.23,1785102093826.623
0.987,-0.012,-0.286,29.3,-7.84,6.35,1785102093839.843
0.989,-0.012,-0.28,30.79,-8.15,6.44,1785102093845.5479
0.987,-0.016,-0.279,33.17,-8.27,5.98,1785102093855.735
0.983,-0.013,-0.284,34.79,-8.27,5.37,1785102093866.2122
0.975,-0.007,-0.301,34.94,-7.9,4.79,1785102093876.479
0.965,-0.007,-0.339,33.42,-7.14,4.21,1785102093890.0193
0.974,-0.032,-0.385,29.3,-5.58,3.27,1785102093895.736
0.976,-0.051,-0.394,23.29,-3.97,1.95,1785102093905.8682
0.976,-0.061,-0.392,19.53,-2.59,1.77,1785102093916.3699
0.979,-0.073,-0.383,18.89,-1.53,2.32,1785102093926.822
0.976,-0.079,-0.368,19.17,-0.76,2.75,1785102093940.0718
0.982,-0.073,-0.355,20.23,0.37,2.78,1785102093945.7869
0.982,-0.052,-0.342,21.79,1.65,1.59,1785102093955.9958
0.977,-0.029,-0.337,22.68,2.75,0.27,1785102093966.424
0.973,-0.017,-0.336,20.87,3.51,-0.21,1785102093979.679
0.964,-0.009,-0.325,17.03,3.88,-0.03,1785102093985.66
0.959,-0.001,-0.321,13.49,3.91,0.37,1785102093995.594
0.956,0.002,-0.312,10.25,3.97,0.64,1785102094006.1729
0.954,-0.002,-0.308,7.63,3.91,0.85,1785102094016.4631
0.943,0.0,-0.299,5.19,3.81,0.98,1785102094029.696
0.934,-0.0,-0.288,3.75,3.11,1.31,1785102094035.584
0.928,-0.009,-0.263,4.39,2.01,1.62,1785102094045.3848
0.927,-0.01,-0.234,7.72,0.09,1.95,1785102094055.789
0.93,-0.005,-0.216,13.73,-2.53,2.93,1785102094066.198
0.931,0.01,-0.216,20.26,-5.31,4.55,1785102094076.7578
0.925,0.022,-0.241,25.27,-7.66,6.71,1785102094090.006
0.918,0.026,-0.276,26.25,-8.73,8.58,1785102094095.711
0.909,0.016,-0.312,22.37,-8.91,10.1,1785102094106.008
0.905,-0.01,-0.34,14.31,-9.0,11.93,1785102094116.6711
0.918,-0.051,-0.353,4.7,-9.19,13.76,1785102094129.76
0.94,-0.083,-0.351,-2.87,-10.01,15.32,1785102094135.867
0.963,-0.102,-0.344,-5.71,-10.9,16.72,1785102094145.8672
0.973,-0.117,-0.346,-4.06,-11.26,17.33,1785102094156.499
0.975,-0.132,-0.351,-0.52,-10.74,17.03,1785102094169.9011
0.976,-0.145,-0.356,3.17,-9.7,15.59,1785102094175.6533
0.977,-0.148,-0.347,6.38,-9.06,13.61,1785102094185.8572
0.983,-0.15,-0.342,9.77,-8.94,11.54,1785102094196.207
0.989,-0.147,-0.343,12.24,-8.7,9.31,1785102094206.6902
0.988,-0.135,-0.345,13.0,-8.3,7.29,1785102094219.927
0.986,-0.117,-0.349,12.33,-8.15,5.58,1785102094225.738
0.988,-0.095,-0.351,10.99,-8.18,4.18,1785102094235.898
0.986,-0.081,-0.372,8.79,-7.66,2.87,1785102094246.164
0.979,-0.074,-0.391,5.22,-6.41,0.85,1785102094256.602
0.973,-0.07,-0.39,0.82,-5.46,-0.82,1785102094269.8938
0.974,-0.068,-0.383,-2.99,-4.79,-1.77,1785102094275.454
0.972,-0.063,-0.376,-5.37,-4.33,-2.23,1785102094285.5308
0.968,-0.059,-0.377,-6.13,-4.21,-2.35,1785102094295.861
0.96,-0.055,-0.374,-6.47,-4.09,-2.32,1785102094306.3271
0.953,-0.05,-0.369,-7.11,-4.18,-1.74,1785102094316.6667
0.952,-0.055,-0.377,-8.06,-4.15,-0.89,1785102094329.9048
0.946,-0.065,-0.374,-9.86,-3.66,-1.07,1785102094335.65
0.944,-0.075,-0.371,-11.72,-3.66,-1.46,1785102094345.7
0.946,-0.08,-0.372,-12.48,-3.57,-1.28,1785102094356.155
0.948,-0.084,-0.372,-11.66,-3.39,-1.01,1785102094366.757
0.947,-0.091,-0.37,-9.46,-3.08,-0.95,1785102094379.828
0.938,-0.098,-0.364,-6.35,-2.9,-1.04,1785102094385.539
0.937,-0.101,-0.364,-2.56,-3.27,-0.82,1785102094395.513
0.939,-0.103,-0.357,0.92,-3.27,-0.76,1785102094405.917
0.941,-0.102,-0.357,3.66,-3.39,-0.98,1785102094416.2612
0.936,-0.101,-0.357,5.89,-3.36,-1.5,1785102094426.6611
0.935,-0.1,-0.357,7.9,-3.45,-2.2,1785102094439.9612
0.936,-0.094,-0.364,9.31,-3.69,-2.44,1785102094445.5637
0.935,-0.087,-0.374,9.46,-3.57,-2.84,1785102094455.5928
0.933,-0.086,-0.38,8.76,-3.42,-3.78,1785102094466.049
0.934,-0.089,-0.39,8.18,-3.08,-4.39,1785102094476.322
0.935,-0.095,-0.399,7.57,-2.38,-4.73,1785102094486.819
0.932,-0.098,-0.397,6.5,-1.83,-5.55,1785102094500.0059
0.935,-0.095,-0.396,5.46,-1.8,-6.13,1785102094505.733
0.934,-0.087,-0.389,4.3,-1.53,-6.29,1785102094515.682
0.928,-0.073,-0.386,3.27,-1.31,-6.01,1785102094526.1418
0.926,-0.063,-0.384,1.83,-1.19,-6.01,1785102094536.4531
0.926,-0.061,-0.386,-0.03,-1.07,-6.35,1785102094549.65
0.927,-0.065,-0.385,-1.92,-0.79,-6.68,1785102094555.3438
0.925,-0.063,-0.377,-3.57,-0.76,-6.5,1785102094565.352
0.929,-0.062,-0.38,-4.58,-0.95,-6.35,1785102094575.7383
0.933,-0.061,-0.381,-4.91,-0.79,-6.29,1785102094586.137
0.934,-0.06,-0.375,-4.91,-0.64,-6.32,1785102094596.506
0.934,-0.057,-0.373,-4.36,-0.79,-6.2,1785102094609.7468
0.926,-0.051,-0.366,-3.6,-0.95,-5.92,1785102094615.354
0.924,-0.044,-0.36,-3.14,-1.56,-5.28,1785102094625.3882
0.929,-0.04,-0.361,-3.36,-2.14,-4.79,1785102094635.815
0.932,-0.041,-0.368,-4.21,-2.38,-4.64,1785102094646.203
0.93,-0.044,-0.371,-5.46,-2.35,-4.46,1785102094656.6038
0.928,-0.05,-0.372,-6.23,-2.38,-4.15,1785102094669.874
0.928,-0.051,-0.369,-6.81,-2.5,-3.69,1785102094675.4392
0.927,-0.045,-0.361,-6.59,-3.02,-3.11,1785102094685.5217
0.928,-0.037,-0.356,-6.2,-3.33,-2.56,1785102094695.838
0.926,-0.029,-0.352,-6.56,-3.54,-2.38,1785102094706.261
0.926,-0.025,-0.346,-7.42,-3.91,-2.35,1785102094716.646
0.929,-0.025,-0.345,-8.61,-4.49,-2.44,1785102094729.863
0.929,-0.032,-0.351,-9.52,-4.64,-2.81,1785102094735.631
0.93,-0.039,-0.364,-9.77,-4.64,-3.05,1785102094745.579
0.931,-0.039,-0.376,-9.61,-4.24,-2.72,1785102094755.963
0.931,-0.035,-0.386,-9.09,-3.85,-1.95,1785102094766.316
0.931,-0.035,-0.393,-8.24,-3.2,-1.37,1785102094776.733
0.932,-0.041,-0.391,-7.23,-2.44,-1.19,1785102094789.982
0.932,-0.05,-0.382,-6.16,-1.74,-1.07,1785102094795.61
0.935,-0.057,-0.371,-5.1,-1.31,-0.89,1785102094805.686
0.936,-0.057,-0.37,-4.03,-0.85,-0.61,1785102094815.999
0.935,-0.056,-0.373,-3.27,-0.34,-0.58,1785102094826.3892
0.935,-0.056,-0.373,-2.41,0.0,-0.76,1785102094836.8152
0.932,-0.057,-0.368,-1.43,0.27,-1.13,1785102094850.004
0.934,-0.058,-0.367,-0.09,0.55,-1.4,1785102094855.689
0.933,-0.058,-0.363,1.25,0.64,-1.46,1785102094865.71
0.934,-0.057,-0.36,2.59,0.89,-1.5,1785102094876.1501
0.933,-0.056,-0.363,2.59,0.89,-1.5,1785102094886.505
0.931,-0.049,-0.366,3.66,1.07,-1.62,1785102094899.6968
