ax,ay,az,gx,gy,gz,timestamp_ms
0.779,-0.157,-0.455,45.96,-16.21,33.91,1785101750268.201
0.774,-0.17,-0.45,48.4,-16.66,36.65,1785101750330.475
0.768,-0.18,-0.443,50.66,-17.24,39.86,1785101750330.808
0.76,-0.19,-0.427,51.82,-18.13,43.18,1785101750331.03
0.753,-0.198,-0.412,52.16,-19.5,46.78,1785101750331.3323
0.746,-0.197,-0.403,52.49,-21.24,50.84,1785101750331.5652
0.738,-0.19,-0.398,52.58,-23.5,54.57,1785101750331.785
0.736,-0.186,-0.409,52.4,-25.57,57.19,1785101750332.0022
0.734,-0.196,-0.417,52.16,-26.89,58.99,1785101750332.222
0.73,-0.217,-0.424,51.82,-28.05,60.4,1785101750332.443
0.729,-0.246,-0.437,52.52,-28.87,62.07,1785101750332.66
0.722,-0.268,-0.438,53.8,-29.3,64.06,1785101750332.884
0.72,-0.286,-0.452,55.97,-30.0,67.23,1785101750333.109
0.718,-0.308,-0.472,59.02,-29.79,71.35,1785101750333.3262
0.71,-0.328,-0.486,61.92,-29.3,75.35,1785101750333.5427
0.707,-0.344,-0.498,64.46,-28.63,78.89,1785101750333.7732
0.718,-0.355,-0.478,67.23,-28.26,81.36,1785101750334.017
0.731,-0.369,-0.447,71.87,-29.02,83.25,1785101750334.2268
0.74,-0.384,-0.434,77.0,-30.27,85.42,1785101750334.442
0.741,-0.406,-0.422,81.0,-31.07,87.25,1785101750334.6619
0.724,-0.425,-0.414,83.71,-32.44,88.47,1785101750334.8733
0.706,-0.437,-0.415,85.48,-34.12,90.37,1785101750335.113
0.691,-0.461,-0.433,87.13,-34.85,93.14,1785101750335.359
0.672,-0.484,-0.476,87.89,-34.64,95.89,1785101750335.639
0.647,-0.466,-0.527,86.7,-34.3,100.34,1785101750335.86
0.637,-0.446,-0.54,85.15,-32.62,106.23,1785101750336.069
0.635,-0.458,-0.532,83.62,-31.19,110.9,1785101750336.3098
0.638,-0.49,-0.504,81.91,-29.57,113.32,1785101750336.544
0.622,-0.505,-0.455,79.56,-29.21,114.6,1785101750336.744
0.617,-0.51,-0.419,79.47,-29.6,117.56,1785101750336.946
0.601,-0.518,-0.402,81.55,-30.7,120.58,1785101750337.1638
0.569,-0.485,-0.401,82.67,-32.41,124.06,1785101750337.3691
0.558,-0.496,-0.418,84.26,-33.39,129.43,1785101750337.568
0.531,-0.532,-0.413,80.9,-34.85,130.41,1785101750337.805
0.48,-0.5,-0.404,71.81,-37.84,131.99,1785101750338.035
0.457,-0.469,-0.404,65.4,-39.83,139.96,1785101750338.249
0.435,-0.471,-0.409,60.18,-41.66,147.16,1785101750338.455
0.407,-0.489,-0.42,51.94,-44.19,150.55,1785101750338.659
0.375,-0.552,-0.438,41.29,-47.58,153.05,1785101750338.887
0.35,-0.639,-0.458,31.31,-49.32,153.75,1785101750339.0852
0.309,-0.696,-0.475,21.49,-49.99,152.41,1785101750339.288
0.307,-0.721,-0.479,11.26,-55.15,156.32,1785101750339.49
0.295,-0.722,-0.461,5.74,-58.41,158.51,1785101750339.6868
0.252,-0.684,-0.43,0.46,-59.79,158.94,1785101750339.8909
0.253,-0.667,-0.417,-3.3,-62.81,162.6,1785101750340.091
0.26,-0.766,-0.406,-2.14,-65.74,161.63,1785101750340.2979
0.197,-0.858,-0.383,-1.86,-69.43,154.12,1785101750340.4941
0.147,-0.881,-0.383,1.56,-72.54,154.06,1785101750340.697
0.147,-0.942,-0.426,15.05,-73.27,159.67,1785101750340.905
0.113,-0.949,-0.454,26.49,-74.07,159.43,1785101750341.11
0.081,-0.851,-0.491,29.97,-75.69,161.05,1785101750341.301
0.087,-0.789,-0.554,29.02,-74.47,166.33,1785101750341.497
0.072,-0.749,-0.588,16.66,-71.99,167.3,1785101750341.696
0.042,-0.729,-0.591,-4.79,-69.43,166.6,1785101750341.8838
0.007,-0.79,-0.565,-26.76,-68.0,166.57,1785101750342.0842
-0.034,-0.874,-0.501,-45.01,-68.54,163.91,1785101750342.283
-0.085,-0.959,-0.429,-53.74,-71.11,159.89,1785101750342.48
-0.137,-1.02,-0.402,-52.71,-74.25,156.19,1785101750342.669
-0.181,-1.002,-0.38,-44.98,-77.24,154.27,1785101750342.868
-0.209,-0.923,-0.379,-31.98,-80.84,154.97,1785101750343.067
-0.207,-0.828,-0.428,-18.95,-83.5,158.36,1785101750343.253
-0.194,-0.754,-0.523,-12.51,-83.29,161.11,1785101750343.4482
-0.194,-0.754,-0.523,-17.4,-80.66,159.46,1785101750343.6438
-0.214,-0.742,-0.612,-34.21,-78.65,154.03,1785101750343.8467
-0.281,-0.778,-0.67,-55.06,-76.69,149.45,1785101750344.042
-0.338,-0.882,-0.698,-72.66,-74.04,144.93,1785101750344.242
-0.394,-1.035,-0.683,-81.7,-72.7,140.54,1785101750344.4429
-0.444,-1.147,-0.585,-81.7,-72.7,140.54,1785101750344.637
-0.486,-1.145,-0.449,-77.73,-75.81,137.91,1785101750344.83
-0.493,-1.05,-0.378,-60.4,-79.65,140.63,1785101750345.0298
-0.46,-0.935,-0.391,-35.68,-81.21,142.49,1785101750345.234
-0.457,-0.801,-0.429,-15.35,-80.57,139.1,1785101750345.4258
-0.469,-0.742,-0.529,-3.39,-79.29,136.42,1785101750345.621
-0.506,-0.792,-0.654,-5.37,-78.74,133.18,1785101750345.8208
-0.586,-0.841,-0.687,-23.01,-78.01,127.48,1785101750346.022
-0.647,-0.847,-0.662,-43.61,-76.3,125.64,1785101750346.2168
-0.668,-0.828,-0.627,-57.89,-73.4,128.03,1785101750346.448
-0.666,-0.805,-0.589,-65.19,-71.08,131.02,1785101750346.648
-0.671,-0.748,-0.537,-69.0,-70.96,129.95,1785101750346.835
-0.687,-0.67,-0.49,-70.99,-71.81,126.59,1785101750347.0342
-0.7,-0.621,-0.481,-73.0,-73.27,124.15,1785101750347.2231
-0.712,-0.633,-0.518,-75.96,-74.95,122.1,1785101750347.413
-0.738,-0.705,-0.55,-77.21,-75.29,119.08,1785101750347.595
-0.788,-0.769,-0.582,-73.95,-74.74,114.84,1785101750347.784
-0.839,-0.782,-0.575,-65.95,-73.31,111.61,1785101750347.981
-0.871,-0.741,-0.54,-53.87,-72.97,110.08,1785101750348.167
-0.865,-0.673,-0.515,-39.25,-72.54,110.11,1785101750348.3572
-0.857,-0.612,-0.491,-24.84,-71.23,110.23,1785101750348.5498
-0.861,-0.564,-0.475,-12.15,-69.86,109.68,1785101750348.7393
-0.873,-0.532,-0.49,-1.95,-68.67,108.74,1785101750348.9202
-0.884,-0.514,-0.494,5.43,-67.17,107.7,1785101750349.109
-0.897,-0.518,-0.504,11.96,-65.74,106.14,1785101750349.3162
-0.904,-0.52,-0.51,18.25,-63.66,105.32,1785101750349.504
-0.915,-0.515,-0.502,24.63,-61.56,104.86,1785101750349.6902
-0.924,-0.495,-0.5,30.58,-59.42,105.08,1785101750349.897
-0.933,-0.477,-0.496,35.25,-56.31,105.01,1785101750350.086
-0.943,-0.46,-0.507,37.48,-52.92,104.01,1785101750350.2678
-0.956,-0.433,-0.511,35.89,-49.29,102.33,1785101750350.453
-0.961,-0.414,-0.511,31.5,-45.41,100.19,1785101750350.667
-0.959,-0.408,-0.504,25.79,-41.38,96.38,1785101750350.865
-0.956,-0.405,-0.485,19.5,-37.57,90.91,1785101750351.046
-0.954,-0.409,-0.463,14.89,-34.15,84.75,1785101750351.231
-0.949,-0.408,-0.446,12.39,-31.16,78.01,1785101750351.417
-0.938,-0.398,-0.453,10.8,-28.11,70.86,1785101750351.599
-0.923,-0.394,-0.464,9.74,-24.11,63.39,1785101750351.7827
-0.914,-0.404,-0.47,9.83,-20.14,54.17,1785101750351.9749
-0.917,-0.412,-0.461,9.67,-17.27,43.4,1785101750352.18
-0.924,-0.396,-0.443,8.3,-15.66,33.33,1785101750352.375
-0.918,-0.368,-0.427,6.62,-14.53,25.54,1785101750352.56
-0.906,-0.336,-0.427,4.64,-13.28,18.92,1785101750352.747
-0.897,-0.318,-0.438,1.5,-11.23,11.38,1785101750352.9248
-0.897,-0.298,-0.437,-4.18,-9.43,4.12,1785101750353.109
-0.894,-0.289,-0.426,-11.02,-8.09,-2.72,1785101750353.2878
-0.898,-0.28,-0.427,-18.46,-7.17,-8.15,1785101750353.459
-0.902,-0.258,-0.397,-26.95,-6.35,-11.6,1785101750353.642
-0.87,-0.258,-0.41,-34.76,-5.55,-12.79,1785101750353.8252
-0.855,-0.332,-0.44,-37.78,-1.22,-17.7,1785101750354.01
-0.887,-0.314,-0.409,-41.41,0.92,-21.21,1785101750354.199
-0.901,-0.272,-0.373,-42.54,0.82,-18.43,1785101750354.378
-0.891,-0.263,-0.384,-40.47,0.15,-15.75,1785101750354.561
-0.867,-0.257,-0.362,-39.12,0.12,-14.56,1785101750354.7341
-0.841,-0.286,-0.341,-34.15,0.43,-14.95,1785101750354.918
-0.809,-0.341,-0.346,-24.96,1.22,-17.73,1785101750355.094
-0.819,-0.378,-0.359,-14.1,1.59,-21.06,1785101750355.268
-0.845,-0.324,-0.364,-6.78,1.68,-17.82,1785101750355.473
-0.852,-0.274,-0.368,2.2,3.97,-9.25,1785101750355.665
-0.852,-0.274,-0.358,12.27,5.74,-4.18,1785101750355.844
-0.858,-0.257,-0.358,17.27,4.33,-5.04,1785101750356.068
-0.855,-0.234,-0.351,15.99,3.3,-4.7,1785101750356.263
-0.846,-0.241,-0.344,12.63,3.23,-2.35,1785101750356.462
-0.844,-0.248,-0.344,9.22,3.14,-0.85,1785101750356.654
-0.842,-0.26,-0.346,7.08,2.38,-0.15,1785101750356.8489
-0.835,-0.28,-0.369,7.05,1.74,-1.59,1785101750357.028
-0.852,-0.285,-0.39,7.48,2.23,-4.27,1785101750357.228
-0.867,-0.289,-0.399,7.05,3.6,-5.83,1785101750357.425
-0.879,-0.295,-0.399,5.74,4.24,-6.44,1785101750357.606
-0.875,-0.308,-0.399,3.08,4.21,-6.81,1785101750357.795
-0.875,-0.309,-0.377,0.95,4.46,-8.12,1785101750357.986
-0.881,-0.31,-0.357,2.38,4.82,-9.67,1785101750358.164
-0.886,-0.312,-0.348,4.7,4.79,-9.77,1785101750358.366
-0.885,-0.298,-0.359,5.43,4.73,-9.55,1785101750358.557
-0.879,-0.287,-0.36,4.12,4.88,-9.77,1785101750358.7441
-0.88,-0.279,-0.367,1.13,4.82,-11.05,1785101750358.9539
-0.881,-0.274,-0.368,-3.45,4.97,-12.88,1785101750359.1418
-0.884,-0.275,-0.373,-8.15,5.16,-14.4,1785101750359.3228
-0.886,-0.281,-0.381,-12.76,5.8,-14.86,1785101750359.505
-0.888,-0.276,-0.366,-16.97,5.98,-14.59,1785101750359.68
-0.894,-0.269,-0.337,-18.49,4.97,-14.28,1785101750359.8872
-0.889,-0.268,-0.322,-17.67,3.97,-13.67,1785101750360.07
-0.889,-0.256,-0.314,-17.43,2.99,-13.37,1785101750360.247
-0.881,-0.255,-0.318,-18.04,2.14,-12.3,1785101750360.429
-0.872,-0.279,-0.332,-18.98,1.68,-12.36,1785101750360.613
-0.875,-0.301,-0.338,-20.05,1.5,-12.91,1785101750360.79
-0.878,-0.303,-0.338,-19.56,1.65,-12.15,1785101750360.96
-0.874,-0.294,-0.347,-16.85,1.95,-10.59,1785101750361.135
-0.873,-0.286,-0.352,-12.67,2.14,-9.83,1785101750361.3079
-0.876,-0.269,-0.35,-8.51,1.68,-9.22,1785101750361.474
-0.864,-0.266,-0.344,-4.24,1.5,-8.76,1785101750361.6462
-0.852,-0.274,-0.336,0.12,1.5,-9.06,1785101750361.818
-0.852,-0.288,-0.336,4.33,1.28,-9.86,1785101750361.9832
-0.856,-0.299,-0.344,8.24,1.16,-10.16,1785101750362.161
-0.865,-0.3,-0.355,11.99,1.04,-9.8,1785101750362.3403
-0.869,-0.291,-0.359,15.38,0.79,-8.7,1785101750362.513
-0.866,-0.288,-0.364,19.14,0.73,-6.99,1785101750362.6821
-0.868,-0.289,-0.369,22.03,0.52,-5.86,1785101750362.8591
-0.864,-0.283,-0.38,22.43,-0.24,-5.22,1785101750363.025
-0.866,-0.271,-0.386,19.93,-0.89,-4.61,1785101750363.19
-0.865,-0.265,-0.385,16.21,-1.07,-3.48,1785101750363.356
-0.866,-0.261,-0.382,12.18,-1.37,-2.41,1785101750363.52
-0.874,-0.238,-0.356,2.93,-3.57,0.7,1785101750363.8442
-0.867,-0.233,-0.34,-1.43,-5.49,2.41,1785101750364.011
-0.904,-0.147,-0.361,-25.24,-1.8,-1.43,1785101750364.342
-0.901,-0.154,-0.353,-22.37,-1.59,-1.98,1785101750364.5088
-0.902,-0.149,-0.341,-18.56,-1.5,-2.01,1785101750370.45
-0.906,-0.134,-0.345,-14.4,-1.59,-1.43,1785101750383.769
-0.906,-0.122,-0.356,-11.9,-1.5,-0.92,1785101750389.3582
-0.907,-0.11,-0.364,-11.81,-0.98,-0.79,1785101750399.6921
-0.905,-0.113,-0.371,-12.97,-0.43,-0.92,1785101750410.156
-0.907,-0.109,-0.365,-14.86,0.0,-1.07,1785101750423.45
-0.907,-0.115,-0.355,-15.87,-0.03,-0.73,1785101750428.986
-0.904,-0.126,-0.349,-15.93,0.0,-0.92,1785101750439.3433
-0.901,-0.129,-0.346,-14.92,0.06,-1.65,1785101750449.861
-0.901,-0.125,-0.335,-12.63,-0.09,-2.04,1785101750460.33
-0.902,-0.113,-0.338,-9.74,-0.31,-1.68,1785101750473.576
-0.907,-0.108,-0.352,-8.15,-0.18,-1.16,1785101750479.069
-0.915,-0.107,-0.355,-8.76,0.4,-1.13,1785101750489.179
-0.918,-0.118,-0.354,-9.61,0.67,-1.22,1785101750499.637
-0.916,-0.124,-0.351,-9.64,0.7,-1.07,1785101750510.029
-0.914,-0.126,-0.341,-8.97,0.52,-0.82,1785101750520.462
-0.91,-0.124,-0.339,-8.03,0.03,-0.43,1785101750533.612
-0.907,-0.12,-0.339,-7.51,-0.24,-0.09,1785101750539.1592
-0.904,-0.115,-0.332,-7.29,-0.4,-0.15,1785101750549.4011
-0.901,-0.101,-0.327,-7.29,-0.79,0.12,1785101750559.647
-0.9,-0.098,-0.337,-7.05,-1.16,0.79,1785101750570.2742
-0.904,-0.096,-0.341,-7.6,-1.37,1.16,1785101750580.506
-0.905,-0.109,-0.346,-8.15,-1.56,1.62,1785101750593.894
-0.904,-0.126,-0.352,-8.03,-1.68,1.83,1785101750599.248
-0.903,-0.139,-0.35,-7.23,-1.83,2.04,1785101750609.5413
-0.904,-0.139,-0.34,-5.92,-2.04,2.11,1785101750620.0518
-0.903,-0.132,-0.327,-4.55,-2.59,1.95,1785101750630.3518
-0.896,-0.123,-0.325,-4.21,-3.08,1.8,1785101750640.573
-0.893,-0.125,-0.336,-4.7,-3.14,1.13,1785101750653.9258
-0.9,-0.123,-0.348,-6.29,-2.99,0.06,1785101750659.6401
-0.903,-0.116,-0.354,-8.51,-2.66,-0.43,1785101750669.8188
-0.904,-0.114,-0.353,-10.56,-2.35,-0.7,1785101750680.1309
-0.906,-0.117,-0.355,-12.39,-2.47,-1.13,1785101750690.6208
-0.909,-0.124,-0.353,-13.49,-2.53,-1.65,1785101750703.922
-0.91,-0.132,-0.344,-13.61,-2.93,-1.92,1785101750709.7012
-0.908,-0.134,-0.34,-12.67,-3.85,-1.46,1785101750719.5798
-0.908,-0.135,-0.351,-11.93,-4.79,-1.04,1785101750730.039
-0.905,-0.131,-0.362,-13.0,-5.01,-0.4,1785101750740.753
-0.898,-0.137,-0.37,-14.01,-4.97,0.18,1785101750758.4287
-0.892,-0.145,-0.375,-14.68,-4.82,0.27,1785101750760.9712
-0.887,-0.144,-0.37,-15.05,-4.79,0.58,1785101750769.846
-0.883,-0.139,-0.365,-14.98,-5.04,1.07,1785101750780.4868
-0.885,-0.133,-0.366,-15.11,-5.1,1.28,1785101750790.859
-0.886,-0.13,-0.367,-15.38,-4.73,1.22,1785101750804.0051
-0.89,-0.131,-0.362,-15.63,-4.18,0.82,1785101750809.705
-0.89,-0.131,-0.371,-15.47,-3.97,0.67,1785101750820.285
-0.89,-0.13,-0.371,-15.53,-3.72,0.43,1785101750830.539
-0.888,-0.136,-0.37,-15.75,-3.57,0.0,1785101750843.669
-0.887,-0.139,-0.372,-15.96,-3.11,-0.61,1785101750849.767
-0.886,-0.137,-0.367,-16.05,-2.78,-1.04,1785101750859.7332
-0.887,-0.134,-0.37,-15.32,-2.53,-1.8,1785101750870.5972
-0.891,-0.133,-0.373,-14.68,-2.2,-2.78,1785101750880.474
-0.897,-0.132,-0.371,-14.37,-1.65,-3.57,1785101750893.8032
-0.9,-0.13,-0.365,-14.13,-0.98,-4.33,1785101750899.5251
-0.899,-0.127,-0.354,-14.04,-0.34,-4.73,1785101750909.834
-0.9,-0.125,-0.347,-13.89,0.0,-5.52,1785101750920.664
-0.906,-0.118,-0.348,-14.04,0.55,-6.41,1785101750931.187
-0.906,-0.119,-0.361,-14.77,1.19,-7.14,1785101750944.0342
-0.915,-0.105,-0.373,-17.46,1.95,-8.06,1785101750949.8198
-0.916,-0.107,-0.372,-20.14,2.75,-8.06,1785101750959.708
-0.91,-0.123,-0.366,-20.81,3.42,-8.45,1785101750970.2021
-0.909,-0.135,-0.361,-19.44,3.81,-8.88,1785101750983.687
-0.911,-0.142,-0.36,-15.78,4.21,-8.88,1785101750989.597
-0.916,-0.149,-0.362,-11.23,4.49,-9.06,1785101750999.438
-0.918,-0.146,-0.365,-7.72,4.61,-9.49,1785101751009.845
-0.916,-0.14,-0.377,-5.86,4.88,-10.04,1785101751020.606
-0.912,-0.136,-0.384,-5.77,5.62,-10.62,1785101751033.7322
-0.903,-0.135,-0.389,-6.1,6.23,-11.14,1785101751039.494
-0.892,-0.134,-0.399,-6.32,6.81,-11.32,1785101751049.4531
-0.892,-0.119,-0.399,-6.65,7.05,-11.02,1785101751060.15
-0.892,-0.115,-0.407,-6.38,6.87,-10.44,1785101751070.6958
-0.894,-0.125,-0.421,-6.32,7.2,-10.65,1785101751083.649
-0.893,-0.139,-0.424,-6.35,8.03,-11.02,1785101751089.465
-0.887,-0.156,-0.425,-5.1,8.82,-11.26,1785101751099.742
-0.883,-0.163,-0.428,-3.17,9.67,-11.29,1785101751110.2231
-0.882,-0.151,-0.418,-2.04,10.35,-11.29,1785101751120.776
-0.875,-0.147,-0.422,-1.31,10.71,-11.66,1785101751133.952
-0.869,-0.147,-0.442,-1.95,11.63,-12.67,1785101751140.0308
-0.87,-0.15,-0.443,-3.57,12.79,-13.7,1785101751150.306
-0.874,-0.152,-0.449,-4.33,13.52,-14.25,1785101751160.8
-0.876,-0.167,-0.464,-3.45,14.68,-14.37,1785101751174.1309
-0.884,-0.174,-0.49,-2.81,16.33,-14.53,1785101751179.741
-0.893,-0.166,-0.499,-2.93,18.4,-14.53,1785101751190.2468
-0.894,-0.173,-0.495,-2.14,20.23,-14.47,1785101751200.808
-0.887,-0.181,-0.482,-0.46,21.94,-14.1,1785101751213.927
-0.878,-0.193,-0.465,2.32,23.26,-13.21,1785101751219.98
-0.879,-0.193,-0.463,5.22,23.74,-12.7,1785101751230.603
-0.883,-0.186,-0.465,7.26,24.05,-12.09,1785101751240.703
-0.884,-0.19,-0.474,8.82,24.02,-12.02,1785101751254.139
-0.877,-0.202,-0.493,9.86,24.29,-12.42,1785101751259.626
-0.867,-0.213,-0.505,10.83,24.69,-13.03,1785101751270.3428
-0.856,-0.228,-0.512,13.28,25.33,-13.82,1785101751283.61
-0.851,-0.234,-0.523,16.75,26.61,-15.11,1785101751289.8308
-0.851,-0.215,-0.524,18.68,28.02,-15.5,1785101751300.089
-0.853,-0.2,-0.521,19.62,29.05,-15.08,1785101751310.7659
-0.859,-0.186,-0.524,18.68,30.09,-14.8,1785101751323.88
-0.865,-0.176,-0.532,16.3,31.04,-14.16,1785101751329.8281
-0.867,-0.181,-0.537,13.7,31.89,-13.09,1785101751340.2231
-0.86,-0.187,-0.546,10.83,32.72,-12.21,1785101751353.7869
-0.855,-0.201,-0.561,8.61,33.42,-11.81,1785101751359.224
-0.853,-0.209,-0.565,6.81,34.36,-11.84,1785101751369.985
-0.841,-0.217,-0.576,7.26,36.04,-11.81,1785101751380.311
-0.819,-0.225,-0.59,11.2,39.0,-11.66,1785101751393.7651
-0.815,-0.22,-0.579,18.4,43.15,-10.44,1785101751399.8079
-0.822,-0.232,-0.557,27.71,47.49,-8.42,1785101751410.077
-0.836,-0.265,-0.546,36.19,50.75,-7.45,1785101751420.747
-0.844,-0.285,-0.551,42.54,52.37,-7.05,1785101751433.9148
-0.846,-0.283,-0.566,46.05,52.71,-6.68,1785101751439.565
-0.841,-0.281,-0.583,47.49,51.85,-6.81,1785101751450.2231
-0.834,-0.271,-0.61,47.82,50.94,-8.94,1785101751460.6577
-0.826,-0.267,-0.643,47.55,50.87,-11.9,1785101751473.708
-0.826,-0.267,-0.643,46.02,52.52,-15.32,1785101751479.487
-0.821,-0.276,-0.672,43.67,54.63,-18.43,1785101751490.3281
-0.82,-0.293,-0.669,40.99,55.85,-20.75,1785101751504.093
-0.822,-0.297,-0.663,38.51,56.52,-22.31,1785101751509.5732
-0.821,-0.298,-0.649,38.51,56.52,-22.31,1785101751520.599
-0.821,-0.299,-0.646,35.89,56.61,-24.17,1785101751530.5972
-0.82,-0.292,-0.656,32.23,56.67,-26.22,1785101751543.9429
-0.811,-0.298,-0.672,28.6,57.31,-28.93,1785101751549.893
-0.805,-0.318,-0.68,25.21,58.29,-31.92,1785101751560.441
-0.797,-0.348,-0.683,22.74,59.57,-34.97,1785101751573.74
-0.789,-0.382,-0.692,21.49,60.73,-38.27,1785101751579.629
-0.787,-0.39,-0.692,20.11,62.04,-40.83,1785101751590.155
-0.78,-0.377,-0.686,18.43,62.75,-42.05,1785101751600.602
-0.764,-0.357,-0.696,16.6,63.2,-43.12,1785101751614.1301
-0.752,-0.344,-0.712,14.65,64.12,-43.64,1785101751620.3088
-0.74,-0.347,-0.722,11.17,65.52,-43.92,1785101751630.504
-0.736,-0.37,-0.732,6.68,66.81,-44.86,1785101751643.884
-0.737,-0.402,-0.73,2.9,67.81,-46.24,1785101751649.2842
-0.722,-0.42,-0.731,2.04,68.67,-47.55,1785101751659.904
-0.708,-0.422,-0.738,4.39,70.04,-48.71,1785101751670.7441
-0.699,-0.42,-0.767,7.87,72.3,-49.96,1785101751683.5469
-0.69,-0.423,-0.782,11.26,75.87,-50.36,1785101751689.3389
-0.684,-0.436,-0.77,14.34,79.1,-50.33,1785101751700.136
-0.681,-0.436,-0.77,14.74,80.57,-50.08,1785101751710.742
-0.676,-0.415,-0.767,11.47,81.45,-49.1,1785101751723.9502
-0.662,-0.422,-0.779,7.87,81.73,-48.95,1785101751729.7769
-0.657,-0.431,-0.806,3.91,82.77,-50.66,1785101751740.285
-0.653,-0.46,-0.824,0.61,83.77,-53.07,1785101751750.8372
-0.644,-0.466,-0.84,-3.14,84.6,-55.48,1785101751764.26
-0.635,-0.48,-0.84,-6.62,85.18,-56.55,1785101751769.813
-0.626,-0.484,-0.848,-10.68,85.3,-57.25,1785101751780.286
-0.613,-0.477,-0.854,-14.71,85.09,-57.95,1785101751793.591
-0.591,-0.483,-0.857,-16.72,85.24,-58.57,1785101751799.172
-0.579,-0.478,-0.857,-18.19,85.06,-59.72,1785101751809.877
-0.561,-0.485,-0.865,-18.37,85.21,-60.91,1785101751820.8489
-0.542,-0.5,-0.872,-17.91,85.85,-62.38,1785101751834.059
-0.527,-0.497,-0.881,-18.16,86.25,-63.57,1785101751839.545
-0.515,-0.494,-0.887,-19.9,86.4,-63.48,1785101751850.524
-0.509,-0.487,-0.904,-23.99,86.28,-62.84,1785101751863.874
-0.499,-0.478,-0.904,-29.54,86.7,-61.46,1785101751869.9783
-0.487,-0.484,-0.889,-33.42,86.95,-60.15,1785101751880.125
-0.466,-0.485,-0.876,-35.1,87.22,-59.39,1785101751890.795
-0.44,-0.5,-0.882,-34.39,87.13,-59.05,1785101751904.1973
-0.422,-0.501,-0.881,-33.36,87.62,-59.42,1785101751909.964
-0.401,-0.495,-0.878,-31.31,87.31,-59.27,1785101751920.384
-0.382,-0.49,-0.892,-29.21,86.7,-58.87,1785101751933.692
-0.374,-0.483,-0.899,-28.53,86.55,-58.23,1785101751939.72
-0.365,-0.482,-0.899,-29.6,86.52,-57.71,1785101751950.145
-0.35,-0.454,-0.885,-31.37,85.73,-56.73,1785101751960.822
-0.324,-0.434,-0.89,-30.24,85.57,-54.9,1785101751973.9058
-0.318,-0.418,-0.897,-31.56,85.42,-54.32,1785101751979.765
-0.312,-0.401,-0.884,-34.49,84.87,-53.35,1785101751990.518
-0.297,-0.419,-0.873,-36.38,84.35,-51.33,1785101752004.253
-0.287,-0.457,-0.848,-36.77,84.26,-49.99,1785101752009.7092
-0.275,-0.48,-0.826,-35.07,82.52,-49.65,1785101752020.3298
-0.251,-0.48,-0.826,-30.92,80.39,-49.41,1785101752030.883
-0.223,-0.455,-0.832,-26.34,78.13,-49.68,1785101752044.4128
-0.197,-0.404,-0.856,-24.26,75.93,-50.2,1785101752049.804
-0.192,-0.366,-0.881,-25.27,75.17,-50.14,1785101752060.3552
-0.197,-0.345,-0.886,-29.05,75.35,-49.96,1785101752073.671
-0.194,-0.358,-0.867,-32.72,75.99,-49.75,1785101752079.526
-0.181,-0.376,-0.836,-34.85,75.81,-49.23,1785101752090.2778
-0.153,-0.389,-0.812,-34.79,74.92,-47.67,1785101752100.9268
-0.119,-0.402,-0.797,-33.78,73.03,-46.78,1785101752114.1719
-0.092,-0.395,-0.812,-33.45,70.44,-46.78,1785101752120.626
-0.093,-0.386,-0.83,-33.48,68.91,-47.12,1785101752130.4478
-0.099,-0.369,-0.837,-34.03,68.3,-47.73,1785101752143.753
-0.086,-0.34,-0.815,-34.52,67.48,-47.64,1785101752149.792
-0.055,-0.32,-0.809,-34.61,65.55,-46.94,1785101752160.1548
-0.033,-0.305,-0.817,-35.4,64.52,-46.05,1785101752173.492
-0.027,-0.305,-0.854,-36.68,63.51,-45.29,1785101752179.471
-0.029,-0.324,-0.864,-39.74,64.06,-45.59,1785101752190.056
-0.022,-0.339,-0.846,-41.6,64.15,-45.9,1785101752200.479
0.008,-0.33,-0.814,-40.38,63.94,-44.74,1785101752213.793
0.037,-0.31,-0.802,-36.74,62.5,-44.16,1785101752220.143
0.043,-0.283,-0.812,-34.06,60.88,-43.7,1785101752230.412
0.05,-0.255,-0.807,-33.39,59.05,-42.45,1785101752243.775
0.075,-0.229,-0.8,-33.66,56.09,-41.02,1785101752249.553
0.093,-0.207,-0.792,-35.19,52.4,-38.48,1785101752259.9731
0.11,-0.195,-0.79,-36.87,48.71,-34.3,1785101752270.836
0.127,-0.192,-0.795,-37.35,45.69,-30.24,1785101752283.802
0.148,-0.181,-0.793,-36.74,42.97,-26.18,1785101752289.867
0.17,-0.193,-0.781,-34.33,39.95,-22.71,1785101752300.385
0.188,-0.206,-0.774,-30.58,36.77,-20.39,1785101752313.751
0.185,-0.232,-0.754,-24.96,33.75,-18.95,1785101752319.326
0.182,-0.247,-0.74,-17.33,29.82,-18.01,1785101752330.119
0.192,-0.214,-0.738,-10.13,25.06,-15.02,1785101752340.786
0.198,-0.165,-0.753,-4.67,20.26,-11.11,1785101752354.1628
0.206,-0.095,-0.788,-3.51,16.48,-6.99,1785101752360.042
0.21,-0.049,-0.811,-6.41,14.44,-2.59,1785101752370.2742
0.213,-0.052,-0.827,-11.23,13.82,-0.49,1785101752380.568
0.207,-0.082,-0.828,-16.27,13.67,0.82,1785101752393.815
0.203,-0.125,-0.798,-19.38,12.45,1.46,1785101752399.347
0.21,-0.162,-0.765,-20.02,8.76,1.77,1785101752409.868
0.21,-0.198,-0.745,-16.63,4.27,1.95,1785101752420.5342
0.204,-0.217,-0.747,-10.28,-0.43,1.62,1785101752430.827
0.197,-0.194,-0.783,-5.01,-4.15,1.68,1785101752444.042
0.189,-0.142,-0.837,-4.76,-6.68,3.36,1785101752449.884
0.185,-0.067,-0.888,-11.02,-7.02,6.44,1785101752459.901
0.19,-0.036,-0.889,-18.8,-5.37,8.48,1785101752470.4958
0.187,-0.023,-0.873,-23.96,-4.49,8.64,1785101752480.812
0.199,-0.028,-0.849,-27.13,-4.09,11.54,1785101752494.1812
0.213,-0.073,-0.824,-29.6,-4.94,13.03,1785101752500.0269
0.21,-0.108,-0.831,-32.75,-6.71,12.6,1785101752510.294
0.2,-0.154,-0.841,-35.77,-7.63,13.21,1785101752521.054
0.195,-0.203,-0.851,-35.4,-8.3,12.7,1785101752533.937
0.186,-0.22,-0.871,-32.35,-7.78,11.93,1785101752539.867
0.185,-0.216,-0.876,-28.96,-7.02,11.41,1785101752550.2678
0.198,-0.187,-0.888,-25.42,-5.98,10.53,1785101752560.8252
0.21,-0.164,-0.906,-21.58,-4.7,9.43,1785101752573.945
0.213,-0.154,-0.916,-17.91,-2.99,6.87,1785101752579.5688
0.215,-0.146,-0.913,-14.89,-0.89,4.06,1785101752590.004
0.217,-0.165,-0.879,-12.21,0.58,1.1,1785101752600.616
0.223,-0.179,-0.857,-8.15,0.79,-2.62,1785101752610.9263
0.216,-0.178,-0.861,-2.78,1.1,-5.28,1785101752624.164
0.204,-0.154,-0.87,0.0,2.2,-5.92,1785101752629.792
0.211,-0.127,-0.885,-0.18,2.87,-5.34,1785101752639.5571
0.222,-0.105,-0.922,-2.93,3.54,-4.79,1785101752650.309
0.221,-0.108,-0.939,-6.04,4.85,-4.91,1785101752660.548
0.233,-0.119,-0.955,-8.3,5.52,-5.43,1785101752673.883
0.239,-0.135,-0.957,-10.38,6.38,-6.29,1785101752679.3643
0.238,-0.157,-0.947,-11.29,7.29,-7.54,1785101752689.66
0.236,-0.169,-0.943,-11.47,8.15,-9.09,1785101752700.0251
0.231,-0.173,-0.942,-11.78,8.97,-11.08,1785101752710.666
0.233,-0.156,-0.933,-13.7,10.01,-12.67,1785101752724.129
0.249,-0.134,-0.915,-16.08,10.56,-13.4,1785101752729.5261
0.262,-0.114,-0.918,-17.33,10.74,-14.92,1785101752740.299
0.259,-0.082,-0.951,-19.2,11.6,-16.63,1785101752753.736
0.259,-0.082,-0.951,-22.92,14.16,-18.16,1785101752759.271
0.236,-0.067,-1.005,-28.66,18.37,-20.23,1785101752769.9631
0.203,-0.078,-1.023,-33.88,22.25,-22.16,1785101752780.723
0.198,-0.108,-1.021,-37.6,25.3,-23.44,1785101752794.0117
0.209,-0.148,-0.991,-37.26,26.83,-25.18,1785101752799.959
0.231,-0.17,-0.967,-37.26,26.83,-25.18,1785101752810.236
0.245,-0.156,-0.952,-32.78,27.83,-26.8,1785101752823.643
0.251,-0.122,-0.96,-27.01,29.33,-27.89,1785101752829.7751
0.259,-0.093,-0.954,-23.5,32.38,-29.97,1785101752840.2131
0.257,-0.096,-0.966,-21.3,35.07,-33.2,1785101752850.634
0.252,-0.092,-0.969,-21.39,37.72,-35.71,1785101752864.01
0.259,-0.099,-1.002,-20.48,39.8,-36.65,1785101752870.2542
0.248,-0.099,-1.037,-17.58,42.54,-37.39,1785101752880.3242
0.237,-0.094,-1.059,-15.32,46.02,-37.66,1785101752893.7449
0.232,-0.1,-1.052,-13.92,50.05,-38.21,1785101752899.6812
0.232,-0.117,-1.013,-10.9,54.11,-39.43,1785101752910.228
0.258,-0.129,-0.96,-5.19,56.49,-40.65,1785101752920.9119
0.3,-0.12,-0.921,2.26,56.12,-41.38,1785101752933.871
0.325,-0.079,-0.902,8.94,53.93,-41.93,1785101752939.8079
0.337,-0.034,-0.927,12.63,52.0,-42.3,1785101752950.3127
0.333,-0.013,-0.968,13.61,52.22,-43.37,1785101752960.947
0.31,-0.0,-1.003,11.99,54.14,-44.92,1785101752974.147
0.299,0.003,-1.008,8.7,57.47,-45.47,1785101752980.094
0.306,-0.019,-0.976,6.04,60.12,-45.23,1785101752990.436
0.338,-0.037,-0.956,5.25,61.59,-44.59,1785101753003.735
0.368,-0.046,-0.944,6.1,62.9,-43.43,1785101753010.123
0.399,-0.056,-0.941,7.69,63.17,-42.79,1785101753020.146
0.417,-0.045,-0.939,8.45,63.26,-43.09,1785101753030.4482
0.421,-0.035,-0.93,8.82,63.3,-43.52,1785101753043.613
0.417,-0.029,-0.928,8.42,63.75,-44.22,1785101753049.804
0.406,-0.03,-0.928,9.16,64.06,-44.56,1785101753059.9429
0.405,-0.052,-0.952,12.48,65.98,-44.28,1785101753070.76
0.41,-0.079,-0.929,16.45,69.03,-43.52,1785101753083.959
0.44,-0.063,-0.887,19.84,69.67,-42.12,1785101753089.47
0.49,-0.022,-0.897,23.22,69.46,-40.31,1785101753100.273
0.511,-0.007,-0.905,26.31,70.86,-39.52,1785101753110.9363
0.515,-0.009,-0.89,27.56,72.05,-39.95,1785101753124.021
0.528,0.007,-0.89,25.45,72.66,-39.64,1785101753129.933
0.549,0.003,-0.914,21.58,74.13,-37.93,1785101753140.6702
0.553,-0.007,-0.905,16.11,76.63,-37.35,1785101753154.044
0.569,-0.011,-0.881,12.24,77.73,-36.04,1785101753159.601
0.596,-0.031,-0.887,12.88,78.8,-34.3,1785101753170.1582
0.594,-0.045,-0.856,15.78,80.29,-35.22,1785101753183.5652
0.584,-0.031,-0.812,19.1,80.36,-35.8,1785101753189.577
0.595,-0.002,-0.815,21.15,80.54,-33.85,1785101753200.0388
0.601,0.018,-0.784,20.84,81.24,-32.04,1785101753210.4648
0.625,0.034,-0.77,18.37,80.54,-30.46,1785101753223.9731
0.658,0.043,-0.761,13.89,80.11,-29.39,1785101753229.829
0.669,0.039,-0.752,9.03,79.5,-29.24,1785101753240.0498
0.666,0.026,-0.729,6.07,78.92,-29.36,1785101753250.619
0.663,0.022,-0.735,4.18,78.13,-29.33,1785101753264.04
0.668,0.016,-0.7,1.83,78.8,-29.05,1785101753270.1199
0.669,0.01,-0.653,0.21,77.03,-29.36,1785101753280.122
0.711,0.022,-0.665,-0.12,74.34,-26.86,1785101753290.59
0.712,0.058,-0.614,0.4,72.48,-24.96,1785101753304.1128
0.715,0.073,-0.628,0.12,70.16,-23.13,1785101753309.971
0.731,0.097,-0.626,-4.58,69.37,-21.03,1785101753320.488
0.739,0.113,-0.577,-8.03,68.0,-19.32,1785101753330.786
0.765,0.11,-0.556,-8.48,65.74,-17.3,1785101753344.0781
0.789,0.102,-0.559,-9.64,63.84,-15.08,1785101753350.0103
0.794,0.071,-0.562,-11.41,62.69,-13.4,1785101753360.231
0.781,0.043,-0.551,-11.57,60.61,-13.52,1785101753373.6428
0.773,0.023,-0.561,-8.12,57.92,-13.76,1785101753379.523
0.775,0.02,-0.562,-3.3,55.67,-14.56,1785101753389.908
0.771,0.042,-0.514,0.46,53.22,-15.29,1785101753400.275
0.786,0.057,-0.485,5.89,49.93,-13.64,1785101753413.7017
0.799,0.071,-0.458,11.32,47.06,-12.42,1785101753419.8079
0.815,0.091,-0.463,14.07,43.49,-11.54,1785101753430.046
0.839,0.104,-0.511,12.94,41.6,-9.77,1785101753440.674
0.841,0.108,-0.528,8.97,40.99,-9.09,1785101753453.935
0.846,0.128,-0.514,5.25,39.12,-9.0,1785101753459.7068
0.863,0.144,-0.527,4.3,37.23,-8.73,1785101753469.839
0.863,0.137,-0.536,3.08,37.29,-9.28,1785101753480.2717
0.849,0.121,-0.533,-0.46,37.08,-9.86,1785101753490.5112
0.857,0.059,-0.526,-4.24,37.45,-7.78,1785101753504.1768
0.846,0.001,-0.438,-6.68,36.5,-4.76,1785101753511.1548
0.872,-0.033,-0.434,-2.93,32.44,-1.77,1785101753521.3352
0.884,-0.047,-0.413,4.64,30.15,-2.2,1785101753530.26
0.88,-0.002,-0.391,13.49,26.15,-5.62,1785101753543.627
0.899,0.048,-0.4,22.46,23.01,-8.82,1785101753549.8218
0.89,0.093,-0.386,27.56,20.94,-11.78,1785101753560.43
0.88,0.116,-0.401,28.63,18.65,-12.45,1785101753570.5413
0.861,0.108,-0.41,25.7,16.97,-11.38,1785101753583.772
0.839,0.092,-0.396,20.33,15.32,-8.76,1785101753589.8792
0.837,0.046,-0.383,16.88,13.43,-4.7,1785101753599.9338
0.831,-0.035,-0.375,16.57,11.32,-1.95,1785101753610.57
0.823,-0.116,-0.368,18.71,9.13,-2.14,1785101753623.98
0.81,-0.157,-0.328,23.59,5.28,-4.76,1785101753629.7332
0.817,-0.136,-0.327,32.72,-0.46,-7.35,1785101753639.674
0.817,-0.093,-0.332,43.86,-4.52,-8.91,1785101753650.077
0.787,-0.035,-0.315,52.67,-9.34,-9.98,1785101753660.786
0.786,0.031,-0.353,58.26,-14.28,-8.15,1785101753674.128
0.795,0.055,-0.379,60.3,-16.66,-4.0,1785101753680.052
0.799,0.066,-0.374,58.38,-19.32,1.07,1785101753690.054
0.826,0.09,-0.422,53.74,-22.43,6.53,1785101753700.6772
0.853,0.13,-0.493,45.44,-23.59,8.73,1785101753714.02
0.88,0.131,-0.557,37.63,-22.19,7.75,1785101753719.5881
0.913,0.119,-0.601,32.32,-20.6,5.4,1785101753730.251
0.941,0.115,-0.618,30.09,-18.89,4.0,1785101753740.687
0.941,0.114,-0.619,29.94,-16.69,3.85,1785101753754.168
0.941,0.121,-0.612,29.18,-16.11,5.71,1785101753759.5908
0.953,0.136,-0.626,26.52,-16.45,8.3,1785101753770.044
0.958,0.156,-0.65,21.64,-15.41,9.98,1785101753780.724
0.958,0.163,-0.663,16.08,-13.28,9.43,1785101753794.042
0.975,0.153,-0.654,11.66,-11.05,7.75,1785101753800.069
0.994,0.128,-0.621,9.46,-9.58,6.23,1785101753809.932
0.994,0.105,-0.608,8.7,-8.58,4.39,1785101753820.6
0.962,0.088,-0.572,6.71,-8.15,2.9,1785101753830.8179
0.941,0.081,-0.555,4.61,-9.4,2.81,1785101753844.1921
0.926,0.065,-0.544,4.43,-9.7,3.33,1785101753850.0962
0.913,0.018,-0.55,8.36,-9.03,2.93,1785101753859.7031
0.889,-0.004,-0.553,13.64,-9.19,1.34,1785101753870.655
0.871,0.016,-0.552,19.14,-11.05,0.73,1785101753880.636
0.862,0.076,-0.567,23.04,-12.7,0.89,1785101753893.9688
0.85,0.137,-0.563,22.1,-13.64,1.83,1785101753900.136
0.84,0.152,-0.584,14.98,-13.64,1.83,1785101753910.2048
0.833,0.159,-0.579,2.93,-12.6,1.65,1785101753920.424
0.844,0.148,-0.552,-7.32,-12.36,2.9,1785101753933.9678
0.857,0.112,-0.519,-12.12,-12.94,5.1,1785101753940.643
0.849,0.063,-0.497,-11.32,-13.89,7.69,1785101753949.7449
0.828,0.047,-0.476,-8.45,-14.95,11.51,1785101753960.411
0.803,0.031,-0.463,-5.58,-16.02,17.55,1785101753973.902
0.765,-0.052,-0.469,-3.72,-16.85,20.39,1785101753979.795
0.713,-0.087,-0.46,-3.78,-19.62,18.65,1785101753990.0361
0.687,-0.085,-0.463,-2.23,-24.6,18.95,1785101754000.4412
0.693,-0.071,-0.475,2.81,-29.57,20.33,1785101754013.663
0.706,-0.038,-0.503,11.11,-33.17,21.7,1785101754019.532
0.694,-0.02,-0.526,18.13,-34.15,23.16,1785101754030.208
0.687,-0.028,-0.582,21.67,-34.67,25.64,1785101754040.858
0.687,-0.028,-0.582,21.82,-33.36,28.08,1785101754054.2168
0.69,-0.043,-0.622,18.89,-33.36,30.73,1785101754059.721
0.704,-0.027,-0.629,14.95,-33.11,33.42,1785101754070.4119
0.753,-0.022,-0.655,9.09,-31.65,34.76,1785101754083.685
0.791,-0.026,-0.647,9.09,-31.65,34.76,1785101754089.545
0.814,-0.05,-0.656,4.82,-30.37,34.52,1785101754099.987
0.812,-0.056,-0.662,1.62,-28.66,34.3,1785101754110.4587
0.807,-0.065,-0.673,-0.49,-26.8,34.94,1785101754123.9062
0.814,-0.106,-0.683,-1.37,-24.51,34.18,1785101754130.032
0.82,-0.153,-0.68,-1.07,-23.04,32.53,1785101754139.998
0.81,-0.156,-0.682,-0.31,-22.95,31.68,1785101754150.5332
0.808,-0.131,-0.677,-0.89,-23.01,30.76,1785101754163.867
0.817,-0.11,-0.683,-1.83,-23.07,28.05,1785101754170.297
0.833,-0.12,-0.709,-2.72,-21.73,24.35,1785101754179.7769
0.838,-0.138,-0.741,-3.27,-19.47,20.51,1785101754190.624
0.827,-0.149,-0.738,-3.05,-17.24,16.94,1785101754203.889
0.827,-0.143,-0.741,-4.18,-16.72,15.63,1785101754209.74
0.836,-0.154,-0.753,-4.46,-15.08,15.41,1785101754220.185
0.827,-0.161,-0.742,-3.11,-12.85,13.76,1785101754230.56
0.836,-0.171,-0.738,0.4,-11.51,12.21,1785101754243.816
0.839,-0.165,-0.739,4.24,-9.95,10.8,1785101754250.132
0.825,-0.111,-0.724,6.5,-9.0,9.95,1785101754259.653
0.822,-0.067,-0.727,6.81,-8.06,9.98,1785101754270.298
0.818,-0.041,-0.714,3.97,-6.16,9.09,1785101754280.631
0.815,-0.041,-0.705,-0.92,-4.76,8.42,1785101754290.8699
0.811,-0.069,-0.704,-6.13,-2.81,7.48,1785101754304.2031
0.804,-0.087,-0.687,-10.22,-1.28,6.29,1785101754309.865
0.807,-0.106,-0.684,-11.02,-0.18,5.65,1785101754319.8508
0.806,-0.116,-0.684,-10.25,1.01,4.94,1785101754330.2322
0.8,-0.125,-0.682,-9.22,1.8,3.6,1785101754340.799
0.797,-0.122,-0.676,-9.03,2.08,2.23,1785101754354.019
0.793,-0.115,-0.687,-10.04,2.53,1.28,1785101754359.4172
0.784,-0.115,-0.698,-10.86,3.66,0.06,1785101754370.2559
0.773,-0.125,-0.71,-11.17,5.19,-0.98,1785101754380.359
0.772,-0.13,-0.699,-11.32,6.32,-1.71,1785101754390.924
0.772,-0.127,-0.678,-10.8,6.56,-1.92,1785101754404.272
0.768,-0.12,-0.668,-9.86,7.08,-1.74,1785101754409.832
0.761,-0.105,-0.656,-9.89,7.66,-1.5,1785101754420.21
0.759,-0.109,-0.652,-10.5,7.93,-2.01,1785101754430.388
0.756,-0.117,-0.641,-11.75,8.27,-3.14,1785101754440.8052
0.754,-0.118,-0.623,-12.36,7.78,-3.69,1785101754454.083
0.753,-0.115,-0.627,-11.38,7.17,-3.63,1785101754459.594
0.745,-0.109,-0.634,-10.22,7.14,-3.66,1785101754470.384
0.738,-0.109,-0.634,-9.55,6.81,-3.2,1785101754480.4028
0.739,-0.111,-0.634,-8.67,6.44,-2.11,1785101754490.921
0.735,-0.109,-0.631,-7.54,6.26,-1.46,1785101754504.0742
0.737,-0.11,-0.619,-6.47,5.92,-0.95,1785101754509.666
0.745,-0.112,-0.617,-6.44,5.07,-0.46,1785101754520.167
0.75,-0.116,-0.623,-6.81,4.7,-0.43,1785101754529.9412
0.745,-0.122,-0.627,-6.71,4.67,-0.15,1785101754540.4329
0.741,-0.131,-0.639,-5.1,4.67,0.37,1785101754550.7961
0.738,-0.134,-0.629,-2.78,4.27,0.49,1785101754563.9128
0.746,-0.134,-0.621,-0.24,3.27,1.31,1785101754570.486
0.75,-0.134,-0.616,2.81,2.75,2.08,1785101754579.768
0.748,-0.13,-0.618,5.65,2.14,2.01,1785101754590.121
0.746,-0.12,-0.628,7.35,1.62,2.11,1785101754600.331
0.746,-0.102,-0.631,7.42,1.22,2.66,1785101754610.91
0.746,-0.094,-0.637,7.23,0.98,2.96,1785101754624.176
0.743,-0.085,-0.652,5.74,0.89,3.02,1785101754629.7422
0.743,-0.087,-0.662,3.36,1.22,3.05,1785101754639.842
0.744,-0.089,-0.661,0.55,1.25,2.84,1785101754650.2322
0.753,-0.098,-0.657,-1.25,1.16,2.62,1785101754660.5771
0.756,-0.108,-0.652,-1.89,1.04,2.38,1785101754673.9011
0.755,-0.114,-0.641,-1.98,0.43,2.41,1785101754679.065
0.76,-0.123,-0.635,-1.4,-0.27,2.11,1785101754689.279
0.759,-0.129,-0.637,0.46,-0.85,1.28,1785101754699.599
0.757,-0.125,-0.637,2.87,-1.43,1.13,1785101754710.039
0.759,-0.119,-0.633,5.34,-2.32,0.85,1785101754720.606
0.759,-0.108,-0.643,7.35,-3.57,0.52,1785101754733.69
0.761,-0.102,-0.663,7.69,-3.72,0.37,1785101754739.156
0.753,-0.089,-0.674,6.13,-3.36,-0.21,1785101754749.388
0.757,-0.081,-0.684,3.94,-3.08,-0.18,1785101754759.739
0.762,-0.088,-0.687,1.92,-2.41,-0.12,1785101754770.3171
0.762,-0.09,-0.679,0.03,-1.98,-0.03,1785101754780.515
0.767,-0.094,-0.666,-1.43,-1.68,0.73,1785101754793.8462
0.767,-0.101,-0.65,-1.65,-1.59,0.89,1785101754799.098
0.76,-0.092,-0.638,-1.68,-2.04,0.95,1785101754809.3738
0.759,-0.08,-0.645,-1.53,-2.14,1.89,1785101754819.999
0.753,-0.083,-0.654,-1.8,-1.86,1.86,1785101754830.3108
0.75,-0.096,-0.668,-2.93,-1.04,1.5,1785101754840.61
0.754,-0.118,-0.676,-3.51,-0.34,1.5,1785101754854.2468
0.753,-0.125,-0.668,-3.48,-0.03,1.4,1785101754859.7021
0.762,-0.128,-0.667,-2.53,0.03,2.2,1785101754870.134
0.762,-0.132,-0.666,-1.16,0.7,2.14,1785101754880.149
0.759,-0.131,-0.654,0.0,1.19,1.95,1785101754890.507
0.76,-0.132,-0.641,1.62,1.04,2.44,1785101754900.8372
0.759,-0.122,-0.638,2.53,0.73,2.69,1785101754914.094
0.757,-0.119,-0.648,2.87,1.19,2.75,1785101754919.4272
0.752,-0.111,-0.649,2.5,1.53,2.35,1785101754929.7239
0.751,-0.104,-0.646,2.35,1.59,2.53,1785101754940.1973
0.752,-0.097,-0.659,1.98,1.77,3.08,1785101754950.5361
0.748,-0.101,-0.661,0.12,2.29,2.72,1785101754960.757
0.752,-0.101,-0.652,-2.75,2.26,2.38,1785101754974.118
0.761,-0.114,-0.654,-3.94,2.17,2.44,1785101754979.786
0.76,-0.126,-0.656,-3.69,2.23,1.68,1785101754989.866
0.757,-0.132,-0.652,-2.23,1.95,1.25,1785101755000.359
0.757,-0.119,-0.651,-0.58,1.22,1.86,1785101755010.461
0.757,-0.106,-0.658,0.43,0.92,2.53,1785101755023.948
0.751,-0.104,-0.661,-0.27,1.01,2.35,1785101755029.507
0.75,-0.11,-0.66,-1.59,1.16,2.08,1785101755039.3127
0.753,-0.117,-0.649,-1.56,1.16,2.38,1785101755049.882
0.753,-0.116,-0.637,-0.06,0.73,2.35,1785101755060.2678
0.75,-0.108,-0.635,1.77,0.0,2.47,1785101755070.827
0.75,-0.097,-0.627,2.44,-0.64,2.59,1785101755083.8489
0.755,-0.1,-0.629,2.41,-1.4,2.29,1785101755089.982
0.757,-0.102,-0.641,2.26,-1.86,1.77,1785101755099.571
0.753,-0.096,-0.657,1.89,-2.23,2.14,1785101755109.973
0.752,-0.101,-0.672,1.04,-2.41,2.69,1785101755120.749
0.752,-0.105,-0.68,-1.25,-2.17,2.69,1785101755130.723
0.753,-0.111,-0.672,-4.03,-2.01,2.87,1785101755143.981
0.762,-0.119,-0.665,-5.37,-2.01,3.27,1785101755149.594
0.76,-0.124,-0.653,-5.19,-1.86,2.9,1785101755159.4429
0.761,-0.125,-0.649,-4.0,-1.95,2.78,1785101755170.259
0.759,-0.127,-0.652,-2.01,-1.8,2.41,1785101755180.4258
0.756,-0.123,-0.652,0.18,-1.74,2.04,1785101755190.852
0.756,-0.122,-0.654,1.53,-2.2,1.86,1785101755204.042
0.76,-0.122,-0.662,1.98,-2.14,1.74,1785101755209.822
0.761,-0.128,-0.664,1.68,-1.92,1.37,1785101755219.8389
0.759,-0.132,-0.663,1.19,-1.83,1.07,1785101755230.0852
0.758,-0.129,-0.659,1.53,-2.01,1.4,1785101755240.5232
0.761,-0.125,-0.664,2.44,-1.92,1.53,1785101755250.8909
0.756,-0.114,-0.661,2.47,-1.65,1.71,1785101755264.144
0.755,-0.11,-0.651,1.86,-1.74,1.95,1785101755270.1409
