ax,ay,az,gx,gy,gz,timestamp_ms
0.443,-0.894,0.076,-12.7,-2.87,9.95,1785101847329.216
0.449,-0.886,0.086,-22.13,-2.26,9.61,1785101847347.5598
0.452,-0.905,0.108,-27.59,-1.5,7.57,1785101847348.0889
0.439,-0.912,0.144,-29.57,-1.71,5.74,1785101847348.5151
0.428,-0.907,0.182,-27.92,-2.84,5.68,1785101847349.069
0.426,-0.92,0.208,-22.13,-3.85,6.56,1785101847349.488
0.428,-0.932,0.231,-15.75,-5.34,6.5,1785101847349.8882
0.439,-0.951,0.237,-9.16,-7.11,6.04,1785101847350.2952
0.438,-0.96,0.219,-3.57,-8.73,4.76,1785101847350.6902
0.433,-0.946,0.189,-1.59,-10.47,4.85,1785101847351.079
0.439,-0.94,0.158,-1.43,-11.75,5.89,1785101847351.479
0.442,-0.93,0.127,-2.47,-12.57,6.84,1785101847351.8828
0.442,-0.913,0.117,-4.52,-12.91,8.06,1785101847352.288
0.447,-0.896,0.115,-7.72,-13.49,8.67,1785101847352.68
0.444,-0.883,0.099,-11.14,-13.92,8.15,1785101847353.081
0.434,-0.885,0.097,-12.94,-13.46,7.72,1785101847353.481
0.418,-0.901,0.089,-11.29,-12.67,7.72,1785101847353.876
0.4,-0.911,0.087,-6.53,-11.63,7.54,1785101847354.208
0.386,-0.902,0.092,-1.01,-10.9,8.24,1785101847354.546
0.398,-0.898,0.088,3.57,-10.22,9.83,1785101847354.884
0.4,-0.892,0.081,4.85,-9.43,10.22,1785101847355.215
0.367,-0.879,0.065,2.93,-8.15,10.62,1785101847355.55
0.329,-0.891,0.016,-0.18,-4.21,11.54,1785101847355.885
0.364,-0.96,0.045,-8.94,-3.91,9.46,1785101847356.223
0.416,-0.943,0.063,-22.31,-5.98,6.32,1785101847356.58
0.416,-0.928,0.057,-26.46,-3.75,8.33,1785101847356.931
0.382,-0.964,0.084,-23.29,-2.01,10.25,1785101847357.2678
0.376,-0.98,0.11,-19.78,-2.26,9.03,1785101847357.623
0.38,-0.984,0.115,-14.62,-2.04,7.11,1785101847357.954
0.385,-0.993,0.112,-9.34,-1.74,7.2,1785101847358.287
0.383,-0.979,0.118,-6.07,-1.89,7.14,1785101847358.615
0.388,-0.96,0.12,-4.12,-2.53,7.39,1785101847358.941
0.39,-0.945,0.111,-3.69,-2.72,7.66,1785101847359.272
0.395,-0.94,0.109,-4.58,-2.93,8.27,1785101847359.616
0.405,-0.934,0.111,-5.31,-3.63,7.57,1785101847359.946
0.395,-0.93,0.095,-4.76,-3.94,6.74,1785101847360.268
0.383,-0.923,0.07,-4.43,-3.88,7.39,1785101847360.5881
0.371,-0.917,0.053,-6.38,-3.66,7.29,1785101847360.9111
0.372,-0.911,0.056,-10.86,-3.6,6.9,1785101847361.234
0.385,-0.917,0.073,-15.5,-3.6,6.47,1785101847361.545
0.395,-0.93,0.083,-17.43,-3.48,5.1,1785101847361.829
0.39,-0.932,0.084,-15.66,-3.42,3.94,1785101847362.1162
0.381,-0.929,0.079,-12.18,-3.2,4.21,1785101847362.398
0.388,-0.946,0.072,-9.25,-2.69,4.46,1785101847362.68
0.39,-0.95,0.081,-7.81,-2.35,3.17,1785101847362.957
0.397,-0.964,0.085,-7.75,-2.47,2.59,1785101847363.2332
0.403,-0.979,0.075,-7.84,-2.59,2.17,1785101847363.518
0.396,-0.981,0.066,-8.03,-2.29,1.28,1785101847363.8
0.39,-0.965,0.059,-8.76,-1.92,0.61,1785101847364.083
0.381,-0.95,0.046,-8.88,-1.68,0.95,1785101847364.362
0.395,-0.958,0.06,-7.51,-1.56,2.11,1785101847364.644
0.397,-0.955,0.082,-4.24,-1.59,0.98,1785101847364.927
0.398,-0.954,0.097,0.27,-1.53,0.21,1785101847365.206
0.396,-0.97,0.092,5.71,-1.01,0.03,1785101847365.481
0.394,-0.973,0.093,9.22,-1.13,-0.4,1785101847365.7642
0.394,-0.967,0.077,11.78,-1.25,-0.95,1785101847366.0647
0.397,-0.958,0.063,11.29,-1.31,-0.67,1785101847366.3489
0.399,-0.931,0.056,8.15,-1.22,-0.12,1785101847366.6292
0.399,-0.912,0.044,5.19,-0.92,0.31,1785101847366.967
0.395,-0.909,0.046,2.17,-1.04,0.0,1785101847367.288
0.395,-0.921,0.049,-0.27,-0.73,-0.4,1785101847367.5688
0.389,-0.937,0.057,-1.65,-0.95,-0.98,1785101847367.8533
0.386,-0.937,0.075,-3.81,-1.8,-1.43,1785101847368.1338
0.397,-0.936,0.072,-5.43,-2.11,-1.19,1785101847368.412
0.394,-0.934,0.058,-6.1,-1.74,-1.28,1785101847368.6973
0.384,-0.934,0.06,-6.07,-1.46,-1.31,1785101847368.979
0.378,-0.949,0.066,-4.91,-1.37,-1.5,1785101847369.2642
0.378,-0.957,0.082,-3.54,-1.28,-1.5,1785101847369.519
0.381,-0.95,0.084,-1.19,-1.4,-1.13,1785101847369.822
0.382,-0.948,0.068,3.02,-1.07,-0.76,1785101847370.084
0.374,-0.954,0.05,5.98,-0.85,-0.89,1785101847370.33
0.367,-0.941,0.065,5.92,-0.92,-0.95,1785101847370.583
0.374,-0.93,0.075,5.37,-0.61,-0.64,1785101847370.836
0.378,-0.937,0.084,4.06,-0.79,-0.61,1785101847371.088
0.383,-0.937,0.099,1.1,-2.44,-1.25,1785101847371.333
0.387,-0.936,0.085,-2.47,-3.48,-1.89,1785101847371.584
0.381,-0.929,0.073,-7.32,-4.06,-1.86,1785101847371.834
0.39,-0.93,0.065,-10.5,-4.18,-1.46,1785101847372.084
0.394,-0.956,0.041,-10.53,-3.57,-1.98,1785101847372.3562
0.38,-0.953,0.047,-11.41,-3.23,-2.47,1785101847372.61
0.38,-0.944,0.072,-10.53,-3.08,-1.56,1785101847372.8672
0.39,-0.945,0.08,-7.39,-2.93,-1.13,1785101847373.113
0.395,-0.955,0.067,-3.97,-2.56,-1.43,1785101847373.369
0.389,-0.948,0.072,-1.71,-2.56,-1.31,1785101847373.623
0.394,-0.943,0.06,0.95,-2.53,-0.7,1785101847373.874
0.394,-0.936,0.054,2.78,-2.14,-0.73,1785101847374.1372
0.392,-0.922,0.046,2.93,-1.71,-0.79,1785101847374.4011
0.389,-0.925,0.044,2.84,-1.01,-0.03,1785101847374.6592
0.387,-0.934,0.048,2.56,-1.07,-0.06,1785101847374.908
0.387,-0.93,0.05,2.08,-1.1,-0.12,1785101847375.1838
0.389,-0.937,0.042,1.53,-0.73,0.06,1785101847375.4421
0.384,-0.932,0.036,0.73,-0.06,0.24,1785101847375.689
0.383,-0.917,0.061,-0.15,0.12,1.22,1785101847375.947
0.387,-0.911,0.079,0.52,-0.58,1.74,1785101847376.2
0.385,-0.917,0.077,1.56,-0.79,1.83,1785101847376.4531
0.378,-0.922,0.076,1.83,-1.25,1.83,1785101847376.708
0.378,-0.931,0.074,1.86,-1.77,2.26,1785101847376.9688
0.378,-0.931,0.074,2.04,-1.77,2.17,1785101847377.2239
0.382,-0.938,0.064,2.11,-1.89,2.11,1785101847377.4468
0.38,-0.937,0.062,2.08,-1.95,2.66,1785101847377.6807
0.386,-0.935,0.06,2.11,-1.89,2.66,1785101847377.918
0.387,-0.941,0.058,2.01,-1.62,2.72,1785101847378.146
0.379,-0.94,0.059,2.01,-1.62,2.72,1785101847378.3958
0.376,-0.934,0.069,2.08,-1.46,3.11,1785101847378.6309
0.38,-0.938,0.079,2.84,-1.68,3.17,1785101847378.863
0.385,-0.935,0.069,3.36,-1.86,2.72,1785101847379.117
0.379,-0.919,0.066,2.9,-1.46,3.2,1785101847379.352
0.376,-0.92,0.071,2.01,-1.31,4.39,1785101847379.585
0.382,-0.936,0.08,1.16,-1.5,4.67,1785101847379.821
0.381,-0.944,0.087,0.67,-1.95,4.12,1785101847380.0562
0.381,-0.945,0.087,0.46,-2.01,4.12,1785101847380.2932
0.379,-0.941,0.081,0.4,-2.01,4.0,1785101847380.539
0.381,-0.937,0.066,1.01,-1.86,3.85,1785101847380.7947
0.381,-0.942,0.054,1.92,-1.13,4.09,1785101847381.028
0.37,-0.948,0.039,2.81,-0.09,4.43,1785101847381.2612
0.362,-0.944,0.051,2.04,0.58,4.73,1785101847381.502
0.368,-0.935,0.085,1.04,0.15,5.28,1785101847381.732
0.379,-0.946,0.093,2.56,0.09,5.52,1785101847381.961
0.374,-0.948,0.098,4.33,-0.09,4.73,1785101847382.186
0.37,-0.934,0.102,5.98,-0.43,4.55,1785101847382.426
0.376,-0.937,0.082,7.54,-0.46,4.82,1785101847382.665
0.373,-0.945,0.053,7.2,-0.27,4.76,1785101847382.893
0.36,-0.942,0.051,5.68,-0.12,4.64,1785101847383.1282
0.358,-0.945,0.061,4.33,-0.06,5.19,1785101847383.358
0.362,-0.948,0.072,2.47,-0.21,4.94,1785101847383.573
0.367,-0.94,0.078,0.09,-0.09,4.82,1785101847383.7869
0.37,-0.939,0.077,-2.11,-0.18,5.13,1785101847384.007
0.367,-0.945,0.078,-3.75,-0.37,5.01,1785101847384.226
0.363,-0.958,0.093,-4.06,-0.31,4.82,1785101847384.438
0.367,-0.96,0.115,-2.87,-0.82,4.79,1785101847384.661
0.375,-0.962,0.103,-0.27,-1.25,4.15,1785101847384.8828
0.374,-0.961,0.073,1.01,-1.1,3.78,1785101847385.0989
0.365,-0.955,0.054,0.73,-0.73,4.03,1785101847385.344
0.365,-0.945,0.05,-0.03,-0.21,4.88,1785101847385.564
0.368,-0.947,0.048,-0.82,0.73,5.25,1785101847385.783
0.367,-0.953,0.058,-1.53,1.5,5.28,1785101847385.996
0.361,-0.942,0.09,-1.71,1.8,5.31,1785101847386.218
0.361,-0.914,0.12,-0.55,1.22,6.26,1785101847386.4473
0.36,-0.919,0.103,2.11,0.95,6.59,1785101847386.6648
0.354,-0.934,0.079,1.95,0.7,6.04,1785101847386.9387
0.352,-0.944,0.066,-1.22,0.43,5.92,1785101847387.183
0.351,-0.942,0.078,-5.1,0.43,5.74,1785101847387.396
0.358,-0.959,0.061,-6.44,0.98,5.16,1785101847387.632
0.356,-0.981,0.035,-7.17,2.17,4.55,1785101847387.864
0.347,-0.983,0.012,-8.24,3.66,4.73,1785101847388.089
0.341,-0.967,0.029,-10.01,4.97,5.55,1785101847388.326
0.348,-0.945,0.089,-11.38,5.19,6.53,1785101847388.547
0.357,-0.947,0.128,-9.67,4.97,7.11,1785101847388.764
0.354,-0.94,0.154,-7.14,3.94,6.9,1785101847388.978
0.346,-0.93,0.153,-4.52,2.11,7.23,1785101847389.199
0.343,-0.935,0.128,-3.08,0.37,8.0,1785101847389.405
0.347,-0.954,0.112,-3.42,-1.01,7.69,1785101847389.603
0.348,-0.961,0.083,-4.55,-1.59,6.78,1785101847389.811
0.35,-0.969,0.029,-4.39,-1.04,7.72,1785101847390.037
0.342,-0.976,-0.015,-3.88,1.31,8.82,1785101847390.2551
0.32,-0.976,-0.057,-3.05,3.78,8.94,1785101847390.4531
0.303,-0.971,-0.061,-4.43,6.32,8.85,1785101847390.6938
0.3,-0.942,0.014,-7.84,7.75,9.49,1785101847390.905
0.302,-0.905,0.117,-8.58,7.26,10.16,1785101847391.125
0.302,-0.891,0.164,-6.04,5.65,10.86,1785101847391.344
0.31,-0.89,0.147,-4.06,4.64,9.95,1785101847391.552
0.307,-0.892,0.104,-5.13,3.42,7.63,1785101847391.762
0.305,-0.898,0.045,-9.64,2.62,6.32,1785101847391.9822
0.304,-0.91,-0.013,-15.72,2.87,6.2,1785101847392.1963
0.284,-0.894,-0.047,-21.85,3.78,6.1,1785101847392.427
0.281,-0.899,-0.072,-25.48,5.52,6.13,1785101847392.632
0.296,-0.927,-0.078,-28.17,6.59,4.36,1785101847392.853
0.307,-0.925,-0.057,-32.56,7.35,3.3,1785101847393.075
0.315,-0.935,-0.012,-31.68,9.49,4.3,1785101847393.2842
0.315,-0.955,0.046,-26.25,10.59,4.3,1785101847393.5051
0.323,-0.96,0.085,-19.07,10.32,3.2,1785101847393.7358
0.332,-0.97,0.081,-10.83,10.22,2.2,1785101847393.949
0.33,-0.976,0.058,-5.34,10.1,2.26,1785101847394.1492
0.32,-0.96,-0.012,-1.1,9.37,5.25,1785101847394.7468
0.32,-0.959,-0.024,-1.1,9.67,5.92,1785101847394.9448
-0.901,-0.195,-0.326,-17.67,-5.4,1.4,1785101847395.295
-0.902,-0.197,-0.321,-18.49,-5.62,1.34,1785101847395.4968
-0.898,-0.2,-0.319,-18.77,-5.89,1.07,1785101847395.7
-0.896,-0.204,-0.321,-18.52,-5.95,0.15,1785101847401.8418
-0.899,-0.198,-0.329,-18.13,-6.04,-0.64,1785101847412.2678
-0.902,-0.186,-0.333,-18.37,-5.92,-0.76,1785101847425.573
-0.901,-0.183,-0.338,-19.47,-5.65,-0.76,1785101847431.115
-0.906,-0.188,-0.342,-21.12,-5.55,-1.5,1785101847441.481
-0.912,-0.199,-0.346,-22.98,-6.04,-2.29,1785101847452.085
-0.921,-0.206,-0.365,-24.63,-7.48,-2.41,1785101847465.1821
-0.928,-0.215,-0.403,-26.89,-9.25,-2.01,1785101847470.9011
-0.931,-0.225,-0.441,-31.5,-10.1,-1.92,1785101847481.2422
-0.922,-0.238,-0.455,-37.11,-9.95,-2.08,1785101847491.717
-0.907,-0.25,-0.447,-41.72,-9.09,-2.29,1785101847502.207
-0.892,-0.254,-0.429,-44.56,-8.18,-2.72,1785101847515.4822
-0.879,-0.248,-0.411,-45.5,-6.62,-3.27,1785101847521.1301
-0.875,-0.226,-0.411,-45.87,-5.19,-4.27,1785101847531.498
-0.869,-0.219,-0.428,-46.24,-2.78,-5.77,1785101847541.926
-0.867,-0.221,-0.427,-46.6,0.18,-7.78,1785101847552.5461
-0.864,-0.241,-0.421,-44.56,2.53,-10.22,1785101847565.6208
-0.864,-0.247,-0.405,-40.41,4.79,-12.48,1785101847571.6902
-0.866,-0.249,-0.39,-33.88,6.93,-14.4,1785101847581.964
-0.869,-0.252,-0.375,-26.12,8.79,-16.02,1785101847592.589
-0.875,-0.243,-0.377,-19.44,10.28,-18.1,1785101847605.923
-0.882,-0.227,-0.392,-14.89,11.47,-19.65,1785101847611.7493
-0.89,-0.209,-0.4,-13.0,12.36,-20.87,1785101847622.2861
-0.893,-0.206,-0.416,-12.39,13.03,-22.03,1785101847635.5178
-0.896,-0.208,-0.433,-12.21,14.04,-23.07,1785101847641.505
-0.898,-0.218,-0.439,-11.75,15.2,-23.65,1785101847652.0078
-0.894,-0.224,-0.451,-11.05,16.24,-23.96,1785101847665.268
-0.89,-0.234,-0.45,-9.74,17.82,-24.26,1785101847671.2861
-0.888,-0.24,-0.441,-8.42,18.89,-24.69,1785101847681.4612
-0.891,-0.235,-0.432,-7.97,19.41,-24.63,1785101847692.053
-0.888,-0.226,-0.437,-7.78,19.44,-24.26,1785101847705.1748
-0.881,-0.224,-0.448,-8.45,19.71,-24.32,1785101847711.1838
-0.87,-0.231,-0.472,-9.8,20.39,-25.27,1785101847721.569
-0.859,-0.241,-0.501,-11.11,21.58,-26.06,1785101847732.125
-0.849,-0.242,-0.518,-12.51,22.92,-26.09,1785101847745.387
-0.837,-0.25,-0.527,-13.18,23.9,-25.94,1785101847751.2869
-0.829,-0.269,-0.533,-12.57,25.21,-26.43,1785101847761.8518
-0.836,-0.277,-0.534,-11.72,26.83,-26.7,1785101847772.5188
-0.849,-0.284,-0.528,-10.65,28.23,-26.43,1785101847785.853
-0.862,-0.292,-0.522,-9.31,29.21,-25.7,1785101847791.816
-0.866,-0.298,-0.524,-7.35,30.37,-24.75,1785101847802.031
-0.858,-0.307,-0.53,-4.58,32.2,-23.9,1785101847812.573
-0.848,-0.31,-0.531,-1.25,34.18,-22.83,1785101847825.8992
-0.837,-0.317,-0.542,2.32,36.16,-22.46,1785101847831.725
-0.837,-0.325,-0.546,5.77,37.57,-22.74,1785101847842.0251
-0.844,-0.331,-0.543,8.79,38.24,-23.44,1785101847855.407
-0.843,-0.34,-0.556,11.11,38.67,-24.63,1785101847861.4668
-0.838,-0.357,-0.585,12.24,40.01,-26.83,1785101847871.723
-0.837,-0.376,-0.608,12.85,42.27,-30.03,1785101847882.232
-0.84,-0.386,-0.62,14.01,44.5,-32.62,1785101847895.5
-0.842,-0.392,-0.631,15.47,46.72,-34.76,1785101847901.4531
-0.845,-0.375,-0.638,16.02,49.01,-36.29,1785101847912.0269
-0.845,-0.375,-0.638,16.69,50.84,-37.11,1785101847925.2961
-0.839,-0.364,-0.629,18.22,52.28,-39.06,1785101847931.16
-0.83,-0.376,-0.627,20.14,53.65,-41.38,1785101847941.72
-0.825,-0.394,-0.621,23.19,55.18,-43.64,1785101847952.466
-0.823,-0.419,-0.628,27.1,56.92,-45.96,1785101847965.545
-0.826,-0.444,-0.635,27.1,56.92,-45.96,1785101847971.689
-0.827,-0.465,-0.641,31.83,58.63,-48.71,1785101847981.985
-0.823,-0.481,-0.652,36.68,59.91,-51.64,1785101847995.2542
-0.819,-0.487,-0.665,40.5,61.28,-54.2,1785101848001.222
-0.812,-0.481,-0.677,42.94,63.14,-56.12,1785101848011.729
-0.816,-0.464,-0.676,43.12,64.76,-57.62,1785101848022.3733
-0.819,-0.456,-0.67,41.47,65.49,-58.41,1785101848035.7517
-0.815,-0.46,-0.668,38.7,65.92,-59.18,1785101848041.6692
-0.803,-0.475,-0.665,35.86,66.04,-60.03,1785101848052.11
-0.783,-0.488,-0.671,33.97,66.26,-61.16,1785101848065.303
-0.765,-0.497,-0.682,33.2,66.44,-61.74,1785101848071.4163
-0.76,-0.501,-0.674,32.75,67.02,-61.92,1785101848081.7761
-0.762,-0.498,-0.668,31.77,67.63,-62.23,1785101848092.427
-0.76,-0.51,-0.679,30.46,67.9,-63.11,1785101848106.3472
-0.758,-0.527,-0.676,28.84,68.12,-64.12,1785101848111.682
-0.749,-0.543,-0.672,28.11,67.96,-65.13,1785101848122.221
-0.733,-0.563,-0.681,28.41,68.0,-66.29,1785101848135.377
-0.724,-0.573,-0.673,28.75,68.51,-67.14,1785101848141.4521
-0.717,-0.575,-0.666,28.38,68.54,-68.09,1785101848152.011
-0.707,-0.577,-0.68,27.22,68.42,-69.06,1785101848162.526
-0.697,-0.585,-0.689,25.51,69.19,-70.16,1785101848175.7852
-0.682,-0.589,-0.685,23.5,70.56,-71.47,1785101848181.63
-0.672,-0.566,-0.672,20.87,71.26,-71.9,1785101848192.259
-0.659,-0.54,-0.689,17.21,70.35,-71.02,1785101848205.523
-0.645,-0.517,-0.73,9.98,69.83,-69.7,1785101848211.3918
-0.632,-0.521,-0.742,0.67,69.77,-68.27,1785101848221.7112
-0.618,-0.553,-0.735,-8.18,69.64,-67.51,1785101848232.275
-0.605,-0.593,-0.719,-14.07,69.58,-67.32,1785101848245.53
-0.595,-0.631,-0.687,-15.14,69.09,-67.54,1785101848251.481
-0.573,-0.658,-0.684,-12.67,68.15,-68.09,1785101848261.9773
-0.549,-0.671,-0.717,-9.74,67.93,-69.0,1785101848272.5288
-0.535,-0.651,-0.753,-10.56,68.79,-70.07,1785101848285.849
-0.528,-0.618,-0.752,-13.76,68.94,-70.59,1785101848291.746
-0.511,-0.604,-0.76,-14.8,68.88,-69.95,1785101848302.254
-0.505,-0.615,-0.773,-17.7,69.22,-70.8,1785101848315.428
-0.508,-0.615,-0.771,-22.58,69.52,-71.75,1785101848321.44
-0.501,-0.63,-0.755,-24.45,70.04,-70.86,1785101848331.904
-0.487,-0.654,-0.727,-23.41,69.89,-70.47,1785101848345.158
-0.468,-0.655,-0.721,-20.78,69.09,-71.47,1785101848351.1438
-0.441,-0.645,-0.726,-19.01,68.61,-71.93,1785101848361.674
-0.418,-0.622,-0.731,-21.3,67.66,-71.84,1785101848372.601
-0.395,-0.607,-0.755,-26.43,66.53,-72.05,1785101848385.556
-0.378,-0.618,-0.776,-32.5,66.93,-72.57,1785101848391.1682
-0.373,-0.632,-0.775,-37.26,67.93,-74.01,1785101848401.9429
-0.364,-0.626,-0.768,-39.0,68.33,-75.32,1785101848415.347
-0.346,-0.604,-0.765,-39.37,67.96,-75.72,1785101848421.2952
-0.328,-0.592,-0.751,-40.44,67.42,-75.26,1785101848431.694
-0.313,-0.592,-0.751,-42.82,67.14,-74.62,1785101848442.511
-0.298,-0.589,-0.756,-45.84,66.93,-73.7,1785101848455.656
-0.277,-0.594,-0.753,-47.46,66.93,-72.79,1785101848461.563
-0.259,-0.602,-0.763,-47.79,66.81,-72.79,1785101848472.148
-0.241,-0.594,-0.759,-48.28,66.41,-72.76,1785101848485.349
-0.226,-0.582,-0.76,-48.68,65.55,-72.08,1785101848490.934
-0.207,-0.563,-0.774,-50.05,64.55,-70.89,1785101848501.7832
-0.197,-0.546,-0.774,-52.1,63.45,-69.83,1785101848512.3892
-0.187,-0.532,-0.768,-54.57,62.72,-68.79,1785101848525.651
-0.174,-0.531,-0.771,-56.98,62.44,-67.66,1785101848531.637
-0.159,-0.52,-0.765,-59.27,62.29,-65.52,1785101848542.1309
-0.131,-0.51,-0.753,-59.54,61.8,-62.41,1785101848555.495
-0.103,-0.503,-0.748,-57.71,60.61,-59.94,1785101848561.292
-0.092,-0.479,-0.755,-55.27,59.33,-57.47,1785101848571.842
-0.083,-0.45,-0.738,-53.16,57.83,-53.68,1785101848582.398
-0.068,-0.426,-0.72,-51.61,55.51,-49.99,1785101848595.676
-0.045,-0.41,-0.729,-51.24,53.47,-46.66,1785101848601.606
-0.033,-0.406,-0.736,-52.28,52.25,-44.1,1785101848612.158
-0.028,-0.398,-0.741,-53.41,51.15,-41.54,1785101848625.428
-0.017,-0.395,-0.751,-53.16,50.2,-38.67,1785101848631.3127
-0.006,-0.383,-0.761,-51.85,49.5,-35.55,1785101848641.881
0.006,-0.373,-0.76,-49.68,49.13,-32.69,1785101848652.844
0.019,-0.342,-0.753,-48.25,47.21,-30.06,1785101848665.781
0.036,-0.326,-0.746,-45.96,45.47,-26.7,1785101848671.808
0.044,-0.304,-0.736,-44.47,42.7,-23.22,1785101848682.188
0.05,-0.29,-0.723,-43.12,40.07,-19.5,1785101848695.4902
0.058,-0.288,-0.716,-42.39,36.99,-16.08,1785101848701.5093
0.062,-0.293,-0.732,-42.36,34.64,-13.03,1785101848712.049
0.053,-0.306,-0.741,-42.15,33.88,-10.16,1785101848722.588
0.045,-0.326,-0.73,-40.07,33.94,-7.63,1785101848736.0798
0.037,-0.331,-0.683,-34.67,33.66,-5.31,1785101848741.811
0.041,-0.319,-0.598,-25.7,30.82,-2.32,1785101848752.019
0.059,-0.308,-0.532,-15.75,25.42,-0.09,1785101848762.5742
0.071,-0.309,-0.515,-6.23,19.26,-0.27,1785101848775.809
0.08,-0.292,-0.544,0.64,13.34,-1.53,1785101848781.5781
0.092,-0.245,-0.613,3.36,9.03,-1.62,1785101848791.6392
0.088,-0.199,-0.675,1.04,6.96,-0.4,1785101848802.016
0.082,-0.187,-0.712,-6.16,5.71,0.49,1785101848812.345
0.08,-0.207,-0.722,-15.35,5.13,0.73,1785101848825.671
0.078,-0.24,-0.693,-22.71,4.33,1.19,1785101848831.1438
0.074,-0.275,-0.636,-25.03,2.38,1.98,1785101848841.629
0.098,-0.309,-0.593,-22.58,-1.53,3.2,1785101848852.0378
0.132,-0.312,-0.622,-16.48,-5.68,3.08,1785101848862.5742
0.147,-0.284,-0.692,-11.35,-7.93,3.48,1785101848875.802
0.136,-0.282,-0.76,-9.31,-8.03,2.72,1785101848881.645
0.114,-0.291,-0.791,-10.28,-7.39,0.95,1785101848891.61
0.112,-0.312,-0.791,-9.31,-6.68,-0.03,1785101848902.008
0.127,-0.309,-0.784,-4.7,-7.08,-0.18,1785101848912.374
0.149,-0.281,-0.797,0.52,-8.09,-0.06,1785101848925.6582
0.162,-0.262,-0.821,2.9,-9.28,-0.12,1785101848931.238
0.169,-0.259,-0.839,0.64,-10.5,-0.79,1785101848941.3992
0.167,-0.257,-0.853,-4.91,-12.21,-1.53,1785101848951.875
0.17,-0.274,-0.88,-10.07,-13.28,-1.53,1785101848962.451
0.165,-0.304,-0.899,-12.3,-13.06,-2.38,1785101848975.679
0.163,-0.322,-0.922,-11.78,-12.51,-3.42,1785101848981.578
0.171,-0.326,-0.938,-9.98,-12.09,-3.57,1785101848991.745
0.177,-0.301,-0.947,-9.89,-12.57,-2.84,1785101849002.4377
0.188,-0.297,-0.97,-10.96,-12.88,-1.56,1785101849015.522
0.188,-0.307,-0.988,-13.89,-12.3,-1.56,1785101849021.569
0.178,-0.303,-0.996,-18.07,-11.9,-1.68,1785101849031.703
0.177,-0.297,-1.01,-22.58,-11.23,-0.73,1785101849042.393
0.179,-0.313,-1.025,-25.91,-9.55,-0.7,1785101849055.691
0.172,-0.343,-1.031,-26.61,-7.08,-1.98,1785101849061.3142
0.171,-0.368,-1.027,-23.26,-4.15,-3.57,1785101849071.512
0.163,-0.383,-0.999,-17.46,-2.04,-5.46,1785101849081.9058
0.162,-0.393,-0.979,-10.93,-1.28,-7.75,1785101849092.3489
0.161,-0.386,-0.97,-4.79,-0.34,-10.19,1785101849105.7642
0.157,-0.386,-0.97,1.22,1.07,-12.24,1785101849111.44
0.153,-0.373,-0.984,6.56,2.69,-14.31,1785101849121.581
0.144,-0.356,-0.995,10.28,4.73,-16.08,1785101849132.082
0.143,-0.338,-0.992,11.05,6.65,-17.82,1785101849145.353
0.149,-0.321,-0.994,9.58,8.36,-19.38,1785101849151.01
0.164,-0.319,-1.006,7.14,10.19,-21.15,1785101849161.2107
0.174,-0.324,-1.007,5.52,12.85,-23.38,1785101849172.134
0.171,-0.329,-1.002,6.68,15.44,-25.21,1785101849185.2852
0.167,-0.33,-1.002,9.31,17.43,-26.25,1785101849191.2288
0.158,-0.336,-0.998,11.66,19.14,-27.07,1785101849201.5732
0.158,-0.336,-0.998,13.12,20.81,-28.02,1785101849212.1938
0.145,-0.347,-1.007,11.87,23.19,-28.78,1785101849225.469
0.128,-0.339,-1.049,7.14,26.22,-29.18,1785101849231.387
0.13,-0.321,-0.978,7.08,26.61,-31.74,1785101849241.7852
0.155,-0.359,-0.923,7.08,26.61,-31.74,1785101849252.3389
0.186,-0.363,-0.923,9.43,26.37,-35.43,1785101849265.522
0.193,-0.343,-0.943,11.99,27.07,-37.9,1785101849271.5872
0.186,-0.334,-0.971,12.73,28.32,-40.13,1785101849281.889
0.173,-0.326,-0.983,9.61,29.08,-42.45,1785101849292.4412
0.167,-0.328,-0.982,5.25,29.79,-43.7,1785101849305.8691
0.164,-0.333,-0.973,1.31,30.82,-44.34,1785101849311.624
0.166,-0.341,-0.97,-1.68,32.5,-44.98,1785101849321.935
0.157,-0.345,-0.959,-4.43,34.61,-46.39,1785101849332.6777
0.157,-0.343,-0.952,-6.59,36.19,-48.04,1785101849345.865
0.173,-0.345,-0.951,-7.29,37.63,-49.81,1785101849351.653
0.195,-0.33,-0.931,-7.17,38.97,-51.91,1785101849361.9949
0.231,-0.315,-0.933,-5.71,39.58,-53.59,1785101849372.4922
0.261,-0.297,-0.958,-5.89,39.83,-55.6,1785101849385.72
0.267,-0.294,-0.994,-9.58,40.68,-57.62,1785101849391.648
0.263,-0.311,-1.027,-16.42,42.51,-59.45,1785101849402.05
0.255,-0.327,-1.025,-24.41,44.86,-60.61,1785101849415.245
0.257,-0.329,-1.011,-30.15,46.85,-60.55,1785101849421.288
0.266,-0.325,-0.994,-32.62,48.74,-60.21,1785101849431.659
0.276,-0.321,-0.965,-32.59,50.45,-61.07,1785101849442.406
0.296,-0.309,-0.946,-30.82,51.45,-62.32,1785101849455.791
0.324,-0.299,-0.949,-27.56,52.55,-63.17,1785101849461.5413
0.348,-0.288,-0.949,-24.96,54.05,-63.97,1785101849471.878
0.365,-0.273,-0.965,-23.38,55.85,-64.33,1785101849485.307
0.379,-0.277,-0.984,-22.86,58.35,-64.88,1785101849491.009
0.381,-0.27,-0.983,-23.47,60.46,-66.1,1785101849501.826
0.397,-0.261,-0.996,-23.35,61.77,-66.19,1785101849512.4202
0.405,-0.258,-1.002,-22.92,64.03,-65.43,1785101849525.677
0.4,-0.245,-0.989,-23.47,66.44,-64.85,1785101849531.606
0.413,-0.235,-0.966,-23.99,68.88,-63.63,1785101849542.1272
0.437,-0.207,-0.932,-25.82,70.96,-62.59,1785101849555.516
0.47,-0.183,-0.925,-27.86,72.82,-61.13,1785101849561.311
0.497,-0.164,-0.901,-29.02,74.56,-60.18,1785101849571.857
0.519,-0.133,-0.888,-28.44,74.92,-59.05,1785101849582.419
0.537,-0.111,-0.883,-26.46,75.66,-57.04,1785101849595.704
0.542,-0.083,-0.864,-25.91,76.3,-55.82,1785101849601.609
0.553,-0.069,-0.859,-26.61,77.06,-54.81,1785101849612.194
0.569,-0.071,-0.883,-29.05,78.71,-54.17,1785101849625.4429
0.575,-0.067,-0.874,-34.15,81.42,-53.62,1785101849631.316
0.585,-0.061,-0.855,-38.7,82.67,-51.97,1785101849641.9001
0.606,-0.054,-0.831,-41.41,83.01,-49.1,1785101849652.8552
0.615,-0.032,-0.791,-42.7,82.34,-45.99,1785101849665.7158
0.634,-0.011,-0.782,-41.66,82.25,-42.82,1785101849671.9
0.618,-0.008,-0.758,-40.01,83.71,-41.66,1785101849681.942
0.618,0.013,-0.748,-40.31,84.48,-39.28,1785101849695.432
0.639,0.052,-0.755,-40.44,85.33,-35.13,1785101849701.3582
0.664,0.029,-0.78,-40.8,88.38,-32.99,1785101849711.911
0.655,0.024,-0.732,-44.68,90.3,-32.26,1785101849722.598
0.688,0.032,-0.736,-44.34,89.63,-28.23,1785101849735.987
0.722,0.027,-0.739,-40.5,90.55,-23.5,1785101849741.776
0.717,0.009,-0.718,-37.39,92.62,-21.09,1785101849752.3809
0.7,0.003,-0.642,-36.65,92.99,-19.78,1785101849765.4988
0.718,-0.008,-0.561,-33.23,90.82,-17.76,1785101849771.5479
0.752,0.001,-0.512,-27.19,87.13,-17.76,1785101849781.951
0.769,0.038,-0.501,-20.97,83.62,-19.71,1785101849795.24
0.766,0.09,-0.489,-16.45,80.51,-22.13,1785101849801.164
0.781,0.143,-0.521,-14.13,77.67,-23.1,1785101849811.741
0.8,0.165,-0.573,-14.1,76.33,-22.49,1785101849822.361
0.797,0.168,-0.631,-17.49,76.2,-21.33,1785101849835.79
0.778,0.165,-0.667,-24.45,77.36,-19.84,1785101849841.5588
0.754,0.151,-0.604,-31.74,77.91,-18.62,1785101849852.0498
0.756,0.149,-0.529,-35.13,75.08,-16.24,1785101849865.252
0.797,0.139,-0.512,-34.52,72.73,-12.21,1785101849871.39
0.817,0.142,-0.51,-36.26,72.12,-10.01,1785101849881.6772
0.815,0.151,-0.517,-41.57,72.36,-8.7,1785101849892.291
0.814,0.149,-0.496,-47.76,72.85,-7.48,1785101849905.6858
0.827,0.152,-0.467,-50.94,71.69,-6.26,1785101849911.5059
0.842,0.157,-0.462,-48.59,69.77,-4.27,1785101849921.8518
0.85,0.14,-0.477,-42.63,69.19,-3.36,1785101849932.383
0.835,0.11,-0.489,-37.39,69.19,-5.28,1785101849945.577
0.821,0.103,-0.482,-34.55,69.55,-7.75,1785101849951.457
0.811,0.131,-0.431,-32.99,68.64,-8.03,1785101849961.7478
0.847,0.166,-0.397,-30.88,66.16,-5.55,1785101849972.3389
0.896,0.18,-0.414,-29.88,64.97,-2.41,1785101849985.723
0.902,0.197,-0.402,-33.05,65.43,-1.25,1785101849991.1628
0.897,0.196,-0.41,-37.6,65.07,-0.49,1785101850001.8718
0.897,0.164,-0.419,-42.57,65.95,-0.98,1785101850012.2869
0.896,0.162,-0.4,-49.04,67.11,-1.86,1785101850025.5781
0.982,0.155,-0.405,-51.3,70.89,-0.37,1785101850031.4163
1.211,0.171,-0.418,-50.23,84.63,1.28,1785101850041.7878
1.536,0.132,-0.182,-44.95,117.86,6.2,1785101850052.8828
1.315,-0.033,0.126,-37.2,133.12,13.55,1785101850065.72
0.965,-0.053,0.165,-25.27,118.23,12.24,1785101850072.0442
0.937,0.085,0.078,-9.67,102.69,6.62,1785101850082.21
0.977,0.221,-0.118,-7.66,101.5,-3.36,1785101850095.4531
0.879,0.343,-0.325,-22.46,104.07,-17.64,1785101850101.354
0.75,0.4,-0.377,-46.6,105.66,-24.51,1785101850111.978
0.722,0.36,-0.306,-70.83,107.09,-17.85,1785101850125.325
0.755,0.273,-0.155,-85.94,105.59,-5.65,1785101850131.155
0.813,0.199,0.008,-88.78,96.8,7.26,1785101850141.6802
0.879,0.155,0.158,-80.72,84.63,16.48,1785101850152.239
0.907,0.124,0.294,-66.04,74.8,17.15,1785101850165.549
0.898,0.121,0.334,-51.06,66.53,9.8,1785101850171.606
0.88,0.146,0.267,-43.28,57.62,0.82,1785101850181.788
0.89,0.171,0.177,-43.09,48.62,-3.3,1785101850192.3552
0.918,0.158,0.118,-43.06,40.5,-2.5,1785101850205.7432
0.929,0.135,0.1,-38.21,32.93,-0.55,1785101850211.5999
0.929,0.116,0.107,-27.13,25.85,0.92,1785101850221.885
0.93,0.106,0.144,-13.09,19.35,1.92,1785101850232.357
0.93,0.123,0.179,-0.18,12.45,2.41,1785101850245.634
0.932,0.17,0.192,7.6,5.13,2.87,1785101850251.036
0.93,0.209,0.175,8.27,-1.77,3.66,1785101850261.43
0.941,0.206,0.139,2.47,-6.96,3.94,1785101850271.7869
0.945,0.193,0.127,-7.29,-10.99,2.56,1785101850282.1902
0.953,0.177,0.102,-14.13,-15.38,1.83,1785101850295.459
0.96,0.177,0.063,-16.14,-19.32,1.5,1785101850301.379
0.969,0.175,0.004,-13.34,-22.19,1.25,1785101850311.731
0.984,0.162,-0.048,-7.75,-22.49,-0.31,1785101850322.2148
0.979,0.169,-0.065,-3.17,-22.1,-2.35,1785101850335.443
0.982,0.186,-0.061,-0.61,-22.98,-1.22,1785101850341.3088
0.994,0.202,-0.054,0.03,-24.17,1.25,1785101850351.338
1.006,0.204,-0.067,-0.46,-24.08,2.11,1785101850361.815
1.005,0.205,-0.064,-2.14,-22.74,0.73,1785101850372.311
1.011,0.201,-0.076,-4.0,-21.27,-0.82,1785101850385.557
1.018,0.201,-0.077,-7.2,-19.75,-1.5,1785101850391.379
1.017,0.194,-0.074,-9.13,-19.17,-1.37,1785101850401.4832
1.009,0.188,-0.09,-8.94,-18.34,-1.28,1785101850411.9402
1.005,0.192,-0.132,-7.75,-17.37,-1.22,1785101850422.451
1.003,0.184,-0.163,-5.74,-15.38,-1.74,1785101850435.688
1.0,0.186,-0.189,-3.66,-12.97,-2.87,1785101850441.6042
1.001,0.19,-0.188,-1.8,-10.59,-3.45,1785101850451.612
1.008,0.186,-0.162,0.03,-10.01,-2.41,1785101850462.078
1.012,0.192,-0.125,2.75,-10.32,-0.89,1785101850472.545
1.007,0.204,-0.104,7.84,-10.1,-0.82,1785101850485.7979
1.007,0.204,-0.104,12.24,-9.19,-1.8,1785101850491.2363
1.001,0.206,-0.106,13.52,-9.09,-3.11,1785101850501.714
0.991,0.207,-0.119,12.39,-8.67,-4.0,1785101850512.227
0.986,0.219,-0.136,10.71,-8.24,-3.3,1785101850525.2961
0.981,0.219,-0.133,10.53,-8.67,-2.14,1785101850531.237
0.985,0.199,-0.145,10.53,-8.67,-2.14,1785101850541.396
0.983,0.193,-0.16,11.51,-8.48,-1.71,1785101850551.878
0.985,0.204,-0.182,13.43,-7.97,-1.77,1785101850562.298
0.98,0.23,-0.192,14.98,-6.87,-2.96,1785101850575.573
0.978,0.241,-0.192,14.65,-6.13,-3.2,1785101850581.331
0.977,0.245,-0.177,11.93,-5.83,-2.2,1785101850591.4722
0.981,0.239,-0.157,9.09,-6.01,-0.46,1785101850601.7769
0.986,0.228,-0.155,7.35,-5.74,0.55,1785101850612.2407
0.985,0.226,-0.154,5.55,-4.88,0.89,1785101850625.5833
0.989,0.212,-0.156,4.24,-4.3,0.61,1785101850631.1428
0.993,0.214,-0.159,2.38,-4.33,0.27,1785101850641.221
1.001,0.208,-0.172,1.46,-4.0,1.01,1785101850651.599
1.0,0.194,-0.174,1.89,-2.78,1.34,1785101850661.999
0.996,0.186,-0.171,3.94,-1.77,1.22,1785101850672.3499
0.991,0.173,-0.173,7.32,-1.1,1.07,1785101850685.586
0.978,0.169,-0.165,9.43,-0.34,0.52,1785101850691.331
0.971,0.172,-0.156,10.47,0.0,0.79,1785101850701.288
0.971,0.169,-0.151,11.41,0.03,0.76,1785101850711.832
0.966,0.184,-0.137,11.72,-0.46,0.12,1785101850722.319
0.966,0.193,-0.129,13.06,-1.28,0.18,1785101850735.521
0.964,0.196,-0.13,14.74,-1.92,-0.21,1785101850741.3772
0.958,0.205,-0.133,16.02,-2.62,-0.98,1785101850751.46
0.954,0.208,-0.146,16.6,-3.2,-1.68,1785101850761.935
0.952,0.208,-0.16,15.72,-3.39,-1.98,1785101850772.428
0.958,0.206,-0.172,13.73,-3.42,-1.92,1785101850785.7979
0.959,0.2,-0.174,11.63,-3.66,-1.46,1785101850791.497
0.961,0.198,-0.175,9.77,-4.27,-1.34,1785101850801.496
0.963,0.196,-0.171,8.48,-4.88,-1.34,1785101850811.855
0.964,0.189,-0.177,7.93,-5.28,-1.31,1785101850822.251
0.955,0.189,-0.174,6.5,-5.16,-1.59,1785101850835.673
0.958,0.192,-0.17,5.55,-6.04,-1.01,1785101850841.175
0.966,0.194,-0.177,5.52,-6.84,-0.79,1785101850851.173
0.96,0.209,-0.168,5.34,-7.2,-0.76,1785101850861.5461
0.962,0.211,-0.168,5.83,-7.9,-0.24,1785101850871.9758
0.96,0.215,-0.178,6.32,-8.27,-0.46,1785101850882.2688
0.952,0.221,-0.179,6.32,-8.09,-0.73,1785101850895.561
0.954,0.213,-0.191,6.87,-8.12,0.03,1785101850901.153
0.954,0.208,-0.202,6.35,-7.75,0.03,1785101850911.206
0.953,0.204,-0.197,5.37,-7.75,0.18,1785101850921.68
0.965,0.188,-0.201,5.31,-8.18,0.85,1785101850932.0168
0.964,0.192,-0.208,5.1,-8.21,1.16,1785101850942.4597
0.962,0.2,-0.214,4.18,-7.78,2.08,1785101850955.761
0.965,0.197,-0.211,2.96,-7.35,2.62,1785101850961.308
0.968,0.201,-0.201,1.56,-7.45,2.69,1785101850971.415
0.972,0.198,-0.196,1.56,-7.29,2.9,1785101850981.6438
0.966,0.201,-0.189,1.8,-7.39,2.72,1785101850992.5088
0.967,0.207,-0.188,2.01,-7.66,2.56,1785101851002.568
0.97,0.209,-0.202,1.77,-7.81,2.35,1785101851015.6501
0.97,0.201,-0.228,0.89,-7.08,2.08,1785101851021.52
0.97,0.186,-0.245,-0.7,-6.01,1.56,1785101851031.334
0.973,0.168,-0.252,-1.68,-5.25,1.07,1785101851041.794
0.975,0.158,-0.236,-1.4,-4.82,0.95,1785101851052.423
0.979,0.165,-0.216,0.73,-5.04,1.59,1785101851062.5278
0.979,0.184,-0.196,4.12,-5.4,2.26,1785101851075.785
0.974,0.2,-0.186,7.66,-5.71,2.35,1785101851081.409
0.968,0.211,-0.177,10.86,-5.65,1.77,1785101851091.5542
0.961,0.224,-0.177,12.33,-6.01,1.4,1785101851102.007
0.958,0.231,-0.184,11.6,-6.26,1.5,1785101851112.4338
0.956,0.23,-0.188,8.76,-6.47,1.59,1785101851125.7322
0.964,0.223,-0.204,5.25,-6.38,1.71,1785101851131.375
0.963,0.222,-0.206,1.04,-5.8,2.17,1785101851141.4111
0.961,0.221,-0.219,-3.08,-5.8,3.27,1785101851151.71
0.964,0.209,-0.228,-6.99,-5.37,4.21,1785101851162.2112
0.959,0.182,-0.229,-9.52,-4.21,4.12,1785101851172.571
0.952,0.155,-0.222,-10.93,-3.02,3.91,1785101851186.072
0.95,0.141,-0.209,-10.93,-2.84,4.52,1785101851191.659
0.953,0.137,-0.193,-9.09,-3.36,5.4,1785101851201.638
0.958,0.142,-0.187,-6.62,-3.91,6.01,1785101851212.0
0.954,0.152,-0.188,-4.55,-4.06,6.07,1785101851222.474
0.948,0.154,-0.197,-3.33,-3.91,5.86,1785101851235.4612
0.938,0.152,-0.196,-3.23,-3.57,5.49,1785101851241.3782
0.932,0.149,-0.184,-2.72,-3.91,5.52,1785101851251.084
0.932,0.144,-0.19,-1.22,-4.15,6.07,1785101851261.771
0.926,0.144,-0.191,-0.43,-4.03,6.96,1785101851272.1091
0.93,0.147,-0.199,-0.4,-4.3,8.18,1785101851282.422
0.938,0.167,-0.213,-2.59,-3.85,9.22,1785101851295.756
0.94,0.186,-0.21,-6.71,-3.11,10.22,1785101851301.4663
0.941,0.192,-0.201,-12.54,-3.11,11.29,1785101851311.722
0.946,0.186,-0.203,-18.01,-3.36,11.87,1785101851322.249
0.95,0.176,-0.202,-21.42,-3.02,11.47,1785101851335.498
0.949,0.165,-0.202,-22.37,-2.56,10.28,1785101851341.4028
0.953,0.155,-0.183,-21.49,-2.99,9.86,1785101851351.652
0.964,0.15,-0.163,-19.47,-4.85,11.17,1785101851362.2332
0.972,0.142,-0.161,-16.66,-6.56,12.05,1785101851375.383
0.974,0.137,-0.163,-13.4,-7.75,11.66,1785101851381.3289
0.977,0.137,-0.172,-10.13,-8.51,10.86,1785101851391.577
0.984,0.138,-0.184,-7.39,-9.34,9.89,1785101851402.036
0.992,0.141,-0.2,-4.94,-10.22,8.94,1785101851412.3982
0.996,0.149,-0.214,-2.9,-10.74,8.42,1785101851425.651
0.996,0.159,-0.231,-1.43,-11.23,8.03,1785101851431.535
0.998,0.167,-0.245,-0.95,-11.44,7.35,1785101851441.646
1.001,0.171,-0.258,-1.31,-10.93,6.16,1785101851452.1611
1.005,0.167,-0.27,-1.95,-10.07,4.36,1785101851462.541
1.006,0.164,-0.261,-2.14,-9.19,2.84,1785101851475.534
1.004,0.164,-0.244,-1.86,-9.03,2.5,1785101851481.4292
1.006,0.157,-0.233,-0.64,-9.43,2.96,1785101851491.2878
1.006,0.155,-0.234,0.82,-9.34,2.56,1785101851501.879
0.998,0.161,-0.229,1.53,-8.73,1.5,1785101851512.207
0.991,0.166,-0.226,1.65,-8.67,0.64,1785101851525.509
0.989,0.159,-0.234,2.38,-8.73,-0.03,1785101851531.116
0.982,0.153,-0.245,3.23,-8.36,-0.82,1785101851541.2139
0.976,0.158,-0.245,3.81,-7.75,-1.19,1785101851551.559
0.979,0.156,-0.25,4.67,-7.54,-0.73,1785101851561.9377
0.977,0.152,-0.258,5.1,-7.02,-0.52,1785101851572.333
0.98,0.153,-0.27,5.46,-6.01,-0.49,1785101851585.7861
0.973,0.166,-0.271,4.79,-4.85,-0.49,1785101851591.261
0.966,0.168,-0.26,3.39,-3.97,-0.43,1785101851601.2192
0.966,0.16,-0.244,2.84,-3.88,-0.21,1785101851611.603
0.964,0.159,-0.233,3.27,-4.0,0.18,1785101851622.019
0.952,0.17,-0.241,3.11,-3.88,0.55,1785101851632.3408
0.944,0.17,-0.243,1.83,-3.45,0.61,1785101851645.622
0.947,0.157,-0.238,0.49,-3.48,0.15,1785101851651.236
0.947,0.148,-0.229,0.34,-3.72,0.0,1785101851661.2969
0.944,0.139,-0.235,2.2,-4.12,0.46,1785101851671.7441
0.941,0.133,-0.246,4.0,-4.55,0.43,1785101851682.017
0.945,0.146,-0.253,3.78,-4.76,0.4,1785101851692.464
0.951,0.15,-0.248,2.59,-4.82,0.73,1785101851705.8508
0.953,0.155,-0.247,1.25,-5.13,0.73,1785101851711.346
0.95,0.158,-0.256,-0.31,-5.4,0.85,1785101851721.451
0.944,0.16,-0.26,-3.08,-5.01,0.92,1785101851731.7559
0.938,0.163,-0.258,-7.08,-4.73,1.4,1785101851742.2322
0.939,0.16,-0.248,-10.44,-5.01,2.08,1785101851752.8699
0.947,0.157,-0.243,-12.85,-5.55,2.41,1785101851765.816
0.949,0.158,-0.244,-14.71,-5.8,2.62,1785101851771.914
0.949,0.158,-0.244,-17.03,-5.65,2.87,1785101851781.764
0.951,0.159,-0.255,-19.71,-4.94,2.96,1785101851792.2869
0.95,0.158,-0.26,-21.91,-4.58,2.84,1785101851805.64
0.949,0.148,-0.258,-22.68,-4.46,2.9,1785101851811.316
0.951,0.138,-0.255,-21.36,-4.7,3.36,1785101851821.548
0.953,0.131,-0.239,-21.36,-4.7,3.36,1785101851831.895
0.958,0.129,-0.231,-17.67,-5.13,3.66,1785101851842.4058
0.954,0.133,-0.224,-12.97,-5.13,3.72,1785101851855.775
0.952,0.129,-0.219,-7.81,-5.13,3.54,1785101851861.417
0.952,0.123,-0.226,-2.78,-5.25,2.96,1785101851871.4758
0.949,0.123,-0.232,1.31,-5.49,2.84,1785101851881.751
0.951,0.127,-0.249,4.61,-5.8,3.3,1785101851892.236
0.956,0.141,-0.263,6.26,-5.55,3.42,1785101851902.963
0.957,0.151,-0.276,6.41,-5.07,3.27,1785101851915.762
0.956,0.16,-0.282,5.49,-4.46,3.51,1785101851921.484
0.955,0.163,-0.281,3.94,-3.94,3.88,1785101851931.404
0.954,0.164,-0.273,2.41,-3.63,4.12,1785101851941.8572
0.953,0.166,-0.266,0.4,-3.45,4.64,1785101851952.212
0.954,0.159,-0.259,-1.4,-3.17,5.22,1785101851962.5989
0.956,0.147,-0.258,-2.14,-3.11,5.28,1785101851975.858
0.955,0.138,-0.255,-2.35,-3.23,5.19,1785101851981.5117
0.959,0.137,-0.253,-1.5,-3.66,5.49,1785101851991.601
0.961,0.143,-0.264,-0.67,-4.49,5.65,1785101852001.96
0.965,0.144,-0.276,0.03,-4.46,5.65,1785101852012.2712
0.969,0.137,-0.281,1.5,-4.09,5.01,1785101852025.6738
0.975,0.136,-0.29,3.45,-3.91,4.52,1785101852031.188
0.978,0.143,-0.297,4.64,-3.6,4.52,1785101852041.2358
0.98,0.143,-0.293,5.43,-3.2,4.7,1785101852051.573
0.981,0.139,-0.289,5.77,-3.02,4.24,1785101852061.9631
0.982,0.142,-0.298,4.79,-2.75,3.78,1785101852072.387
0.979,0.155,-0.29,2.66,-2.53,4.18,1785101852085.737
0.979,0.155,-0.275,1.13,-2.9,4.33,1785101852091.247
0.978,0.152,-0.259,0.24,-3.33,3.72,1785101852101.299
0.976,0.146,-0.258,0.49,-3.85,3.11,1785101852111.671
0.973,0.142,-0.26,0.92,-4.06,2.2,1785101852122.06
0.971,0.136,-0.267,1.74,-4.58,1.71,1785101852132.368
0.975,0.127,-0.279,2.59,-4.61,1.43,1785101852145.6692
0.972,0.13,-0.285,1.68,-4.55,1.25,1785101852151.332
0.968,0.134,-0.297,0.21,-4.79,1.43,1785101852161.3691
0.965,0.129,-0.302,-0.85,-4.43,1.13,1785101852171.798
0.963,0.125,-0.295,-1.65,-3.88,0.31,1785101852182.079
0.961,0.128,-0.285,-1.92,-3.81,0.06,1785101852192.478
0.959,0.136,-0.273,-1.92,-3.75,0.15,1785101852205.7668
0.955,0.136,-0.264,-1.19,-3.75,0.03,1785101852211.373
0.954,0.13,-0.261,0.09,-3.94,-0.31,1785101852221.4028
0.949,0.125,-0.264,1.28,-3.97,-0.7,1785101852231.846
0.946,0.128,-0.269,1.65,-4.03,-0.64,1785101852242.1948
0.951,0.125,-0.281,2.2,-4.06,-0.12,1785101852252.5981
0.952,0.118,-0.286,2.93,-3.94,-0.15,1785101852265.7751
0.954,0.123,-0.288,3.17,-3.75,-0.09,1785101852271.543
0.954,0.135,-0.291,2.99,-3.88,0.18,1785101852281.431
0.952,0.146,-0.289,2.2,-3.97,0.58,1785101852291.853
0.948,0.148,-0.288,0.82,-3.66,0.58,1785101852302.248
0.947,0.146,-0.288,-0.98,-3.14,0.31,1785101852315.43
0.945,0.146,-0.283,-3.14,-2.96,0.31,1785101852321.1938
0.951,0.139,-0.278,-4.58,-3.08,0.55,1785101852331.127
