ax,ay,az,gx,gy,gz,timestamp_ms
-0.882,-0.486,-0.16,-0.46,2.66,-3.05,1784935275886.1409
-0.884,-0.48,-0.151,-2.2,3.23,-3.45,1784935275886.417
-0.884,-0.482,-0.144,-3.14,4.09,-3.23,1784935275886.635
-0.888,-0.488,-0.124,-2.14,5.55,-2.99,1784935275886.848
-0.878,-0.49,-0.094,1.4,7.14,-2.2,1784935275887.067
-0.862,-0.501,-0.079,7.69,8.15,-0.85,1784935275887.284
-0.85,-0.504,-0.084,14.53,8.21,0.21,1784935275887.485
-0.842,-0.501,-0.104,19.9,7.66,0.67,1784935275887.691
-0.836,-0.495,-0.129,22.71,6.84,0.43,1784935275887.899
-0.83,-0.484,-0.156,22.4,5.68,-0.27,1784935275888.112
-0.824,-0.468,-0.173,18.98,4.27,-1.8,1784935275888.317
-0.818,-0.449,-0.182,13.52,3.02,-3.6,1784935275888.525
-0.818,-0.435,-0.183,6.62,1.8,-5.37,1784935275888.751
-0.821,-0.431,-0.182,-0.67,0.95,-6.74,1784935275888.947
-0.824,-0.433,-0.17,-7.42,0.64,-7.2,1784935275889.154
-0.831,-0.44,-0.155,-12.36,1.04,-6.5,1784935275889.364
-0.84,-0.448,-0.137,-14.56,1.8,-5.01,1784935275889.5637
-0.842,-0.456,-0.124,-13.28,2.5,-3.08,1784935275889.7751
-0.845,-0.461,-0.116,-9.83,3.39,-1.28,1784935275889.983
-0.847,-0.458,-0.111,-5.49,4.03,0.67,1784935275890.192
-0.851,-0.455,-0.112,-1.5,4.39,2.32,1784935275890.388
-0.853,-0.451,-0.114,1.34,4.79,3.6,1784935275890.6018
-0.855,-0.449,-0.115,2.87,4.94,4.3,1784935275890.808
-0.859,-0.452,-0.113,2.99,4.76,4.49,1784935275891.01
-0.864,-0.457,-0.111,2.14,4.27,4.3,1784935275891.224
-0.868,-0.464,-0.111,0.98,3.57,3.91,1784935275891.4321
-0.866,-0.469,-0.112,0.18,2.78,3.85,1784935275891.642
-0.864,-0.471,-0.114,-0.31,1.86,3.63,1784935275891.846
-0.863,-0.467,-0.12,-0.82,0.85,3.51,1784935275892.047
-0.859,-0.468,-0.127,-1.92,0.21,3.36,1784935275892.241
-0.855,-0.466,-0.129,-3.33,-0.4,3.02,1784935275892.4438
-0.851,-0.467,-0.131,-4.55,-0.79,3.08,1784935275892.647
-0.852,-0.472,-0.135,-5.52,-1.22,3.08,1784935275892.8691
-0.856,-0.476,-0.133,-6.47,-1.65,2.96,1784935275893.056
-0.86,-0.48,-0.132,-7.14,-1.86,2.87,1784935275893.2449
-0.858,-0.482,-0.13,-6.99,-1.98,3.08,1784935275893.452
-0.854,-0.489,-0.134,-5.43,-2.47,3.3,1784935275893.638
-0.852,-0.495,-0.149,-3.48,-2.99,3.33,1784935275893.8398
-0.855,-0.498,-0.167,-2.29,-3.2,3.17,1784935275894.031
-0.858,-0.493,-0.177,-1.71,-3.3,3.11,1784935275894.2148
-0.855,-0.482,-0.179,-2.23,-2.75,3.11,1784935275894.4058
-0.85,-0.471,-0.171,-3.63,-2.01,2.99,1784935275894.594
-0.85,-0.469,-0.159,-4.88,-1.19,2.62,1784935275894.78
-0.85,-0.471,-0.151,-5.62,-0.31,2.38,1784935275894.971
-0.852,-0.483,-0.148,-5.16,0.43,2.2,1784935275895.178
-0.854,-0.494,-0.148,-3.81,1.01,2.08,1784935275895.3708
-0.858,-0.503,-0.145,-1.65,1.56,1.95,1784935275895.573
-0.86,-0.502,-0.138,1.31,1.77,1.77,1784935275895.763
-0.859,-0.501,-0.141,4.58,1.8,1.28,1784935275895.958
-0.858,-0.49,-0.137,6.81,1.5,0.55,1784935275896.163
-0.859,-0.475,-0.144,7.78,0.95,-0.06,1784935275896.352
-0.858,-0.474,-0.159,7.78,0.52,-0.37,1784935275896.5493
-0.854,-0.476,-0.165,6.23,0.46,-0.95,1784935275896.734
-0.851,-0.473,-0.16,3.69,0.61,-1.25,1784935275896.924
-0.849,-0.471,-0.15,0.85,0.67,-1.28,1784935275897.116
-0.845,-0.468,-0.145,-1.46,0.67,-1.01,1784935275897.301
-0.845,-0.471,-0.144,-2.78,0.73,-0.52,1784935275897.493
-0.846,-0.471,-0.144,-3.02,0.82,-0.15,1784935275897.6882
-0.848,-0.47,-0.144,-2.38,0.98,0.12,1784935275897.881
-0.853,-0.472,-0.148,-1.37,1.1,0.34,1784935275898.066
-0.859,-0.469,-0.152,-1.13,1.22,0.4,1784935275898.261
-0.872,-0.471,-0.155,-1.53,1.71,0.85,1784935275898.458
-0.884,-0.472,-0.156,-2.56,2.14,1.62,1784935275898.643
-0.887,-0.476,-0.159,-3.81,2.72,2.72,1784935275898.8328
-0.882,-0.481,-0.159,-5.07,3.2,3.57,1784935275899.026
-0.876,-0.486,-0.154,-6.13,3.57,4.12,1784935275899.2131
-0.866,-0.489,-0.148,-6.47,3.6,4.36,1784935275899.4072
-0.854,-0.493,-0.146,-5.98,3.23,4.03,1784935275899.601
-0.844,-0.499,-0.147,-5.28,2.78,2.81,1784935275899.786
-0.843,-0.495,-0.143,-4.43,2.29,1.31,1784935275899.9739
-0.841,-0.485,-0.142,-3.05,1.98,0.0,1784935275900.1702
-0.84,-0.478,-0.15,-1.8,1.56,-0.89,1784935275900.359
-0.842,-0.47,-0.156,-1.5,1.4,-1.34,1784935275900.5461
-0.84,-0.465,-0.158,-2.14,1.4,-1.1,1784935275900.7417
-0.834,-0.463,-0.155,-3.14,1.74,-0.79,1784935275900.938
-0.83,-0.461,-0.152,-4.18,2.2,-0.37,1784935275901.123
-0.83,-0.464,-0.146,-4.85,2.44,0.03,1784935275901.319
-0.831,-0.465,-0.14,-5.19,2.47,-0.09,1784935275901.513
-0.834,-0.462,-0.135,-5.01,2.62,0.06,1784935275901.699
-0.834,-0.462,-0.135,-4.36,2.66,0.46,1784935275901.908
-0.838,-0.46,-0.134,-3.75,2.5,0.82,1784935275902.105
-0.84,-0.458,-0.136,-3.75,2.35,1.1,1784935275902.291
-0.843,-0.46,-0.137,-3.85,2.23,1.1,1784935275902.483
-0.845,-0.468,-0.131,-3.85,2.23,1.1,1784935275902.694
-0.844,-0.469,-0.121,-4.03,1.92,1.01,1784935275902.888
-0.847,-0.467,-0.119,-3.85,1.46,0.95,1784935275903.074
-0.851,-0.466,-0.119,-3.05,1.07,0.7,1784935275903.272
-0.854,-0.465,-0.12,-2.56,0.43,0.24,1784935275903.469
-0.856,-0.46,-0.12,-2.47,-0.4,-0.21,1784935275903.6538
-0.858,-0.456,-0.129,-2.53,-1.1,-0.46,1784935275903.85
-0.857,-0.457,-0.14,-2.87,-1.56,-0.52,1784935275904.047
-0.854,-0.456,-0.142,-3.88,-2.01,-0.67,1784935275904.233
-0.851,-0.457,-0.139,-4.73,-2.44,-0.92,1784935275904.427
-0.85,-0.456,-0.139,-5.13,-2.84,-1.1,1784935275904.6199
-0.85,-0.452,-0.139,-4.79,-3.05,-1.07,1784935275904.804
-0.847,-0.451,-0.144,-4.12,-3.36,-1.01,1784935275905.008
-0.85,-0.45,-0.152,-3.57,-3.54,-0.98,1784935275905.256
-0.853,-0.447,-0.156,-3.57,-3.48,-0.98,1784935275905.494
-0.853,-0.446,-0.158,-3.63,-3.6,-0.58,1784935275905.713
-0.853,-0.445,-0.163,-4.15,-3.66,-0.15,1784935275905.952
-0.852,-0.448,-0.163,-5.19,-3.72,0.12,1784935275906.2021
-0.847,-0.451,-0.163,-6.26,-3.54,0.49,1784935275906.443
-0.849,-0.453,-0.167,-6.84,-3.33,0.82,1784935275906.658
-0.852,-0.455,-0.168,-6.32,-3.11,0.82,1784935275906.854
-0.853,-0.461,-0.168,-4.82,-2.72,0.58,1784935275907.0442
-0.853,-0.462,-0.17,-3.08,-2.41,0.61,1784935275907.241
-0.851,-0.464,-0.169,-1.59,-2.32,0.79,1784935275907.436
-0.852,-0.466,-0.169,-0.49,-2.47,0.82,1784935275907.6228
-0.851,-0.461,-0.17,0.0,-2.47,0.92,1784935275907.815
-0.85,-0.46,-0.173,0.61,-2.41,1.31,1784935275908.0142
-0.847,-0.462,-0.172,0.79,-2.17,1.34,1784935275908.21
-0.85,-0.463,-0.172,0.34,-1.89,1.13,1784935275908.396
-0.852,-0.463,-0.174,-0.4,-1.68,1.13,1784935275908.5923
-0.854,-0.465,-0.172,-0.67,-1.43,1.16,1784935275908.788
-0.856,-0.466,-0.171,-0.49,-1.28,1.1,1784935275908.973
-0.857,-0.469,-0.169,-0.37,-1.22,1.04,1784935275909.166
-0.859,-0.469,-0.163,-0.31,-1.01,1.1,1784935275909.3608
-0.86,-0.471,-0.161,0.15,-1.16,1.31,1784935275909.549
-0.862,-0.469,-0.161,0.46,-1.04,1.43,1784935275909.7441
-0.862,-0.466,-0.159,0.67,-1.13,1.43,1784935275909.95
-0.863,-0.464,-0.159,0.92,-1.4,1.59,1784935275910.135
-0.863,-0.463,-0.163,0.79,-1.5,1.59,1784935275910.325
-0.864,-0.464,-0.163,0.24,-1.46,1.46,1784935275910.516
-0.862,-0.464,-0.161,-0.18,-1.56,1.34,1784935275910.701
-0.861,-0.461,-0.158,-0.7,-1.62,0.98,1784935275910.893
-0.86,-0.462,-0.159,-0.98,-1.77,0.89,1784935275911.084
-0.861,-0.461,-0.165,-1.46,-1.92,0.73,1784935275911.272
-0.863,-0.459,-0.167,-2.26,-1.92,0.64,1784935275911.4739
-0.867,-0.46,-0.166,-2.84,-1.89,0.67,1784935275911.683
-0.863,-0.459,-0.163,-3.17,-1.77,0.58,1784935275911.8762
-0.862,-0.458,-0.164,-3.02,-1.71,0.49,1784935275912.079
-0.86,-0.457,-0.17,-2.75,-1.53,0.34,1784935275912.274
-0.86,-0.455,-0.172,-2.44,-1.25,0.12,1784935275912.4639
-0.86,-0.452,-0.176,-2.23,-1.13,-0.18,1784935275912.653
-0.863,-0.449,-0.178,-2.01,-0.85,-0.49,1784935275912.8452
-0.865,-0.446,-0.179,-1.98,-0.64,-0.79,1784935275913.0408
-0.866,-0.448,-0.179,-1.8,-0.43,-0.82,1784935275913.2349
-0.867,-0.449,-0.178,-1.68,-0.06,-0.82,1784935275913.426
-0.866,-0.45,-0.176,-1.13,0.46,-0.79,1784935275913.618
-0.862,-0.45,-0.174,-0.18,0.89,-0.61,1784935275913.8071
-0.86,-0.45,-0.174,1.01,1.25,-0.18,1784935275913.992
-0.858,-0.448,-0.175,1.89,1.65,0.09,1784935275914.1812
-0.854,-0.446,-0.172,2.69,2.08,0.52,1784935275914.3691
-0.853,-0.443,-0.173,3.3,2.32,0.98,1784935275914.5532
-0.851,-0.442,-0.175,3.39,2.53,1.25,1784935275914.7441
-0.851,-0.446,-0.173,3.14,2.69,1.37,1784935275914.9329
-0.85,-0.448,-0.17,2.59,2.96,1.43,1784935275915.1208
-0.851,-0.448,-0.166,2.38,3.02,1.56,1784935275915.305
-0.853,-0.45,-0.162,2.32,2.99,1.65,1784935275915.4949
-0.855,-0.453,-0.161,2.17,2.87,1.65,1784935275915.684
-0.857,-0.453,-0.158,1.98,2.87,1.71,1784935275915.868
-0.858,-0.452,-0.153,1.98,2.96,1.98,1784935275916.0571
-0.857,-0.452,-0.151,2.38,2.9,2.44,1784935275916.2441
-0.855,-0.456,-0.148,2.78,2.93,2.59,1784935275916.432
-0.854,-0.459,-0.144,2.96,2.81,2.69,1784935275916.62
-0.856,-0.457,-0.137,3.2,2.62,2.72,1784935275916.807
-0.858,-0.459,-0.133,3.36,2.59,2.75,1784935275916.996
-0.859,-0.461,-0.13,3.63,2.26,2.9,1784935275917.182
-0.86,-0.461,-0.128,3.75,1.8,2.99,1784935275917.37
-0.86,-0.463,-0.127,3.66,1.5,2.87,1784935275917.5579
-0.855,-0.465,-0.125,3.51,1.01,2.81,1784935275917.7432
-0.851,-0.47,-0.127,2.99,0.46,2.44,1784935275917.9321
-0.854,-0.465,-0.129,2.41,-0.03,2.23,1784935275918.124
-0.851,-0.454,-0.137,2.11,-0.46,2.44,1784935275918.313
-0.854,-0.448,-0.146,2.35,-0.55,2.81,1784935275918.498
-0.856,-0.448,-0.151,2.47,-0.82,2.5,1784935275918.686
-0.859,-0.452,-0.152,1.46,-1.25,1.83,1784935275918.877
-0.862,-0.454,-0.154,-0.27,-1.37,1.37,1784935275919.067
-0.864,-0.46,-0.154,-0.95,-1.65,1.01,1784935275919.2598
-0.867,-0.469,-0.154,-1.1,-1.86,0.64,1784935275919.4739
-0.867,-0.474,-0.156,-1.1,-2.14,0.18,1784935275919.6648
-0.872,-0.468,-0.155,-0.73,-2.53,-0.03,1784935275919.851
-0.873,-0.465,-0.156,0.21,-2.72,0.18,1784935275920.034
-0.867,-0.464,-0.157,2.35,-3.05,0.67,1784935275920.406
-0.865,-0.465,-0.16,3.48,-3.3,0.98,1784935275920.591
-0.829,-0.33,-0.223,19.78,-0.18,-2.99,1784935275921.017
-0.831,-0.332,-0.221,20.33,-0.82,-1.4,1784935275921.219
-0.835,-0.328,-0.223,20.02,-1.77,0.18,1784935275926.569
-0.837,-0.329,-0.226,18.83,-2.56,2.23,1784935275939.821
-0.836,-0.329,-0.227,16.51,-3.23,4.09,1784935275945.4192
-0.839,-0.33,-0.227,13.49,-4.09,5.71,1784935275955.75
-0.846,-0.328,-0.226,10.25,-4.94,7.17,1784935275966.197
-0.849,-0.33,-0.227,6.71,-5.83,8.79,1784935275976.601
-0.851,-0.332,-0.221,3.11,-6.93,10.07,1784935275989.826
-0.855,-0.338,-0.217,0.15,-8.06,11.08,1784935275995.455
-0.856,-0.343,-0.217,-2.17,-9.37,12.09,1784935276005.776
-0.857,-0.344,-0.22,-4.3,-10.74,13.06,1784935276016.355
-0.859,-0.348,-0.228,-6.41,-12.15,13.7,1784935276029.593
-0.858,-0.349,-0.236,-9.06,-13.28,14.25,1784935276035.248
-0.855,-0.35,-0.242,-12.18,-14.31,14.8,1784935276045.881
-0.847,-0.352,-0.249,-15.81,-15.26,15.59,1784935276056.525
-0.845,-0.357,-0.256,-20.11,-16.21,16.39,1784935276069.791
-0.843,-0.36,-0.268,-24.63,-16.97,16.79,1784935276075.5232
-0.84,-0.362,-0.27,-28.81,-17.52,17.37,1784935276086.2642
-0.842,-0.364,-0.275,-32.56,-18.43,18.16,1784935276099.565
-0.84,-0.369,-0.284,-36.41,-19.38,19.1,1784935276105.254
-0.833,-0.373,-0.298,-40.41,-20.26,19.87,1784935276116.011
-0.834,-0.361,-0.302,-44.74,-21.06,20.39,1784935276126.693
-0.834,-0.329,-0.298,-48.77,-22.71,22.28,1784935276140.0671
-0.821,-0.311,-0.333,-52.55,-23.5,25.36,1784935276147.9402
-0.815,-0.341,-0.39,-57.5,-22.0,27.13,1784935276156.449
-0.815,-0.341,-0.39,-65.95,-19.14,26.22,1784935276169.856
-0.82,-0.403,-0.436,-76.39,-15.2,24.96,1784935276175.593
-0.844,-0.448,-0.446,-82.22,-10.86,24.84,1784935276186.2888
-0.865,-0.463,-0.414,-79.38,-6.87,25.39,1784935276196.854
-0.868,-0.492,-0.399,-69.09,-2.29,25.45,1784935276210.0852
-0.874,-0.533,-0.408,-69.09,-2.29,25.45,1784935276216.0771
-0.9,-0.546,-0.396,-54.32,1.4,24.54,1784935276226.285
-0.91,-0.56,-0.371,-37.26,3.23,24.17,1784935276236.8481
-0.917,-0.581,-0.349,-20.23,3.88,22.98,1784935276250.064
-0.926,-0.591,-0.358,-3.97,4.21,21.21,1784935276256.0562
-0.944,-0.59,-0.396,8.45,6.47,17.94,1784935276265.989
-0.973,-0.583,-0.451,13.64,10.22,14.59,1784935276276.843
-0.978,-0.601,-0.507,14.92,15.11,10.22,1784935276289.938
-0.977,-0.632,-0.516,13.58,19.84,3.3,1784935276296.252
-0.959,-0.644,-0.479,10.68,23.35,-2.41,1784935276306.308
-0.918,-0.66,-0.439,11.54,26.46,-7.26,1784935276316.8481
-0.888,-0.681,-0.437,15.29,28.32,-15.05,1784935276330.011
-0.872,-0.682,-0.472,17.24,29.24,-25.36,1784935276335.857
-0.864,-0.674,-0.52,17.67,31.28,-36.38,1784935276346.426
-0.876,-0.649,-0.546,15.78,33.48,-46.17,1784935276359.826
-0.901,-0.61,-0.554,11.32,35.65,-54.23,1784935276365.9893
-0.912,-0.574,-0.555,5.74,37.14,-60.15,1784935276376.039
-0.909,-0.541,-0.55,-0.24,38.48,-63.84,1784935276386.928
-0.904,-0.501,-0.544,-6.74,39.49,-65.22,1784935276400.049
-0.898,-0.472,-0.565,-13.76,40.22,-64.7,1784935276406.097
-0.881,-0.462,-0.605,-20.87,42.33,-63.54,1784935276416.1658
-0.873,-0.466,-0.63,-28.14,46.08,-62.26,1784935276426.955
-0.878,-0.473,-0.656,-36.32,50.42,-61.07,1784935276440.272
-0.88,-0.508,-0.696,-44.37,54.51,-59.72,1784935276447.2793
-0.882,-0.563,-0.729,-50.54,59.02,-59.24,1784935276456.7712
-0.902,-0.606,-0.747,-53.22,63.3,-59.3,1784935276470.083
-0.935,-0.635,-0.73,-51.76,66.77,-59.45,1784935276475.987
-0.944,-0.652,-0.733,-46.39,68.79,-60.12,1784935276486.2512
-0.927,-0.654,-0.772,-38.03,70.89,-60.88,1784935276496.9978
-0.934,-0.652,-0.815,-28.17,74.04,-61.65,1784935276510.3308
-0.959,-0.641,-0.877,-17.82,78.43,-62.9,1784935276516.365
-0.95,-0.624,-0.93,-5.37,85.06,-63.94,1784935276526.813
-0.918,-0.63,-0.972,7.97,92.99,-62.84,1784935276539.9868
-0.9,-0.682,-0.983,20.6,100.01,-62.23,1784935276553.73
-0.918,-0.735,-0.967,30.03,105.04,-65.0,1784935276556.153
-0.946,-0.789,-0.937,39.52,108.89,-70.74,1784935276569.5059
-0.967,-0.808,-0.896,53.32,111.36,-80.14,1784935276575.331
-0.984,-0.772,-0.855,67.26,112.7,-90.12,1784935276586.59
-0.993,-0.714,-0.827,77.06,113.28,-98.73,1784935276597.385
-0.994,-0.665,-0.815,81.36,113.13,-104.77,1784935276610.793
-0.992,-0.629,-0.809,79.99,113.13,-108.01,1784935276616.6038
-0.985,-0.6,-0.799,73.37,113.62,-109.16,1784935276630.09
-0.976,-0.594,-0.794,61.59,114.29,-109.59,1784935276635.9639
-0.981,-0.615,-0.771,44.37,115.15,-110.29,1784935276646.7222
-0.974,-0.636,-0.733,26.55,115.82,-110.05,1784935276660.299
-0.935,-0.651,-0.701,12.82,115.67,-109.5,1784935276666.384
-0.904,-0.649,-0.653,1.59,115.36,-109.74,1784935276676.7502
-0.881,-0.658,-0.599,-7.78,115.02,-110.17,1784935276690.098
-0.847,-0.665,-0.546,-15.08,113.32,-110.42,1784935276696.7192
-0.803,-0.662,-0.524,-19.65,111.3,-111.09,1784935276707.129
-0.769,-0.649,-0.51,-21.39,110.17,-111.64,1784935276720.361
-0.749,-0.63,-0.48,-20.54,109.65,-111.61,1784935276726.3901
-0.729,-0.592,-0.42,-17.55,108.71,-110.87,1784935276739.784
-0.696,-0.541,-0.381,-12.09,106.2,-109.56,1784935276747.025
-0.662,-0.475,-0.367,-5.49,102.15,-106.81,1784935276756.512
-0.634,-0.406,-0.35,0.31,98.39,-101.69,1784935276769.9521
-0.616,-0.327,-0.296,6.16,94.12,-94.55,1784935276775.894
-0.584,-0.234,-0.266,13.34,87.86,-85.12,1784935276786.27
-0.538,-0.149,-0.289,20.6,80.84,-73.46,1784935276796.99
-0.491,-0.132,-0.333,23.04,75.53,-61.28,1784935276810.157
-0.435,-0.222,-0.351,19.81,72.54,-51.48,1784935276816.267
-0.372,-0.33,-0.316,18.01,69.92,-46.24,1784935276826.6292
-0.317,-0.363,-0.263,19.9,66.93,-44.68,1784935276839.8809
-0.295,-0.313,-0.226,24.81,62.26,-45.44,1784935276846.266
-0.272,-0.245,-0.255,29.3,55.33,-45.53,1784935276856.306
-0.237,-0.207,-0.343,27.65,48.86,-43.86,1784935276867.1592
-0.21,-0.192,-0.437,15.75,45.26,-40.86,1784935276880.2922
-0.217,-0.214,-0.443,-3.91,45.44,-36.23,1784935276886.194
-0.23,-0.215,-0.392,-19.62,42.57,-34.67,1784935276896.686
-0.257,-0.238,-0.339,-32.53,38.79,-31.62,1784935276909.8591
-0.282,-0.238,-0.296,-40.53,34.97,-26.61,1784935276915.8242
-0.285,-0.239,-0.253,-45.01,30.3,-19.29,1784935276926.423
-0.259,-0.318,-0.22,-46.36,24.84,-11.84,1784935276936.915
-0.235,-0.386,-0.223,-44.34,18.49,-7.14,1784935276950.1272
-0.239,-0.438,-0.277,-35.98,12.85,-2.84,1784935276956.153
-0.259,-0.433,-0.342,-27.68,9.13,0.27,1784935276966.2349
-0.318,-0.425,-0.366,-17.37,8.61,3.3,1784935276976.685
-0.346,-0.489,-0.331,-4.73,8.39,10.19,1784935276989.955
-0.289,-0.617,-0.325,11.81,5.95,17.55,1784935276995.928
-0.193,-0.751,-0.411,32.14,1.34,20.17,1784935277006.044
-0.119,-0.797,-0.584,51.15,-3.11,14.5,1784935277016.647
-0.079,-0.737,-0.716,61.59,-2.59,3.3,1784935277027.101
-0.073,-0.618,-0.775,58.23,1.74,-7.66,1784935277040.322
-0.118,-0.541,-0.79,47.27,5.92,-16.24,1784935277046.899
-0.177,-0.53,-0.771,32.53,9.34,-22.74,1784935277056.6863
-0.212,-0.593,-0.694,16.79,12.63,-25.79,1784935277067.127
-0.202,-0.652,-0.572,7.51,13.0,-29.73,1784935277080.322
-0.156,-0.667,-0.592,4.49,7.6,-34.49,1784935277086.32
-0.154,-0.673,-0.7,2.59,4.3,-39.0,1784935277096.3252
-0.178,-0.703,-0.765,-1.95,7.42,-42.91,1784935277107.014
-0.202,-0.735,-0.778,-6.9,13.12,-48.37,1784935277120.099
-0.214,-0.742,-0.77,-11.02,19.29,-54.99,1784935277126.112
-0.247,-0.74,-0.756,-12.09,26.25,-62.17,1784935277136.227
-0.272,-0.74,-0.64,-10.9,34.06,-68.36,1784935277146.972
-0.246,-0.748,-0.566,-8.55,35.62,-74.53,1784935277160.366
-0.213,-0.738,-0.579,-3.2,34.21,-81.39,1784935277166.951
-0.171,-0.714,-0.622,3.94,33.66,-86.55,1784935277176.503
-0.179,-0.664,-0.743,11.29,33.08,-89.66,1784935277189.829
-0.195,-0.571,-0.853,15.11,36.1,-88.75,1784935277195.8079
-0.153,-0.488,-0.909,15.53,42.12,-83.71,1784935277206.304
-0.092,-0.488,-0.892,14.37,49.96,-77.09,1784935277216.928
-0.025,-0.572,-0.781,11.35,57.07,-72.24,1784935277230.149
0.081,-0.637,-0.672,6.65,57.22,-70.99,1784935277236.099
0.184,-0.66,-0.613,5.37,51.97,-71.5,1784935277246.46
0.246,-0.681,-0.577,10.56,43.43,-73.03,1784935277257.048
0.238,-0.72,-0.576,18.43,33.08,-75.35,1784935277270.091
0.161,-0.756,-0.604,24.93,23.29,-78.43,1784935277276.348
0.076,-0.721,-0.701,28.84,14.28,-79.5,1784935277286.968
0.022,-0.649,-0.783,31.8,10.32,-76.85,1784935277299.9
-0.026,-0.597,-0.838,28.6,9.64,-73.15,1784935277305.727
-0.033,-0.587,-0.81,14.1,11.38,-69.09,1784935277316.448
0.017,-0.631,-0.698,-8.21,13.15,-65.19,1784935277326.9902
0.124,-0.737,-0.608,-29.11,12.85,-62.44,1784935277340.51
0.221,-0.879,-0.58,-46.33,11.87,-61.62,1784935277347.0889
0.229,-0.936,-0.54,-62.14,8.42,-65.34,1784935277356.575
0.164,-0.976,-0.493,-59.63,2.66,-60.09,1784935277366.876
0.119,-1.029,-0.564,-38.85,-1.65,-50.39,1784935277380.5188
0.123,-0.985,-0.662,-23.62,-3.91,-54.45,1784935277386.423
0.13,-0.874,-0.659,-20.66,-2.96,-62.69,1784935277396.44
0.177,-0.842,-0.651,-21.76,-2.26,-61.86,1784935277406.946
0.238,-0.88,-0.613,-21.73,-1.59,-55.97,1784935277420.209
0.288,-0.87,-0.573,-19.1,-3.36,-52.64,1784935277425.961
0.314,-0.851,-0.59,-10.07,-6.41,-52.19,1784935277436.5928
0.316,-0.878,-0.627,-0.73,-7.39,-52.83,1784935277446.826
0.316,-0.881,-0.618,2.78,-6.41,-53.41,1784935277460.362
0.316,-0.881,-0.618,3.81,-5.55,-52.03,1784935277473.664
0.344,-0.844,-0.587,6.29,-5.68,-48.49,1784935277476.033
0.399,-0.807,-0.56,9.03,-7.17,-44.86,1784935277486.367
0.46,-0.749,-0.559,11.87,-7.93,-41.32,1784935277499.926
0.504,-0.719,-0.63,11.87,-7.93,-41.32,1784935277505.696
0.531,-0.711,-0.666,12.24,-5.62,-38.18,1784935277516.156
0.561,-0.675,-0.648,11.05,-2.35,-35.31,1784935277526.992
0.602,-0.657,-0.653,11.32,-1.07,-31.71,1784935277539.921
0.624,-0.657,-0.638,10.38,-0.09,-29.57,1784935277546.217
0.636,-0.677,-0.618,8.85,0.82,-28.72,1784935277556.016
0.632,-0.671,-0.606,8.48,0.37,-29.33,1784935277566.525
0.626,-0.653,-0.584,10.9,-0.31,-29.08,1784935277577.1023
0.632,-0.582,-0.569,13.86,-2.35,-28.2,1784935277590.2952
0.652,-0.513,-0.621,16.82,-5.19,-25.88,1784935277596.566
0.674,-0.496,-0.653,16.14,-5.19,-23.01,1784935277606.504
0.687,-0.448,-0.641,11.26,-4.55,-20.72,1784935277617.092
0.689,-0.467,-0.69,9.95,-4.03,-17.33,1784935277630.409
0.67,-0.489,-0.693,5.28,-1.98,-15.2,1784935277636.194
0.679,-0.404,-0.648,-0.31,-0.92,-12.18,1784935277646.524
0.711,-0.355,-0.656,1.5,-0.37,-5.74,1784935277656.512
0.729,-0.345,-0.661,2.2,2.72,0.0,1784935277667.0288
0.771,-0.314,-0.63,-1.07,8.03,5.13,1784935277680.385
0.855,-0.305,-0.599,-3.36,16.88,14.31,1784935277686.218
0.949,-0.331,-0.518,-3.75,29.3,26.55,1784935277696.348
1.005,-0.308,-0.482,-0.09,41.69,39.83,1784935277707.15
1.003,-0.262,-0.487,9.16,55.51,54.51,1784935277720.095
0.917,-0.216,-0.386,15.93,70.38,67.69,1784935277726.062
0.767,-0.324,-0.206,19.65,76.57,75.81,1784935277736.29
0.581,-0.593,-0.095,27.28,66.99,70.83,1784935277747.0278
0.457,-0.78,-0.129,42.82,40.19,55.3,1784935277760.366
0.451,-0.8,-0.331,73.06,6.59,35.25,1784935277767.044
0.501,-0.686,-0.594,108.68,-19.99,14.89,1784935277776.8582
0.526,-0.453,-0.777,128.73,-34.52,1.01,1784935277790.097
0.504,-0.323,-0.911,123.72,-39.19,0.49,1784935277796.556
0.458,-0.374,-0.912,89.57,-34.03,7.23,1784935277806.518
0.419,-0.483,-0.776,39.49,-25.21,15.84,1784935277816.9868
0.394,-0.666,-0.639,-0.67,-18.04,24.78,1784935277830.182
0.376,-0.874,-0.529,-24.72,-13.21,30.12,1784935277835.834
0.359,-1.055,-0.471,-31.04,-11.72,29.88,1784935277847.0269
0.359,-1.169,-0.455,-21.27,-12.76,23.96,1784935277859.8298
0.364,-1.123,-0.45,-1.34,-15.32,14.86,1784935277865.49
0.376,-1.0,-0.49,25.12,-18.31,8.73,1784935277875.8928
0.38,-0.873,-0.516,46.69,-20.66,5.65,1784935277886.518
0.373,-0.769,-0.537,60.03,-23.01,5.46,1784935277900.0818
0.358,-0.7,-0.555,65.28,-24.81,6.78,1784935277906.017
0.338,-0.617,-0.545,60.91,-26.03,7.87,1784935277916.197
0.326,-0.568,-0.532,53.56,-27.59,10.56,1784935277927.004
0.316,-0.567,-0.522,45.56,-29.08,14.07,1784935277940.1602
0.305,-0.575,-0.505,37.6,-30.58,17.58,1784935277947.0662
0.303,-0.607,-0.477,33.66,-31.5,21.3,1784935277958.145
0.302,-0.651,-0.442,35.95,-32.59,25.24,1784935277969.732
0.294,-0.67,-0.417,42.73,-34.18,28.14,1784935277975.903
0.28,-0.624,-0.377,51.21,-35.34,29.91,1784935277986.042
0.271,-0.548,-0.342,61.71,-37.05,34.12,1784935277997.0188
0.253,-0.447,-0.34,71.6,-40.01,41.23,1784935278010.1938
0.236,-0.382,-0.372,78.89,-41.9,51.45,1784935278016.264
0.208,-0.399,-0.388,81.94,-42.45,62.01,1784935278026.7039
0.17,-0.472,-0.392,81.7,-42.39,70.56,1784935278039.875
0.141,-0.586,-0.364,82.67,-41.87,77.03,1784935278045.989
0.117,-0.677,-0.319,88.35,-42.6,81.3,1784935278056.109
0.098,-0.678,-0.273,97.17,-44.4,86.37,1784935278066.8171
0.089,-0.651,-0.288,108.19,-45.96,93.75,1784935278080.259
0.076,-0.67,-0.344,118.02,-45.35,100.99,1784935278086.2998
0.044,-0.736,-0.38,122.26,-42.48,105.87,1784935278097.1401
0.006,-0.875,-0.382,123.36,-38.67,108.58,1784935278110.324
-0.048,-0.964,-0.318,122.59,-34.58,107.03,1784935278116.4072
-0.087,-1.023,-0.204,128.97,-32.93,105.93,1784935278129.8718
-0.114,-1.045,-0.148,140.35,-33.2,106.14,1784935278135.831
-0.14,-0.962,-0.157,150.55,-33.66,107.58,1784935278146.836
-0.138,-0.882,-0.205,156.62,-35.25,112.64,1784935278160.0
-0.113,-0.798,-0.255,147.68,-35.07,118.5,1784935278166.074
-0.097,-0.71,-0.288,123.39,-32.35,124.18,1784935278176.9832
-0.093,-0.733,-0.293,91.31,-28.78,129.83,1784935278190.0178
-0.121,-0.878,-0.282,58.35,-24.38,130.83,1784935278196.6208
-0.188,-1.078,-0.237,30.03,-20.33,126.19,1784935278207.304
-0.25,-1.238,-0.173,13.67,-18.59,119.14,1784935278220.0671
-0.298,-1.28,-0.098,11.38,-18.86,112.03,1784935278226.022
-0.327,-1.216,-0.026,23.65,-21.79,107.94,1784935278238.2432
-0.323,-1.121,0.0,46.66,-26.8,108.31,1784935278250.1982
-0.292,-1.025,-0.007,68.64,-30.21,112.19,1784935278256.5188
-0.243,-0.917,-0.039,81.94,-31.4,117.65,1784935278267.353
-0.206,-0.836,-0.064,89.02,-30.37,123.84,1784935278280.045
-0.199,-0.9,-0.074,94.91,-27.47,129.46,1784935278286.228
-0.229,-1.06,-0.053,100.07,-23.59,129.76,1784935278296.8909
-0.28,-1.191,-0.026,107.36,-19.65,125.92,1784935278310.055
-0.332,-1.214,-0.03,116.25,-15.9,121.98,1784935278316.157
-0.356,-1.082,-0.053,118.84,-10.8,119.88,1784935278327.2278
-0.356,-0.935,-0.042,114.63,-7.2,120.73,1784935278340.409
-0.359,-0.849,-0.025,102.48,-6.96,121.56,1784935278346.467
-0.383,-0.849,-0.012,89.08,-4.88,123.97,1784935278357.0461
-0.402,-0.934,-0.003,81.94,-0.79,124.42,1784935278370.2988
-0.426,-0.987,0.053,74.89,0.52,121.43,1784935278376.2778
-0.454,-0.977,0.068,70.89,0.24,117.89,1784935278386.795
-0.479,-0.937,0.028,63.63,1.28,116.76,1784935278400.0571
-0.499,-0.866,0.005,47.82,4.0,116.06,1784935278406.024
-0.538,-0.808,-0.01,29.15,6.74,117.16,1784935278416.4338
-0.567,-0.777,-0.027,10.59,7.48,120.79,1784935278427.208
-0.584,-0.793,-0.048,-2.87,6.23,123.17,1784935278440.334
-0.603,-0.849,-0.038,-9.67,6.01,123.14,1784935278446.465
-0.625,-0.891,-0.012,-7.81,7.29,121.83,1784935278456.543
-0.64,-0.89,-0.008,4.43,9.25,120.43,1784935278467.123
-0.663,-0.9,-0.02,22.71,13.12,119.3,1784935278480.3882
-0.702,-0.891,-0.017,35.71,18.4,117.13,1784935278486.915
-0.731,-0.812,-0.015,38.24,24.29,114.66,1784935278497.11
-0.747,-0.737,-0.006,34.09,30.49,114.2,1784935278510.273
-0.762,-0.71,-0.006,25.82,35.55,115.85,1784935278516.13
-0.775,-0.698,-0.017,16.6,39.86,116.98,1784935278527.101
-0.783,-0.675,-0.035,9.49,44.07,116.98,1784935278540.277
-0.794,-0.675,-0.053,5.68,47.85,116.76,1784935278547.1418
-0.81,-0.663,-0.048,2.35,51.36,116.49,1784935278556.801
-0.834,-0.653,-0.034,1.07,54.63,117.5,1784935278570.001
-0.853,-0.657,-0.033,2.53,57.74,120.61,1784935278575.9912
-0.887,-0.652,-0.047,3.54,61.43,124.21,1784935278586.441
-0.926,-0.619,-0.065,1.89,65.07,127.78,1784935278597.1191
-0.954,-0.596,-0.085,-2.72,68.18,131.2,1784935278610.35
-0.961,-0.572,-0.085,-12.42,71.32,133.61,1784935278616.4282
-0.988,-0.552,-0.085,-23.47,73.73,133.85,1784935278626.821
-1.011,-0.579,-0.088,-33.63,74.59,133.12,1784935278640.203
-1.029,-0.617,-0.071,-44.89,74.04,129.7,1784935278646.4893
-1.047,-0.676,-0.019,-54.32,72.51,123.05,1784935278656.8909
-1.077,-0.767,0.083,-57.62,69.37,112.52,1784935278670.2012
-1.093,-0.868,0.211,-51.03,63.42,99.25,1784935278676.167
-1.084,-0.957,0.336,-32.5,53.87,85.24,1784935278686.719
-1.093,-1.019,0.428,-2.59,41.75,70.62,1784935278699.9878
-1.039,-1.082,0.46,37.72,27.68,58.23,1784935278706.028
-1.031,-0.925,0.308,78.86,13.92,34.21,1784935278716.126
-1.139,-0.692,0.103,96.01,1.07,15.56,1784935278727.0278
-1.148,-0.553,-0.053,86.06,-9.92,8.27,1784935278740.118
-1.092,-0.445,-0.123,59.18,-17.49,3.48,1784935278746.2302
-1.092,-0.445,-0.123,30.46,-22.28,0.15,1784935278756.236
-1.042,-0.409,-0.182,4.18,-22.95,-1.83,1784935278766.8071
-1.014,-0.386,-0.198,-19.17,-20.11,-1.46,1784935278780.0032
-0.978,-0.388,-0.163,-37.66,-15.63,-0.06,1784935278786.335
-0.936,-0.429,-0.101,-37.66,-15.63,-0.06,1784935278796.235
-0.906,-0.479,-0.031,-51.45,-11.57,1.53,1784935278806.729
-0.876,-0.53,0.028,-58.2,-7.87,2.69,1784935278817.2412
-0.869,-0.579,0.079,-60.37,-4.0,6.13,1784935278830.624
-0.844,-0.62,0.114,-50.84,-2.11,7.87,1784935278836.334
-0.815,-0.623,0.121,-31.62,-1.8,5.95,1784935278846.876
-0.81,-0.584,0.084,-9.55,-2.66,2.56,1784935278856.779
-0.827,-0.502,0.018,6.81,-4.39,0.46,1784935278867.178
-0.834,-0.452,-0.052,15.66,-6.23,-0.52,1784935278880.418
-0.831,-0.423,-0.105,16.36,-7.23,-2.14,1784935278886.2668
-0.831,-0.412,-0.126,10.53,-7.63,-4.33,1784935278896.369
-0.839,-0.428,-0.117,-0.76,-8.39,-6.62,1784935278906.826
-0.845,-0.45,-0.083,-14.28,-9.16,-8.7,1784935278917.145
-0.86,-0.473,-0.043,-24.6,-9.25,-10.25,1784935278930.5012
-0.873,-0.483,-0.016,-30.03,-9.7,-10.93,1784935278936.4102
-0.871,-0.474,-0.009,-32.78,-9.77,-10.83,1784935278946.666
-0.868,-0.468,-0.007,-34.21,-9.16,-10.96,1784935278957.145
-0.869,-0.475,-0.008,-35.22,-8.64,-11.54,1784935278970.408
-0.872,-0.476,-0.015,-35.77,-7.84,-11.69,1784935278976.365
-0.879,-0.469,-0.037,-36.56,-7.97,-11.41,1784935278986.629
-0.882,-0.458,-0.047,-38.3,-7.72,-11.2,1784935278997.152
-0.881,-0.445,-0.065,-41.14,-7.26,-10.68,1784935279010.373
-0.88,-0.441,-0.089,-45.29,-6.62,-10.19,1784935279016.385
-0.882,-0.452,-0.08,-48.92,-5.8,-10.07,1784935279026.7852
-0.888,-0.465,-0.053,-49.93,-5.37,-10.07,1784935279037.163
-0.895,-0.482,-0.043,-47.27,-5.49,-9.58,1784935279050.364
-0.9,-0.488,-0.044,-42.36,-5.8,-9.34,1784935279056.244
-0.902,-0.48,-0.05,-36.35,-6.04,-9.46,1784935279066.2883
-0.895,-0.452,-0.056,-30.15,-6.16,-9.89,1784935279076.7551
-0.888,-0.432,-0.078,-24.35,-7.08,-9.49,1784935279090.1602
-0.878,-0.421,-0.095,-20.69,-7.51,-9.7,1784935279096.0022
-0.875,-0.407,-0.105,-19.26,-7.63,-10.22,1784935279106.0537
-0.871,-0.405,-0.118,-17.73,-7.29,-9.95,1784935279116.512
-0.868,-0.416,-0.125,-15.5,-6.56,-9.52,1784935279127.0132
-0.866,-0.416,-0.13,-13.46,-5.49,-9.09,1784935279140.275
-0.868,-0.413,-0.133,-11.63,-4.33,-8.58,1784935279146.941
-0.868,-0.417,-0.131,-10.04,-3.27,-8.0,1784935279156.178
-0.866,-0.421,-0.122,-8.91,-1.98,-7.48,1784935279166.572
-0.866,-0.426,-0.116,-7.75,-1.04,-6.81,1784935279176.919
-0.868,-0.442,-0.114,-6.16,-0.18,-6.29,1784935279190.1702
-0.87,-0.449,-0.113,-4.46,0.7,-6.04,1784935279195.939
-0.867,-0.452,-0.112,-2.29,1.31,-5.55,1784935279206.292
-0.864,-0.459,-0.109,-0.15,1.89,-5.28,1784935279216.2979
-0.864,-0.465,-0.106,1.5,2.23,-5.25,1784935279226.6282
-0.865,-0.466,-0.104,2.87,2.72,-4.85,1784935279236.981
-0.864,-0.468,-0.101,4.15,3.14,-4.0,1784935279250.279
-0.859,-0.475,-0.101,5.1,3.66,-3.39,1784935279255.96
-0.856,-0.476,-0.103,5.16,4.06,-3.17,1784935279266.399
-0.852,-0.47,-0.097,4.85,4.24,-3.14,1784935279276.316
-0.847,-0.476,-0.094,4.61,4.18,-3.11,1784935279286.816
-0.848,-0.47,-0.092,3.66,3.97,-3.42,1784935279297.048
-0.855,-0.464,-0.094,2.62,3.75,-3.51,1784935279310.2778
-0.858,-0.463,-0.094,1.56,3.97,-3.57,1784935279316.194
-0.857,-0.467,-0.092,0.37,4.06,-3.51,1784935279326.383
-0.861,-0.468,-0.083,-1.62,4.12,-3.42,1784935279336.448
-0.86,-0.47,-0.072,-3.42,4.06,-3.02,1784935279346.831
-0.859,-0.472,-0.068,-4.39,3.91,-2.08,1784935279357.138
-0.864,-0.466,-0.071,-5.49,3.66,-1.53,1784935279370.404
-0.87,-0.459,-0.083,-6.96,3.17,-1.04,1784935279376.201
-0.875,-0.451,-0.093,-9.28,2.9,-0.79,1784935279386.2942
-0.881,-0.447,-0.102,-11.75,2.69,-0.64,1784935279396.662
-0.897,-0.444,-0.115,-14.31,2.38,-0.24,1784935279406.825
-0.919,-0.441,-0.136,-17.85,2.38,0.31,1784935279420.28
-0.923,-0.438,-0.144,-22.95,2.9,1.07,1784935279426.6272
-0.909,-0.437,-0.133,-28.93,3.51,1.92,1784935279436.052
-0.89,-0.434,-0.125,-34.49,3.51,2.87,1784935279446.937
-0.877,-0.432,-0.124,-38.97,3.23,4.09,1784935279457.161
-0.872,-0.433,-0.117,-42.6,2.96,4.55,1784935279470.429
-0.867,-0.449,-0.11,-43.34,3.11,4.52,1784935279476.252
-0.86,-0.463,-0.099,-41.08,2.99,4.67,1784935279486.345
-0.855,-0.467,-0.094,-37.17,2.47,4.73,1784935279496.8389
-0.852,-0.472,-0.1,-32.41,1.98,4.76,1784935279510.066
-0.845,-0.481,-0.107,-26.92,1.86,4.7,1784935279516.0088
-0.84,-0.485,-0.11,-20.02,2.04,3.91,1784935279525.992
-0.837,-0.485,-0.115,-13.03,2.23,2.96,1784935279536.4758
-0.831,-0.482,-0.117,-6.53,2.29,2.11,1784935279546.9019
-0.831,-0.476,-0.119,-1.46,2.17,1.37,1784935279560.0698
-0.836,-0.466,-0.124,1.71,2.26,1.04,1784935279565.5352
-0.836,-0.461,-0.132,3.48,2.23,1.22,1784935279575.763
-0.835,-0.46,-0.14,4.06,2.41,1.34,1784935279585.849
-0.84,-0.464,-0.143,4.33,2.84,1.65,1784935279596.529
-0.844,-0.468,-0.137,3.97,3.17,1.86,1784935279617.692
-0.84,-0.472,-0.131,3.33,3.69,1.56,1784935279620.237
-0.843,-0.466,-0.125,2.96,4.15,1.13,1784935279625.4668
-0.851,-0.475,-0.121,3.78,4.43,1.16,1784935279635.393
-0.854,-0.478,-0.116,4.52,4.27,0.98,1784935279645.987
-0.857,-0.476,-0.112,5.46,3.88,0.67,1784935279656.4548
-0.858,-0.476,-0.12,6.62,3.48,0.55,1784935279666.961
-0.857,-0.476,-0.122,6.99,2.99,0.15,1784935279680.248
-0.861,-0.47,-0.124,6.13,2.47,-0.15,1784935279686.389
-0.863,-0.47,-0.12,5.49,2.14,-0.43,1784935279695.877
-0.863,-0.468,-0.117,5.13,1.8,-0.79,1784935279706.2678
-0.865,-0.467,-0.118,4.94,1.53,-0.98,1784935279716.684
-0.865,-0.465,-0.117,4.76,1.43,-0.92,1784935279726.7368
-0.863,-0.465,-0.119,4.46,1.37,-0.61,1784935279740.27
-0.85,-0.47,-0.121,4.09,1.04,-0.85,1784935279745.625
-0.87,-0.454,-0.125,2.96,0.67,-1.56,1784935279755.965
-0.86,-0.468,-0.12,2.04,0.31,-0.58,1784935279766.335
-0.866,-0.462,-0.12,1.37,-0.49,-0.15,1784935279776.601
-0.853,-0.456,-0.132,0.15,-1.28,0.4,1784935279787.1348
-0.849,-0.452,-0.128,-1.62,-0.98,-0.4,1784935279800.315
-0.852,-0.461,-0.12,-3.36,-1.13,-0.98,1784935279806.488
-0.842,-0.472,-0.112,-3.2,-1.19,-1.5,1784935279816.046
-0.853,-0.47,-0.114,-1.74,-1.43,-2.38,1784935279826.448
-0.858,-0.472,-0.115,-0.4,-1.74,-2.01,1784935279836.811
-0.85,-0.472,-0.114,0.82,-1.71,-1.56,1784935279846.9792
-0.852,-0.469,-0.12,2.2,-1.59,-1.53,1784935279860.142
-0.85,-0.465,-0.12,3.45,-1.62,-1.5,1784935279866.71
-0.85,-0.459,-0.129,4.15,-1.62,-1.56,1784935279876.092
-0.852,-0.459,-0.134,3.94,-1.53,-1.53,1784935279886.4949
-0.856,-0.458,-0.135,2.93,-1.53,-1.31,1784935279896.8582
-0.857,-0.461,-0.132,1.77,-1.56,-0.73,1784935279910.0598
-0.858,-0.463,-0.13,0.89,-1.71,-0.52,1784935279915.669
-0.858,-0.466,-0.125,0.61,-1.62,-0.46,1784935279926.024
-0.86,-0.467,-0.123,1.25,-1.4,-0.55,1784935279936.185
-0.864,-0.468,-0.122,2.35,-1.37,-0.64,1784935279946.447
-0.866,-0.471,-0.12,3.48,-1.53,-0.52,1784935279956.913
-0.868,-0.464,-0.122,3.94,-1.77,-0.58,1784935279970.2402
-0.87,-0.455,-0.129,4.06,-1.89,-0.21,1784935279975.882
-0.868,-0.458,-0.135,3.42,-2.08,-0.06,1784935279985.802
-0.868,-0.46,-0.135,1.5,-2.35,-0.21,1784935279996.265
-0.866,-0.459,-0.131,-0.64,-2.53,-0.21,1784935280006.633
-0.866,-0.461,-0.128,-2.26,-2.93,-0.27,1784935280016.9739
-0.864,-0.464,-0.126,-3.33,-3.14,-0.43,1784935280030.2908
-0.864,-0.467,-0.129,-3.97,-3.33,-0.61,1784935280035.927
-0.864,-0.467,-0.129,-4.39,-3.3,-0.79,1784935280046.196
-0.864,-0.471,-0.134,-4.21,-3.14,-0.85,1784935280056.296
-0.863,-0.473,-0.139,-3.66,-2.93,-0.61,1784935280066.7573
-0.863,-0.474,-0.141,-3.3,-2.59,-0.49,1784935280077.0527
-0.862,-0.475,-0.139,-2.26,-2.11,-0.55,1784935280090.35
-0.858,-0.48,-0.136,-2.26,-2.11,-0.55,1784935280096.044
-0.855,-0.481,-0.136,-0.58,-1.59,-0.76,1784935280106.148
-0.852,-0.48,-0.135,0.58,-1.4,-0.79,1784935280116.394
-0.851,-0.48,-0.137,0.82,-1.16,-0.98,1784935280126.7659
-0.848,-0.48,-0.133,0.64,-0.82,-1.16,1784935280137.149
-0.846,-0.48,-0.132,0.52,-0.58,-1.4,1784935280150.382
-0.848,-0.481,-0.13,0.46,-0.43,-1.77,1784935280156.1292
-0.851,-0.485,-0.127,0.46,-0.27,-2.11,1784935280166.229
-0.852,-0.488,-0.126,0.46,-0.27,-2.59,1784935280176.445
-0.854,-0.487,-0.126,0.76,-0.12,-2.87,1784935280186.8237
-0.857,-0.485,-0.126,1.13,-0.24,-3.02,1784935280200.0352
-0.861,-0.484,-0.125,1.53,-0.49,-2.84,1784935280205.8398
-0.855,-0.487,-0.125,2.04,-0.4,-2.78,1784935280215.721
-0.854,-0.484,-0.123,2.53,-0.61,-2.99,1784935280226.3958
-0.857,-0.483,-0.124,2.66,-0.82,-3.39,1784935280236.5178
-0.86,-0.48,-0.132,2.66,-0.89,-3.63,1784935280246.7231
-0.869,-0.483,-0.139,2.38,-0.79,-3.94,1784935280260.155
-0.883,-0.483,-0.147,1.62,-0.55,-4.43,1784935280266.245
-0.885,-0.478,-0.142,0.98,0.06,-4.49,1784935280275.758
-0.88,-0.477,-0.136,1.37,0.55,-3.97,1784935280286.4521
-0.875,-0.479,-0.133,2.29,0.52,-3.63,1784935280296.6777
-0.878,-0.475,-0.133,3.11,0.58,-3.39,1784935280306.966
-0.88,-0.471,-0.133,3.6,0.67,-2.66,1784935280320.221
-0.878,-0.469,-0.141,3.51,0.79,-1.74,1784935280325.9539
-0.875,-0.469,-0.151,2.47,0.95,-0.92,1784935280335.711
-0.868,-0.467,-0.149,0.7,1.1,-0.24,1784935280346.476
-0.858,-0.468,-0.143,-0.73,1.43,0.34,1784935280356.658
-0.849,-0.471,-0.136,-1.46,1.62,0.85,1784935280367.039
-0.842,-0.473,-0.128,-1.74,1.59,0.92,1784935280380.122
-0.836,-0.475,-0.124,-1.46,1.59,0.52,1784935280385.988
-0.834,-0.473,-0.122,-0.89,1.53,-0.18,1784935280396.0378
-0.835,-0.469,-0.124,-0.09,1.59,-0.76,1784935280406.461
-0.838,-0.468,-0.126,0.34,1.62,-1.22,1784935280416.726
-0.841,-0.465,-0.128,0.24,1.65,-1.65,1784935280427.1328
-0.841,-0.464,-0.126,-0.21,1.62,-1.68,1784935280440.3992
-0.84,-0.465,-0.121,-0.52,1.74,-1.65,1784935280446.271
-0.841,-0.468,-0.116,-0.58,1.83,-1.43,1784935280456.011
-0.84,-0.469,-0.116,-0.52,1.89,-1.25,1784935280466.672
-0.841,-0.468,-0.114,-0.24,2.01,-1.1,1784935280476.802
-0.843,-0.467,-0.114,0.64,2.14,-0.85,1784935280487.2163
-0.845,-0.466,-0.112,1.56,2.26,-0.79,1784935280500.745
-0.847,-0.469,-0.106,2.35,2.26,-0.67,1784935280506.02
-0.847,-0.47,-0.102,3.14,2.23,-0.67,1784935280516.165
-0.849,-0.473,-0.104,3.88,2.17,-0.49,1784935280526.731
-0.847,-0.471,-0.107,4.36,1.98,-0.37,1784935280536.8618
-0.847,-0.47,-0.11,4.39,1.71,-0.4,1784935280550.126
-0.85,-0.467,-0.113,3.81,1.5,-0.37,1784935280555.815
-0.852,-0.466,-0.116,3.14,1.22,-0.37,1784935280565.831
-0.851,-0.466,-0.117,2.32,0.98,-0.31,1784935280576.174
-0.85,-0.47,-0.117,1.43,0.67,-0.24,1784935280586.731
-0.848,-0.473,-0.116,0.55,0.31,-0.06,1784935280597.008
-0.847,-0.475,-0.114,0.09,0.18,0.58,1784935280610.21
-0.844,-0.479,-0.117,-0.03,0.15,1.01,1784935280616.0361
-0.842,-0.482,-0.116,0.06,0.0,1.16,1784935280625.546
-0.839,-0.483,-0.116,0.03,-0.06,1.31,1784935280636.2651
-0.839,-0.487,-0.118,0.27,-0.18,1.5,1784935280646.6218
-0.841,-0.488,-0.118,0.37,-0.21,1.46,1784935280657.012
-0.841,-0.485,-0.122,0.43,-0.24,1.4,1784935280670.271
-0.846,-0.483,-0.125,0.64,-0.34,1.34,1784935280675.958
-0.845,-0.486,-0.123,0.52,-0.49,1.01,1784935280692.2979
-0.847,-0.489,-0.127,-0.03,-0.61,0.64,1784935280697.4639
-0.853,-0.494,-0.126,-0.55,-0.79,0.4,1784935280706.42
-0.853,-0.496,-0.123,-0.61,-0.79,0.27,1784935280716.9678
-0.853,-0.494,-0.121,-0.03,-0.89,0.34,1784935280730.383
-0.855,-0.492,-0.12,0.79,-0.89,0.37,1784935280735.6802
-0.856,-0.491,-0.119,1.43,-0.95,0.18,1784935280746.128
-0.858,-0.489,-0.123,1.62,-0.95,-0.03,1784935280756.3838
-0.855,-0.485,-0.122,1.98,-0.89,0.03,1784935280767.008
-0.851,-0.484,-0.12,2.44,-0.95,0.03,1784935280777.1719
-0.849,-0.483,-0.118,2.35,-0.98,-0.15,1784935280790.411
