ax,ay,az,gx,gy,gz,timestamp_ms
-0.96,-0.359,-0.132,-43.82,-40.04,15.26,1784935580494.766
-0.966,-0.364,-0.108,-43.98,-39.06,8.61,1784935580565.701
-0.98,-0.36,-0.069,-37.2,-37.54,3.88,1784935580566.0059
-0.995,-0.369,-0.041,-26.89,-36.32,-0.24,1784935580566.3418
-1.008,-0.356,-0.023,-17.27,-35.37,-3.45,1784935580566.592
-1.021,-0.335,-0.027,-8.97,-33.97,-4.82,1784935580566.835
-1.031,-0.309,-0.04,-2.5,-31.95,-4.0,1784935580567.078
-1.025,-0.3,-0.062,0.64,-30.09,-2.35,1784935580567.315
-1.011,-0.281,-0.081,-3.08,-27.95,-1.37,1784935580567.56
-1.004,-0.277,-0.092,-10.77,-25.18,-0.82,1784935580567.7979
-1.006,-0.301,-0.084,-19.96,-22.4,-0.76,1784935580568.031
-1.004,-0.322,-0.041,-29.85,-19.68,-1.07,1784935580568.2612
-1.0,-0.342,0.002,-37.29,-17.3,-1.53,1784935580568.4968
-1.007,-0.359,0.019,-40.44,-16.14,-1.77,1784935580568.726
-1.019,-0.37,0.025,-40.89,-15.14,-2.96,1784935580568.95
-1.025,-0.377,0.029,-39.92,-13.12,-4.52,1784935580569.1982
-1.025,-0.375,0.045,-37.39,-10.77,-5.89,1784935580569.428
-1.025,-0.355,0.059,-32.17,-8.73,-6.87,1784935580569.6619
-1.011,-0.33,0.061,-25.12,-7.08,-7.23,1784935580569.8901
-1.0,-0.315,0.052,-18.34,-5.55,-7.45,1784935580570.132
-0.992,-0.301,0.044,-15.02,-3.91,-8.48,1784935580570.394
-0.992,-0.286,0.046,-14.53,-2.56,-9.52,1784935580570.6548
-0.997,-0.273,0.056,-14.56,-1.5,-9.43,1784935580570.93
-1.004,-0.27,0.054,-14.19,-0.89,-8.09,1784935580571.1812
-1.004,-0.271,0.048,-14.25,-0.43,-5.95,1784935580571.403
-0.992,-0.264,0.043,-15.2,-0.03,-3.81,1784935580571.6748
-0.966,-0.26,0.036,-15.59,0.49,-1.25,1784935580571.9248
-0.94,-0.266,0.022,-15.35,0.95,1.19,1784935580572.144
-0.901,-0.285,0.011,-15.75,1.4,2.84,1784935580572.366
-0.87,-0.28,-0.005,-17.33,1.95,2.32,1784935580572.594
-0.85,-0.261,-0.006,-21.42,2.75,2.75,1784935580572.809
-0.807,-0.264,0.01,-27.13,4.55,4.36,1784935580573.036
-0.778,-0.26,0.013,-32.32,5.92,4.18,1784935580573.26
-0.764,-0.246,0.002,-36.59,6.87,3.6,1784935580573.49
-0.759,-0.238,-0.016,-41.78,7.26,3.81,1784935580573.7212
-0.753,-0.242,-0.037,-48.13,7.54,4.33,1784935580573.9783
-0.756,-0.248,-0.031,-53.44,8.91,4.61,1784935580574.2112
-0.77,-0.262,-0.008,-55.67,10.74,5.62,1784935580574.44
-0.8,-0.286,0.008,-55.15,12.18,7.02,1784935580574.6628
-0.831,-0.322,0.032,-53.56,13.09,7.63,1784935580574.89
-0.859,-0.358,0.064,-50.69,14.1,7.69,1784935580575.115
-0.885,-0.389,0.096,-44.86,14.68,7.66,1784935580575.329
-0.903,-0.414,0.129,-36.01,14.65,6.87,1784935580575.5498
-0.912,-0.429,0.155,-24.81,14.01,5.07,1784935580575.7693
-0.921,-0.429,0.157,-13.31,12.67,2.5,1784935580575.9822
-0.933,-0.417,0.144,-3.27,11.29,-0.55,1784935580576.1973
-0.948,-0.394,0.132,4.88,9.83,-4.09,1784935580576.4128
-0.967,-0.368,0.121,11.41,7.81,-7.14,1784935580576.6558
-0.983,-0.346,0.102,16.94,5.58,-9.49,1784935580576.869
-1.0,-0.321,0.077,19.87,3.63,-11.23,1784935580577.0828
-1.013,-0.297,0.049,19.53,1.71,-12.02,1784935580577.3198
-1.023,-0.297,0.026,16.08,0.12,-12.3,1784935580577.5308
-1.032,-0.298,0.011,9.46,-0.82,-12.33,1784935580577.748
-1.03,-0.301,-0.003,2.04,-1.07,-11.51,1784935580577.966
-1.027,-0.313,-0.012,-4.79,-1.13,-9.98,1784935580578.1738
-1.022,-0.321,-0.006,-10.25,-0.98,-8.48,1784935580578.3958
-1.011,-0.332,-0.01,-13.4,-0.98,-6.84,1784935580578.6082
-0.996,-0.339,-0.018,-15.41,-0.67,-5.52,1784935580578.819
-0.988,-0.343,-0.018,-16.85,-0.15,-5.07,1784935580579.0222
-0.988,-0.343,-0.015,-17.67,0.27,-5.04,1784935580579.252
-0.992,-0.349,-0.02,-17.03,0.55,-4.67,1784935580579.4658
-0.997,-0.359,-0.022,-15.87,1.28,-4.49,1784935580579.673
-0.997,-0.359,-0.022,-14.04,2.14,-4.79,1784935580579.879
-1.004,-0.366,-0.012,-11.32,2.78,-5.22,1784935580580.1038
-1.006,-0.372,0.0,-7.93,3.3,-5.77,1784935580580.2988
-1.002,-0.377,0.016,-3.36,3.63,-6.32,1784935580580.4968
-0.996,-0.37,0.032,-3.36,3.63,-6.32,1784935580580.7048
-0.988,-0.357,0.035,2.08,3.66,-6.35,1784935580580.9111
-0.982,-0.348,0.026,6.9,3.54,-5.89,1784935580581.106
-0.969,-0.341,0.025,9.7,3.6,-5.62,1784935580581.307
-0.957,-0.339,0.028,10.44,3.72,-5.68,1784935580581.5198
-0.953,-0.334,0.027,10.22,3.42,-5.8,1784935580581.7202
-0.953,-0.333,0.025,10.01,3.05,-5.58,1784935580581.929
-0.954,-0.334,0.021,9.46,2.93,-5.16,1784935580582.133
-0.954,-0.334,0.019,8.67,2.87,-4.7,1784935580582.3303
-0.957,-0.33,0.031,7.72,2.44,-4.39,1784935580582.535
-0.956,-0.325,0.041,7.02,1.86,-3.85,1784935580582.74
-0.954,-0.317,0.045,6.78,1.13,-2.96,1784935580582.942
-0.952,-0.322,0.034,6.68,0.46,-1.86,1784935580583.1401
-0.948,-0.331,0.022,5.49,-0.06,-1.28,1784935580583.346
-0.942,-0.334,0.019,3.14,-0.31,-1.62,1784935580583.5469
-0.936,-0.335,0.017,1.46,-0.52,-1.8,1784935580583.738
-0.933,-0.337,0.024,0.7,-0.82,-1.92,1784935580583.94
-0.931,-0.326,0.031,0.49,-1.19,-2.04,1784935580584.143
-0.929,-0.307,0.027,1.01,-1.37,-1.53,1784935580584.338
-0.938,-0.319,0.006,1.46,-1.95,-0.43,1784935580584.5361
-0.928,-0.322,-0.003,-0.73,-2.53,-0.12,1784935580584.742
-0.917,-0.319,0.006,-3.05,-1.98,-0.7,1784935580584.9368
-0.916,-0.322,0.016,-3.78,-1.43,-1.16,1784935580585.138
-0.918,-0.315,0.029,-3.11,-1.56,-0.7,1784935580585.345
-0.912,-0.31,0.022,-0.18,-2.32,1.07,1784935580585.55
-0.897,-0.312,0.003,2.78,-2.5,2.47,1784935580585.7449
-0.888,-0.306,-0.001,4.03,-2.08,2.62,1784935580585.945
-0.886,-0.293,-0.001,4.24,-2.04,2.69,1784935580586.168
-0.883,-0.295,-0.011,4.24,-2.01,3.05,1784935580586.438
-0.877,-0.299,-0.008,3.51,-1.53,3.51,1784935580586.6802
-0.87,-0.292,0.008,2.59,-0.95,4.36,1784935580586.9062
-0.869,-0.292,0.001,2.62,-0.76,5.28,1784935580587.1492
-0.868,-0.295,-0.014,3.02,-0.67,5.4,1784935580587.393
-0.866,-0.291,-0.016,2.9,-0.4,5.19,1784935580587.6511
-0.87,-0.288,-0.014,2.14,-0.06,4.97,1784935580587.894
-0.887,-0.302,-0.011,1.04,0.34,4.39,1784935580588.147
-0.91,-0.314,-0.013,-1.28,0.64,2.99,1784935580588.3699
-0.926,-0.317,0.003,-4.67,0.98,1.95,1784935580588.573
-0.946,-0.332,0.006,-5.19,1.25,0.89,1784935580588.765
-0.969,-0.334,0.001,-5.83,1.01,0.15,1784935580588.96
-0.973,-0.34,0.005,-6.99,0.82,-0.06,1784935580589.1577
-0.977,-0.353,0.005,-6.71,0.46,-1.13,1784935580589.3528
-0.992,-0.359,-0.012,-6.32,-0.18,-2.9,1784935580589.5537
-1.005,-0.368,-0.02,-6.9,-0.52,-4.49,1784935580589.756
-1.013,-0.386,-0.019,-7.9,-0.76,-5.68,1784935580589.949
-1.018,-0.407,-0.012,-9.34,-1.07,-5.95,1784935580590.151
-1.01,-0.445,-0.009,-10.5,-1.28,-4.61,1784935580590.351
-0.983,-0.509,0.001,-11.57,-1.31,-3.2,1784935580590.574
-0.948,-0.573,0.01,-11.6,-1.68,-2.53,1784935580590.841
-0.919,-0.62,-0.005,-9.86,-2.75,-1.98,1784935580591.042
-0.907,-0.645,-0.033,-8.42,-4.12,-2.26,1784935580591.24
-0.893,-0.647,-0.057,-8.45,-4.64,-3.3,1784935580591.449
-0.871,-0.637,-0.064,-9.4,-4.15,-5.62,1784935580591.6428
-0.851,-0.61,-0.063,-10.38,-4.03,-9.86,1784935580591.837
-0.845,-0.565,-0.055,-11.11,-4.36,-15.05,1784935580592.0242
-0.839,-0.524,-0.052,-12.42,-5.07,-19.14,1784935580592.219
-0.836,-0.496,-0.059,-15.32,-5.49,-21.7,1784935580592.411
-0.833,-0.482,-0.048,-19.78,-4.64,-23.26,1784935580592.612
-0.831,-0.464,-0.017,-25.03,-3.14,-24.54,1784935580592.8052
-0.832,-0.448,0.004,-28.5,-2.17,-24.96,1784935580593.0022
-0.841,-0.433,0.023,-30.27,-1.28,-25.33,1784935580593.1958
-0.856,-0.407,0.034,-30.67,-0.73,-25.7,1784935580593.4038
-0.875,-0.391,0.025,-29.02,-0.49,-25.45,1784935580593.624
-0.889,-0.378,0.01,-27.04,-0.24,-25.24,1784935580593.842
-0.899,-0.368,-0.004,-24.57,0.21,-25.24,1784935580594.034
-0.91,-0.351,-0.009,-20.72,0.95,-25.12,1784935580594.2322
-0.915,-0.328,0.001,-15.05,1.83,-23.93,1784935580594.456
-0.915,-0.308,0.014,-7.48,2.53,-21.64,1784935580594.6501
-0.916,-0.31,0.004,0.61,2.9,-18.71,1784935580594.837
-0.922,-0.318,-0.004,6.5,3.33,-16.88,1784935580595.031
-0.926,-0.316,0.005,9.77,4.03,-16.08,1784935580595.226
-0.926,-0.309,0.011,12.3,4.43,-15.05,1784935580595.415
-0.92,-0.301,0.018,14.83,4.64,-13.52,1784935580595.613
-0.916,-0.288,0.019,16.42,4.64,-11.9,1784935580595.815
-0.917,-0.281,0.015,17.12,4.64,-10.47,1784935580596.0542
-0.925,-0.279,0.015,16.75,4.36,-9.46,1784935580596.26
-0.929,-0.296,0.015,16.24,4.03,-8.21,1784935580596.5178
-0.917,-0.326,0.012,17.24,3.69,-7.87,1784935580596.731
-0.937,-0.326,-0.005,18.25,3.42,-8.36,1784935580596.939
-0.938,-0.331,-0.002,15.14,3.08,-6.5,1784935580597.175
-0.934,-0.334,0.021,12.85,3.02,-6.56,1784935580597.387
-0.966,-0.342,0.01,14.59,2.38,-5.71,1784935580597.582
-0.957,-0.365,-0.004,14.13,1.65,-4.15,1784935580597.7722
-0.97,-0.344,-0.013,11.51,2.08,-5.1,1784935580597.97
-0.974,-0.355,-0.012,8.79,2.2,-3.69,1784935580598.165
-0.976,-0.361,-0.003,6.96,2.23,-4.03,1784935580598.367
-0.976,-0.36,-0.001,5.86,2.14,-3.23,1784935580598.5642
-0.971,-0.376,0.005,4.94,2.23,-2.41,1784935580598.758
-0.979,-0.385,0.011,5.19,2.32,-2.38,1784935580598.945
-0.983,-0.389,0.011,5.62,2.01,-1.46,1784935580599.137
-0.979,-0.402,0.002,6.32,1.65,-0.73,1784935580599.331
-0.985,-0.399,-0.002,6.29,1.31,-0.7,1784935580599.5168
-0.983,-0.404,-0.004,5.95,1.37,0.24,1784935580599.7031
-0.979,-0.412,-0.005,5.13,1.65,0.89,1784935580599.895
-0.978,-0.417,-0.007,3.69,1.68,1.43,1784935580600.089
-0.978,-0.425,-0.006,2.35,1.86,1.71,1784935580600.28
-0.979,-0.43,0.002,1.19,1.98,1.65,1784935580600.474
-0.976,-0.439,0.011,0.55,1.65,1.98,1784935580600.666
-0.975,-0.446,0.013,0.49,1.56,2.26,1784935580600.8489
-0.973,-0.451,0.016,0.89,1.46,2.32,1784935580601.0562
-0.966,-0.457,0.017,1.43,1.34,2.38,1784935580601.248
-0.962,-0.462,0.015,2.17,1.13,2.53,1784935580601.435
-0.958,-0.463,0.012,2.75,0.82,2.44,1784935580601.629
-0.953,-0.462,0.012,2.87,0.85,2.38,1784935580601.823
-0.954,-0.461,0.009,2.53,0.67,2.47,1784935580602.012
-0.952,-0.46,0.007,2.01,0.52,2.75,1784935580602.205
-0.967,-0.465,0.008,2.53,0.58,3.27,1784935580602.762
-0.966,-0.474,0.002,2.99,0.31,3.97,1784935580602.95
-0.884,-0.358,-0.137,-17.24,-2.59,2.69,1784935580603.2332
-0.879,-0.35,-0.145,-24.72,-5.22,2.53,1784935580603.4272
-0.877,-0.335,-0.15,-36.99,-8.7,2.32,1784935580603.6138
-0.88,-0.324,-0.174,-56.58,-13.34,1.46,1784935580611.922
-0.898,-0.305,-0.214,-85.15,-18.92,-0.37,1784935580625.0889
-0.909,-0.289,-0.241,-120.0,-24.08,-2.59,1784935580630.6602
-0.918,-0.279,-0.265,-157.08,-28.26,-5.46,1784935580641.5042
-0.931,-0.28,-0.254,-189.89,-30.88,-9.13,1784935580654.739
-0.94,-0.298,-0.21,-212.56,-32.32,-12.02,1784935580660.438
-0.94,-0.302,-0.16,-224.46,-33.88,-13.12,1784935580671.367
-0.934,-0.311,-0.112,-224.16,-35.04,-12.51,1784935580684.594
-0.923,-0.313,-0.076,-213.72,-35.65,-10.5,1784935580690.479
-0.909,-0.325,-0.066,-195.62,-36.01,-6.87,1784935580701.268
-0.905,-0.333,-0.078,-174.11,-35.37,-3.08,1784935580711.915
-0.902,-0.325,-0.106,-151.28,-33.72,0.27,1784935580725.152
-0.888,-0.337,-0.164,-128.39,-31.25,3.45,1784935580730.894
-0.879,-0.339,-0.198,-107.64,-27.07,6.32,1784935580741.642
-0.878,-0.339,-0.206,-86.18,-22.77,9.13,1784935580754.876
-0.875,-0.353,-0.214,-62.62,-19.14,12.15,1784935580760.713
-0.877,-0.345,-0.194,-40.01,-16.33,15.05,1784935580771.284
-0.859,-0.345,-0.17,-17.24,-14.5,18.22,1784935580781.906
-0.85,-0.375,-0.188,2.01,-14.47,20.42,1784935580795.147
-0.853,-0.412,-0.258,12.48,-16.17,20.69,1784935580800.938
-0.857,-0.459,-0.334,14.04,-15.56,17.76,1784935580811.5652
-0.876,-0.487,-0.369,8.82,-13.89,11.81,1784935580825.502
-0.904,-0.492,-0.36,2.72,-13.06,4.79,1784935580831.311
-0.932,-0.455,-0.302,1.4,-12.79,-1.28,1784935580840.885
-0.952,-0.455,-0.315,6.13,-11.57,-5.16,1784935580851.5552
-0.978,-0.503,-0.357,8.67,-8.64,-11.41,1784935580862.102
-1.015,-0.568,-0.412,5.92,-6.65,-21.36,1784935580875.1099
-1.034,-0.601,-0.483,0.31,-3.75,-31.28,1784935580880.779
-1.024,-0.605,-0.512,-4.43,0.4,-38.88,1784935580891.1538
-0.993,-0.628,-0.522,-5.22,2.62,-44.31,1784935580901.643
-0.976,-0.581,-0.486,-5.58,1.98,-48.65,1784935580912.129
-0.948,-0.502,-0.475,-1.34,0.12,-49.68,1784935580925.3381
-0.914,-0.433,-0.493,4.18,-0.89,-48.37,1784935580931.6868
-0.88,-0.402,-0.541,5.46,0.24,-46.27,1784935580941.279
-0.84,-0.406,-0.566,0.67,3.94,-43.98,1784935580951.593
-0.811,-0.402,-0.566,-8.39,8.85,-41.81,1784935580962.113
-0.788,-0.396,-0.557,-17.79,14.47,-38.67,1784935580975.658
-0.774,-0.402,-0.542,-28.44,19.59,-35.4,1784935580981.313
-0.752,-0.393,-0.558,-40.86,23.65,-31.07,1784935580991.9282
-0.734,-0.403,-0.596,-50.39,26.95,-26.18,1784935581005.056
-0.718,-0.409,-0.672,-57.74,28.84,-23.99,1784935581011.2598
-0.707,-0.41,-0.738,-67.6,32.11,-20.91,1784935581021.638
-0.716,-0.434,-0.803,-76.66,37.84,-15.53,1784935581035.327
-0.729,-0.476,-0.854,-77.61,45.2,-13.89,1784935581040.948
-0.757,-0.531,-0.87,-79.81,52.67,-12.97,1784935581051.6702
-0.779,-0.585,-0.855,-83.44,61.19,-11.17,1784935581061.9968
-0.825,-0.655,-0.8,-84.72,68.36,-8.64,1784935581075.199
-0.861,-0.66,-0.787,-78.62,71.87,-9.55,1784935581081.2449
-0.893,-0.666,-0.806,-71.08,76.85,-9.37,1784935581091.425
-0.932,-0.735,-0.816,-62.72,83.9,-9.4,1784935581101.9788
-0.96,-0.79,-0.815,-48.28,90.76,-18.04,1784935581115.299
-0.994,-0.834,-0.793,-31.8,97.87,-27.8,1784935581121.2878
-1.016,-0.868,-0.757,-12.05,103.95,-35.52,1784935581131.789
-1.022,-0.844,-0.734,11.32,107.03,-42.85,1784935581145.028
-1.022,-0.844,-0.734,35.92,109.16,-50.39,1784935581151.0342
-1.011,-0.783,-0.768,53.47,112.31,-58.84,1784935581161.813
-1.014,-0.728,-0.824,62.5,115.3,-66.56,1784935581174.825
-1.025,-0.693,-0.848,65.92,117.56,-72.02,1784935581180.623
-1.037,-0.672,-0.842,64.36,119.51,-76.39,1784935581191.639
-1.038,-0.643,-0.86,64.36,119.51,-76.39,1784935581205.003
-1.037,-0.603,-0.873,58.23,121.52,-79.44,1784935581211.0479
-1.03,-0.603,-0.856,48.34,124.12,-81.42,1784935581221.661
-1.026,-0.625,-0.813,36.47,126.26,-83.35,1784935581234.965
-1.02,-0.643,-0.765,26.52,128.12,-84.72,1784935581240.9348
-1.003,-0.662,-0.736,19.29,129.15,-86.37,1784935581251.657
-0.998,-0.672,-0.707,15.72,129.61,-88.78,1784935581264.926
-0.98,-0.664,-0.686,16.08,129.18,-91.04,1784935581270.913
-0.954,-0.655,-0.681,18.04,128.76,-93.36,1784935581281.396
-0.936,-0.646,-0.665,18.95,129.0,-95.68,1784935581295.0872
-0.93,-0.643,-0.634,19.01,128.42,-96.71,1784935581300.962
-0.91,-0.639,-0.619,19.1,126.71,-97.2,1784935581311.462
-0.883,-0.605,-0.637,19.07,124.94,-97.75,1784935581324.877
-0.846,-0.541,-0.657,16.66,124.7,-96.8,1784935581330.997
-0.834,-0.547,-0.647,11.47,125.28,-93.78,1784935581341.601
-0.794,-0.537,-0.649,9.28,122.38,-94.76,1784935581352.376
-0.767,-0.524,-0.664,3.75,121.8,-93.45,1784935581365.466
-0.767,-0.554,-0.653,-4.27,123.51,-88.78,1784935581371.4448
-0.772,-0.576,-0.644,-8.79,121.34,-88.5,1784935581381.918
-0.774,-0.567,-0.665,-11.26,117.8,-89.75,1784935581395.526
-0.75,-0.563,-0.662,-18.37,117.65,-86.46,1784935581401.23
-0.718,-0.559,-0.67,-18.8,115.33,-86.0,1784935581412.191
-0.679,-0.508,-0.676,-16.69,112.83,-86.55,1784935581424.938
-0.658,-0.515,-0.617,-23.99,113.19,-80.14,1784935581430.941
-0.645,-0.516,-0.55,-26.83,109.71,-79.1,1784935581441.903
-0.618,-0.451,-0.509,-27.41,104.01,-79.99,1784935581455.521
-0.576,-0.404,-0.455,-33.42,101.66,-71.57,1784935581461.281
-0.538,-0.397,-0.391,-32.07,97.87,-65.55,1784935581471.8972
-0.491,-0.318,-0.34,-26.8,94.27,-61.59,1784935581484.8672
-0.47,-0.361,-0.214,-22.43,90.91,-49.29,1784935581490.572
-0.443,-0.326,-0.224,-6.59,81.0,-48.46,1784935581501.181
-0.415,-0.288,-0.185,0.89,75.23,-40.35,1784935581512.053
-0.368,-0.312,-0.206,15.41,64.67,-33.27,1784935581525.3398
-0.337,-0.264,-0.228,27.56,55.27,-31.53,1784935581531.674
-0.333,-0.189,-0.254,34.46,52.83,-23.65,1784935581541.602
-0.359,-0.262,-0.196,38.39,51.45,-14.04,1784935581552.267
-0.281,-0.322,-0.195,44.62,42.54,-19.59,1784935581565.4731
-0.166,-0.416,-0.233,40.5,36.26,-21.82,1784935581571.542
-0.129,-0.487,-0.261,34.82,33.94,-20.69,1784935581581.9531
-0.134,-0.405,-0.384,41.96,25.3,-31.16,1784935581595.252
-0.125,-0.267,-0.497,37.72,19.99,-38.0,1784935581601.154
-0.119,-0.219,-0.518,23.68,19.44,-35.86,1784935581611.5688
-0.11,-0.189,-0.504,9.89,18.77,-32.62,1784935581621.948
-0.106,-0.209,-0.484,-4.67,16.82,-28.66,1784935581635.6511
-0.118,-0.274,-0.422,-14.5,14.25,-23.5,1784935581641.101
-0.115,-0.306,-0.395,-13.7,9.46,-18.31,1784935581651.5571
-0.105,-0.272,-0.457,-6.2,3.3,-14.01,1784935581662.1912
-0.083,-0.247,-0.568,-0.73,-1.01,-9.03,1784935581675.2278
-0.058,-0.266,-0.625,0.31,-1.68,-3.23,1784935581680.753
-0.044,-0.323,-0.636,-0.58,-1.56,1.89,1784935581691.128
-0.037,-0.392,-0.656,-3.02,-2.11,4.7,1784935581701.4822
-0.041,-0.441,-0.655,-4.52,-1.56,5.74,1784935581711.814
-0.049,-0.469,-0.664,-3.72,-1.22,5.28,1784935581722.075
-0.051,-0.469,-0.659,-3.3,-1.16,4.43,1784935581735.444
-0.049,-0.45,-0.661,-4.85,-2.26,4.39,1784935581741.168
-0.055,-0.419,-0.677,-9.13,-4.12,5.55,1784935581751.193
-0.052,-0.427,-0.717,-15.72,-6.35,8.27,1784935581761.687
-0.056,-0.473,-0.741,-21.82,-7.11,11.38,1784935581772.428
-0.047,-0.533,-0.742,-23.74,-6.44,14.04,1784935581785.355
-0.04,-0.606,-0.72,-22.49,-5.16,14.92,1784935581791.137
-0.041,-0.681,-0.721,-18.95,-3.85,13.15,1784935581801.623
-0.043,-0.749,-0.729,-13.31,-1.95,9.13,1784935581812.196
-0.037,-0.801,-0.767,-5.25,0.18,3.08,1784935581825.311
-0.054,-0.83,-0.781,3.85,4.43,-4.09,1784935581831.594
-0.089,-0.832,-0.736,12.57,9.64,-12.12,1784935581841.2048
-0.121,-0.794,-0.699,19.75,12.48,-20.78,1784935581851.701
-0.128,-0.747,-0.669,23.59,13.89,-28.44,1784935581865.1882
-0.087,-0.703,-0.682,23.35,13.06,-34.03,1784935581871.176
-0.063,-0.663,-0.718,20.54,11.51,-37.72,1784935581881.6099
-0.088,-0.607,-0.751,15.35,11.02,-39.37,1784935581891.9329
-0.109,-0.566,-0.756,8.24,11.72,-38.94,1784935581905.5
-0.111,-0.563,-0.708,-1.07,12.88,-37.48,1784935581911.073
-0.112,-0.579,-0.657,-9.92,12.6,-36.26,1784935581921.63
-0.162,-0.612,-0.618,-15.05,12.24,-35.83,1784935581932.2979
-0.226,-0.659,-0.539,-16.27,12.85,-37.05,1784935581945.596
-0.2,-0.716,-0.393,-13.52,11.47,-41.05,1784935581952.226
-0.028,-0.738,-0.361,-8.88,1.89,-49.13,1784935581961.886
0.049,-0.7,-0.556,-5.19,-9.95,-58.35,1784935581972.255
0.017,-0.612,-0.761,-9.31,-13.58,-63.14,1784935581985.568
0.043,-0.497,-0.967,-19.75,-12.73,-62.32,1784935581991.626
0.038,-0.488,-1.041,-33.23,-3.94,-55.18,1784935582001.8098
-0.018,-0.6,-0.928,-49.32,8.48,-48.55,1784935582015.1182
-0.054,-0.743,-0.762,-57.89,17.33,-47.58,1784935582021.03
-0.105,-0.831,-0.597,-48.95,22.74,-52.77,1784935582031.2588
-0.087,-0.867,-0.482,-25.61,22.34,-59.66,1784935582041.8857
-0.017,-0.869,-0.505,3.36,16.24,-67.05,1784935582055.4968
0.035,-0.837,-0.622,28.5,7.39,-73.76,1784935582061.347
0.053,-0.727,-0.854,42.85,-1.53,-79.32,1784935582071.7727
0.039,-0.536,-1.085,43.09,-3.23,-80.57,1784935582082.0579
0.017,-0.395,-1.228,26.49,2.35,-76.48,1784935582095.0999
0.011,-0.369,-1.226,-2.75,13.28,-70.13,1784935582100.906
-0.01,-0.452,-1.069,-32.99,26.31,-64.49,1784935582111.6108
0.038,-0.642,-0.783,-53.16,34.7,-61.13,1784935582122.236
0.119,-0.857,-0.658,-53.1,33.48,-61.77,1784935582135.5881
0.022,-0.974,-0.65,-32.44,31.25,-65.83,1784935582141.531
-0.039,-1.0,-0.665,-3.63,28.5,-71.2,1784935582151.654
0.06,-0.968,-0.714,22.37,23.44,-77.55,1784935582164.9878
0.122,-0.854,-0.867,40.59,19.26,-83.83,1784935582171.0679
0.12,-0.711,-1.022,44.04,20.63,-87.37,1784935582181.5723
0.142,-0.673,-1.095,29.82,27.31,-87.83,1784935582191.9592
0.18,-0.714,-1.02,6.68,35.49,-87.28,1784935582205.447
0.204,-0.75,-0.899,-8.97,40.22,-89.14,1784935582211.0688
0.173,-0.68,-0.794,-9.89,40.86,-93.3,1784935582221.531
0.142,-0.606,-0.668,-4.33,37.9,-92.1,1784935582232.237
0.14,-0.596,-0.578,0.7,30.37,-88.66,1784935582245.467
0.149,-0.618,-0.532,11.05,20.42,-85.82,1784935582251.9722
0.141,-0.536,-0.549,29.18,9.31,-84.99,1784935582261.545
0.181,-0.398,-0.621,41.6,-2.41,-83.35,1784935582274.9583
0.219,-0.317,-0.698,42.88,-11.69,-79.04,1784935582280.64
0.274,-0.252,-0.753,35.74,-18.62,-71.78,1784935582291.335
0.352,-0.223,-0.797,26.55,-23.22,-62.87,1784935582302.052
0.457,-0.238,-0.791,15.2,-26.06,-53.04,1784935582315.381
0.549,-0.307,-0.745,5.52,-28.32,-42.45,1784935582321.29
0.585,-0.38,-0.708,3.97,-31.31,-34.03,1784935582331.36
0.602,-0.404,-0.706,9.43,-35.16,-28.26,1784935582341.887
0.6,-0.399,-0.702,17.76,-38.76,-23.74,1784935582355.735
0.616,-0.357,-0.708,26.8,-42.73,-19.07,1784935582361.563
0.629,-0.337,-0.755,34.24,-45.75,-13.46,1784935582371.9521
0.614,-0.339,-0.786,36.84,-46.27,-8.64,1784935582384.938
0.595,-0.341,-0.817,36.84,-44.89,-2.96,1784935582390.813
0.59,-0.319,-0.796,34.39,-39.58,3.72,1784935582401.2642
0.541,-0.327,-0.747,31.98,-30.06,12.12,1784935582411.98
0.381,-0.373,-0.59,30.49,-16.75,22.25,1784935582425.207
0.3,-0.407,-0.4,36.53,-6.71,34.24,1784935582431.791
0.33,-0.406,-0.247,56.12,1.37,48.59,1784935582441.45
0.33,-0.406,-0.247,83.62,7.78,64.46,1784935582451.7778
0.438,-0.349,-0.19,110.69,12.18,79.01,1784935582465.1511
0.693,-0.325,-0.243,129.18,16.3,90.12,1784935582471.266
0.833,-0.456,-0.235,144.2,9.37,90.85,1784935582481.8828
0.736,-0.637,-0.237,144.2,9.37,90.85,1784935582495.413
0.624,-0.594,-0.514,159.79,-14.4,80.9,1784935582501.204
0.594,-0.28,-0.998,162.42,-38.09,71.14,1784935582511.653
0.566,-0.025,-1.396,129.67,-46.02,67.87,1784935582525.0293
0.563,-0.017,-1.597,63.2,-40.93,68.03,1784935582531.162
0.627,-0.266,-1.568,-13.52,-25.39,70.68,1784935582541.581
0.661,-0.712,-1.3,-72.54,-3.66,74.13,1784935582552.328
0.604,-1.208,-0.984,-91.4,12.45,72.15,1784935582565.362
0.518,-1.533,-0.757,-68.97,18.19,64.88,1784935582570.976
0.484,-1.607,-0.701,-17.76,15.9,53.99,1784935582581.791
0.496,-1.421,-0.812,38.06,12.36,40.07,1784935582595.5571
0.45,-1.121,-0.987,74.83,12.97,27.25,1784935582601.551
0.4,-0.868,-1.092,77.61,17.0,20.23,1784935582613.513
0.356,-0.715,-1.065,54.23,22.4,16.97,1784935582622.0212
0.301,-0.636,-0.936,19.26,26.61,15.44,1784935582635.3762
0.257,-0.63,-0.736,-14.1,28.23,15.56,1784935582641.422
0.22,-0.656,-0.524,-34.58,25.82,16.39,1784935582651.8381
0.19,-0.693,-0.4,-40.31,19.87,17.43,1784935582665.151
0.15,-0.651,-0.301,-39.74,12.63,18.43,1784935582671.6108
0.113,-0.627,-0.29,-32.23,5.25,23.1,1784935582681.4612
0.124,-0.625,-0.323,-28.08,-1.89,28.23,1784935582691.837
0.131,-0.625,-0.34,-28.32,-6.93,29.82,1784935582705.193
0.12,-0.625,-0.341,-29.94,-11.26,32.38,1784935582711.3652
0.099,-0.614,-0.359,-31.77,-16.11,36.16,1784935582721.661
0.101,-0.578,-0.371,-33.2,-20.97,41.05,1784935582732.374
0.128,-0.534,-0.327,-28.72,-25.06,48.37,1784935582745.47
0.166,-0.482,-0.257,-15.93,-29.39,56.0,1784935582751.1401
0.209,-0.433,-0.192,6.1,-34.73,64.24,1784935582761.922
0.254,-0.4,-0.115,37.45,-40.44,74.8,1784935582775.5808
0.262,-0.366,-0.14,71.72,-49.41,83.86,1784935582780.993
0.211,-0.368,-0.324,101.02,-59.39,90.24,1784935582792.0762
0.148,-0.42,-0.452,118.23,-65.13,95.31,1784935582805.034
0.115,-0.428,-0.475,125.95,-68.97,99.7,1784935582810.6611
0.114,-0.424,-0.527,135.44,-71.93,107.7,1784935582821.5881
0.118,-0.475,-0.608,144.26,-71.41,117.56,1784935582835.3323
0.096,-0.467,-0.582,140.87,-67.08,123.75,1784935582841.063
0.056,-0.445,-0.525,134.98,-63.2,132.63,1784935582851.9
0.024,-0.47,-0.513,128.3,-59.42,144.51,1784935582865.346
-0.037,-0.534,-0.558,115.24,-55.12,155.03,1784935582871.1428
-0.129,-0.634,-0.592,98.82,-48.62,162.6,1784935582882.136
-0.235,-0.647,-0.65,76.63,-43.21,164.68,1784935582895.618
-0.329,-0.685,-0.639,57.95,-36.9,164.04,1784935582901.419
-0.405,-0.766,-0.534,44.5,-30.82,164.8,1784935582911.9539
-0.456,-0.83,-0.322,37.17,-28.66,168.16,1784935582925.169
-0.495,-0.877,-0.126,35.98,-35.16,173.31,1784935582931.1472
-0.52,-0.978,-0.207,33.17,-44.5,179.33,1784935582942.088
-0.537,-1.164,-0.443,18.74,-44.31,181.01,1784935582955.568
-0.615,-1.28,-0.44,-2.41,-38.21,172.06,1784935582961.237
-0.673,-1.326,-0.27,-5.98,-37.11,159.49,1784935582971.95
-0.584,-1.324,-0.049,20.87,-38.09,149.88,1784935582984.954
-0.449,-1.153,0.09,69.09,-42.85,140.32,1784935582990.699
-0.367,-0.819,0.005,119.66,-53.04,132.91,1784935583001.7732
-0.372,-0.54,-0.241,154.09,-57.47,132.21,1784935583015.3752
-0.44,-0.384,-0.402,153.14,-53.71,134.8,1784935583020.795
-0.502,-0.349,-0.449,125.46,-43.03,141.45,1784935583031.8489
-0.54,-0.373,-0.386,89.05,-26.73,152.2,1784935583045.364
-0.615,-0.427,-0.273,59.97,-16.08,160.65,1784935583050.965
-0.71,-0.514,-0.147,39.22,-11.2,167.46,1784935583062.073
-0.848,-0.698,-0.097,27.89,-10.96,171.48,1784935583075.5242
-0.999,-0.886,0.044,23.74,-14.19,171.82,1784935583081.4453
-1.114,-1.026,0.19,42.09,-20.81,172.09,1784935583092.415
-1.201,-1.085,0.263,85.82,-31.34,172.86,1784935583105.273
-1.242,-1.014,0.223,138.19,-38.0,175.27,1784935583110.938
-1.264,-0.899,0.093,178.56,-38.03,176.85,1784935583122.0842
-1.284,-0.629,-0.168,177.77,-31.13,175.12,1784935583135.657
-1.314,-0.594,-0.427,148.87,-17.61,170.75,1784935583141.5
-1.363,-0.744,-0.465,104.56,-8.36,160.01,1784935583154.87
-1.38,-0.855,-0.362,60.95,-5.8,144.57,1784935583160.8809
-1.307,-0.946,-0.301,37.87,-7.66,134.16,1784935583171.218
-1.107,-0.927,-0.263,38.27,-10.96,120.55,1784935583182.126
-1.044,-0.831,-0.305,45.78,-15.56,107.03,1784935583195.649
-0.986,-0.709,-0.237,39.22,-16.66,105.17,1784935583201.1033
-0.869,-0.668,-0.195,32.35,-14.62,108.74,1784935583212.029
-0.806,-0.746,-0.25,27.13,-8.73,104.95,1784935583225.3162
-0.813,-0.704,-0.287,4.33,-4.0,95.58,1784935583230.9219
-0.82,-0.633,-0.349,-23.77,-0.52,87.74,1784935583241.307
-0.838,-0.71,-0.415,-38.82,2.47,79.84,1784935583252.0571
-0.861,-0.808,-0.328,-43.15,2.78,68.12,1784935583265.286
-0.858,-0.778,-0.163,-42.3,0.55,57.07,1784935583271.9778
-0.811,-0.71,-0.07,-35.8,-0.85,51.24,1784935583281.2559
-0.764,-0.729,-0.028,-31.43,-1.53,46.88,1784935583292.13
-0.736,-0.836,-0.054,-34.0,2.35,39.31,1784935583305.368
-0.774,-0.959,-0.13,-32.38,10.99,28.66,1784935583311.438
-0.87,-0.948,-0.192,-22.86,15.84,20.02,1784935583321.685
-0.918,-0.882,-0.152,-7.78,12.24,15.38,1784935583331.989
-0.912,-0.803,-0.115,7.54,4.43,9.16,1784935583345.4568
-0.917,-0.698,-0.107,17.18,-1.22,1.34,1784935583350.8962
-0.947,-0.586,-0.081,19.04,-3.66,-4.97,1784935583361.451
-0.965,-0.447,-0.032,16.33,-4.97,-6.68,1784935583371.765
-0.97,-0.377,-0.034,16.79,-3.94,-4.18,1784935583382.252
-0.965,-0.383,-0.051,20.94,-1.46,-1.92,1784935583395.614
-0.933,-0.383,-0.037,27.71,0.24,1.53,1784935583401.434
-0.897,-0.346,-0.092,37.05,-0.21,2.29,1784935583411.3171
-0.892,-0.326,-0.183,43.61,-0.4,0.34,1784935583421.914
-0.916,-0.316,-0.236,43.89,0.52,-2.01,1784935583435.416
-0.936,-0.254,-0.203,36.53,1.04,-2.11,1784935583441.074
-0.911,-0.243,-0.207,30.43,0.98,1.86,1784935583451.43
-0.879,-0.226,-0.186,22.25,2.11,4.7,1784935583461.6
-0.863,-0.23,-0.146,13.25,3.3,7.14,1784935583471.83
-0.872,-0.264,-0.14,8.12,4.85,9.16,1784935583485.143
-0.901,-0.325,-0.148,8.09,6.1,9.46,1784935583490.978
-0.925,-0.375,-0.123,9.34,6.9,8.82,1784935583500.967
-0.944,-0.395,-0.087,10.53,6.59,9.4,1784935583511.6648
-0.95,-0.417,-0.073,13.28,4.91,10.86,1784935583522.007
-0.947,-0.43,-0.052,15.2,2.96,11.44,1784935583535.1199
-0.924,-0.418,-0.044,13.64,0.76,11.78,1784935583541.3
-0.907,-0.431,-0.047,11.17,-0.64,11.75,1784935583551.488
-0.903,-0.468,-0.009,8.51,-1.8,10.53,1784935583561.987
-0.887,-0.508,-0.016,7.9,-2.75,9.25,1784935583572.312
-0.883,-0.537,-0.063,10.1,-2.96,7.08,1784935583585.578
-0.886,-0.518,-0.103,12.88,-2.44,5.04,1784935583591.5798
-0.881,-0.491,-0.109,14.8,-1.89,4.27,1784935583601.511
-0.865,-0.489,-0.121,12.39,-2.75,3.02,1784935583611.98
-0.875,-0.501,-0.124,6.26,-3.14,0.4,1784935583625.242
-0.904,-0.505,-0.093,0.98,-2.96,-1.65,1784935583631.5068
-0.912,-0.489,-0.068,-0.24,-2.78,-2.56,1784935583640.828
-0.903,-0.49,-0.059,1.92,-2.26,-3.51,1784935583651.236
-0.902,-0.506,-0.038,4.97,-1.92,-5.34,1784935583661.7112
-0.89,-0.499,-0.038,9.46,-2.72,-7.39,1784935583671.972
-0.878,-0.479,-0.07,14.53,-3.42,-8.09,1784935583685.28
-0.875,-0.451,-0.096,18.31,-3.57,-7.84,1784935583691.5378
-0.885,-0.405,-0.118,18.98,-3.97,-9.34,1784935583701.243
-0.883,-0.395,-0.139,13.7,-4.09,-7.84,1784935583711.5278
-0.883,-0.393,-0.12,4.15,-3.33,-7.26,1784935583721.9148
-0.893,-0.406,-0.093,-1.77,-2.78,-7.14,1784935583735.4932
-0.893,-0.406,-0.093,-3.42,-2.5,-7.69,1784935583741.031
-0.895,-0.421,-0.079,-0.95,-2.47,-8.06,1784935583751.421
-0.9,-0.431,-0.069,2.32,-2.75,-8.33,1784935583761.238
-0.9,-0.412,-0.064,4.3,-2.93,-8.09,1784935583771.771
-0.89,-0.399,-0.07,5.25,-2.53,-8.45,1784935583782.103
-0.892,-0.384,-0.086,5.25,-2.53,-8.45,1784935583795.6272
-0.902,-0.379,-0.096,5.92,-1.83,-7.93,1784935583801.138
-0.901,-0.39,-0.104,5.4,-0.85,-6.68,1784935583811.614
-0.892,-0.409,-0.119,4.73,0.64,-5.58,1784935583821.375
-0.891,-0.413,-0.114,5.01,1.53,-4.73,1784935583831.657
-0.899,-0.406,-0.103,6.71,1.56,-4.3,1784935583842.211
-0.903,-0.404,-0.117,10.86,0.58,-4.46,1784935583855.675
-0.902,-0.383,-0.1,9.74,1.1,-3.27,1784935583861.449
-0.882,-0.375,-0.084,8.76,2.11,-0.85,1784935583871.489
-0.847,-0.371,-0.103,7.2,2.38,0.52,1784935583881.582
-0.835,-0.347,-0.135,-2.17,1.8,2.14,1784935583891.788
-0.832,-0.31,-0.16,-18.43,1.53,3.14,1784935583905.195
-0.846,-0.316,-0.171,-35.4,2.59,3.36,1784935583911.268
-0.867,-0.34,-0.152,-51.12,4.39,4.0,1784935583921.1787
-0.881,-0.393,-0.098,-60.37,6.04,5.89,1784935583931.419
-0.879,-0.452,-0.03,-61.56,6.1,6.47,1784935583942.127
-0.874,-0.498,0.01,-53.56,5.74,5.92,1784935583955.159
-0.88,-0.519,0.013,-37.66,5.89,5.95,1784935583960.908
-0.893,-0.52,0.015,-15.38,5.77,5.46,1784935583971.266
-0.89,-0.512,-0.004,7.05,4.49,3.54,1784935583981.637
-0.879,-0.487,-0.059,23.04,3.88,1.13,1784935583992.0671
-0.88,-0.445,-0.114,29.21,4.73,-0.09,1784935584005.47
-0.878,-0.407,-0.137,29.45,5.4,-0.06,1784935584010.9202
-0.871,-0.403,-0.164,26.22,5.25,0.27,1784935584021.193
-0.869,-0.392,-0.179,18.89,5.71,0.12,1784935584031.788
-0.87,-0.382,-0.163,10.9,6.38,0.76,1784935584042.2358
-0.875,-0.402,-0.149,4.24,6.84,1.92,1784935584055.494
-0.883,-0.401,-0.123,-2.35,7.17,2.35,1784935584061.237
-0.884,-0.407,-0.1,-7.02,7.32,3.08,1784935584070.97
-0.878,-0.414,-0.072,-9.03,7.23,3.6,1784935584081.3271
-0.873,-0.43,-0.064,-8.7,6.2,4.36,1784935584091.9958
-0.876,-0.437,-0.054,-6.04,5.37,4.24,1784935584102.274
-0.881,-0.436,-0.048,-1.62,4.67,3.51,1784935584115.598
-0.885,-0.436,-0.051,3.63,4.06,2.66,1784935584121.289
-0.887,-0.427,-0.041,7.97,3.57,2.17,1784935584131.228
-0.881,-0.418,-0.048,11.23,3.11,1.86,1784935584141.686
-0.878,-0.403,-0.06,12.6,2.26,2.32,1784935584152.229
-0.88,-0.405,-0.069,12.3,1.71,3.6,1784935584165.4558
-0.883,-0.407,-0.071,10.16,1.1,3.88,1784935584171.9028
-0.884,-0.407,-0.079,6.38,0.24,3.85,1784935584181.286
-0.885,-0.401,-0.083,2.04,-0.46,3.97,1784935584191.644
-0.883,-0.405,-0.087,-1.65,-1.31,4.39,1784935584202.058
-0.883,-0.417,-0.093,-4.82,-2.14,4.36,1784935584215.564
-0.885,-0.422,-0.089,-7.35,-2.44,3.54,1784935584220.994
-0.889,-0.424,-0.083,-8.91,-3.05,2.78,1784935584231.313
-0.891,-0.422,-0.089,-9.92,-3.72,2.59,1784935584241.271
-0.893,-0.421,-0.089,-10.47,-3.94,2.59,1784935584251.801
-0.89,-0.422,-0.091,-10.77,-3.91,2.53,1784935584262.2988
-0.889,-0.425,-0.096,-10.5,-3.78,2.38,1784935584275.706
-0.889,-0.427,-0.093,-9.89,-3.88,2.29,1784935584280.905
-0.888,-0.428,-0.095,-9.06,-3.88,1.98,1784935584291.095
-0.891,-0.428,-0.096,-7.66,-3.81,1.56,1784935584301.562
-0.894,-0.428,-0.1,-5.37,-4.03,1.13,1784935584312.1082
-0.899,-0.425,-0.108,-3.66,-4.55,0.82,1784935584325.307
-0.896,-0.421,-0.119,-2.72,-4.85,0.46,1784935584331.025
-0.896,-0.412,-0.13,-2.96,-4.76,0.0,1784935584340.961
-0.894,-0.408,-0.134,-3.57,-4.73,-0.09,1784935584351.5762
-0.888,-0.399,-0.139,-4.58,-4.73,-0.37,1784935584361.5688
-0.885,-0.397,-0.149,-6.26,-4.79,-0.18,1784935584371.9639
-0.882,-0.397,-0.154,-8.91,-4.27,-0.24,1784935584385.395
-0.88,-0.393,-0.158,-12.54,-3.66,-0.55,1784935584391.1838
-0.877,-0.387,-0.152,-15.29,-2.93,-0.46,1784935584401.236
-0.872,-0.38,-0.153,-16.66,-2.38,0.24,1784935584411.646
-0.867,-0.375,-0.176,-17.03,-1.68,0.95,1784935584422.136
-0.866,-0.366,-0.193,-16.91,-0.06,1.74,1784935584435.341
-0.874,-0.355,-0.183,-16.72,1.83,2.84,1784935584441.355
-0.884,-0.352,-0.156,-16.51,3.39,4.36,1784935584451.4392
-0.895,-0.367,-0.126,-15.38,4.55,6.26,1784935584461.8672
-0.901,-0.392,-0.098,-13.15,5.4,7.9,1784935584472.2822
-0.909,-0.407,-0.065,-9.37,5.58,8.97,1784935584485.539
-0.919,-0.412,-0.047,-2.9,5.13,9.83,1784935584490.8801
-0.915,-0.421,-0.052,4.43,4.36,10.1,1784935584501.127
-0.91,-0.412,-0.065,9.8,3.69,8.36,1784935584511.7222
-0.911,-0.4,-0.082,12.42,2.96,6.47,1784935584522.1409
-0.908,-0.401,-0.098,12.05,2.26,4.88,1784935584535.448
-0.907,-0.4,-0.101,9.4,1.53,3.3,1784935584541.17
-0.907,-0.403,-0.107,6.38,0.98,2.14,1784935584551.1528
-0.907,-0.408,-0.109,3.3,0.49,1.74,1784935584561.6208
-0.907,-0.414,-0.111,0.18,-0.18,1.53,1784935584571.89
-0.906,-0.425,-0.114,-2.5,-0.73,1.37,1784935584582.292
-0.906,-0.434,-0.113,-4.82,-1.1,1.13,1784935584595.623
-0.905,-0.438,-0.118,-5.98,-1.53,1.37,1784935584601.284
-0.9,-0.435,-0.117,-5.98,-1.83,1.46,1784935584611.1191
-0.891,-0.427,-0.113,-5.31,-2.04,0.76,1784935584621.583
-0.888,-0.422,-0.11,-4.24,-2.11,-0.4,1784935584631.969
-0.891,-0.415,-0.108,-3.36,-2.08,-1.37,1784935584645.2969
-0.893,-0.415,-0.114,-2.47,-1.89,-1.83,1784935584651.395
-0.899,-0.412,-0.113,-2.38,-1.89,-2.17,1784935584660.9868
-0.907,-0.413,-0.108,-2.38,-1.68,-1.89,1784935584671.0989
-0.909,-0.421,-0.096,-2.35,-1.28,-1.28,1784935584681.48
-0.903,-0.43,-0.079,-2.53,-1.16,-1.28,1784935584692.09
-0.897,-0.445,-0.069,-2.32,-1.46,-0.76,1784935584705.265
-0.899,-0.45,-0.083,-1.71,-2.11,0.18,1784935584711.575
-0.893,-0.463,-0.099,-0.31,-2.04,0.89,1784935584720.9932
-0.887,-0.465,-0.092,0.79,-1.65,0.73,1784935584731.2053
-0.881,-0.46,-0.085,1.74,-1.8,0.21,1784935584741.813
-0.871,-0.453,-0.088,3.42,-2.2,-0.55,1784935584752.11
-0.874,-0.435,-0.103,5.58,-2.5,-1.77,1784935584765.422
-0.887,-0.42,-0.125,7.81,-2.5,-3.39,1784935584771.522
-0.905,-0.402,-0.132,8.42,-2.04,-5.07,1784935584781.065
-0.91,-0.384,-0.126,7.87,-1.4,-5.92,1784935584791.549
-0.905,-0.369,-0.121,7.48,-0.92,-5.07,1784935584801.791
-0.887,-0.373,-0.131,8.33,-0.24,-3.72,1784935584812.202
-0.861,-0.356,-0.135,8.85,0.0,-2.78,1784935584825.427
-0.836,-0.361,-0.14,9.77,-0.24,-1.01,1784935584831.6018
-0.819,-0.359,-0.136,10.13,-0.31,-0.46,1784935584841.2039
-0.848,-0.354,-0.13,10.56,-0.24,-0.64,1784935584851.4868
-0.897,-0.372,-0.116,11.02,1.28,-0.92,1784935584862.057
-0.897,-0.399,-0.106,11.87,3.08,-0.92,1784935584875.6091
-0.876,-0.409,-0.099,14.5,3.94,-0.43,1784935584881.3923
-0.89,-0.394,-0.097,17.98,3.66,0.06,1784935584891.66
-0.906,-0.376,-0.101,20.78,3.05,-0.55,1784935584901.829
-0.91,-0.363,-0.099,21.39,2.53,-2.01,1784935584912.0881
-0.914,-0.355,-0.101,20.02,2.2,-3.11,1784935584925.439
-0.922,-0.35,-0.107,17.49,1.71,-3.48,1784935584931.466
-0.928,-0.34,-0.116,14.56,0.95,-3.57,1784935584941.481
-0.93,-0.337,-0.128,11.84,0.58,-3.39,1784935584951.841
-0.926,-0.339,-0.121,8.45,0.7,-2.72,1784935584962.327
-0.923,-0.344,-0.103,5.58,0.85,-1.53,1784935584975.372
-0.928,-0.352,-0.093,4.49,0.76,0.06,1784935584980.9348
-0.928,-0.363,-0.081,5.07,0.95,1.71,1784935584991.209
-0.928,-0.372,-0.078,6.23,1.1,3.05,1784935585001.5947
-0.923,-0.381,-0.073,7.51,1.13,3.69,1784935585012.156
-0.919,-0.391,-0.068,8.79,0.85,3.66,1784935585025.198
-0.919,-0.391,-0.068,9.86,0.34,3.63,1784935585030.967
-0.916,-0.399,-0.071,10.1,-0.4,3.63,1784935585040.974
-0.91,-0.401,-0.087,9.52,-1.37,3.08,1784935585051.373
-0.903,-0.403,-0.103,7.54,-2.26,1.98,1784935585061.7622
-0.9,-0.402,-0.114,4.82,-2.44,1.31,1784935585072.216
-0.903,-0.393,-0.118,4.82,-2.44,1.31,1784935585085.427
-0.905,-0.394,-0.107,3.11,-2.14,1.37,1784935585090.734
-0.903,-0.395,-0.099,2.38,-1.89,1.62,1784935585100.8652
-0.896,-0.397,-0.105,2.93,-1.83,2.23,1784935585111.419
-0.887,-0.402,-0.11,3.88,-1.46,2.9,1784935585121.8591
-0.881,-0.407,-0.107,4.82,-0.85,3.23,1784935585132.204
-0.877,-0.408,-0.11,5.58,-0.61,3.39,1784935585145.416
-0.871,-0.402,-0.117,5.52,-0.4,3.02,1784935585150.8337
-0.867,-0.394,-0.128,4.27,-0.24,2.17,1784935585161.158
-0.87,-0.385,-0.137,1.34,-0.34,1.28,1784935585171.483
-0.879,-0.381,-0.14,-2.26,-0.37,0.89,1784935585181.923
-0.884,-0.378,-0.14,-6.26,-0.31,0.67,1784935585192.302
-0.883,-0.381,-0.14,-9.86,-0.27,0.67,1784935585205.5527
-0.883,-0.391,-0.142,-12.67,0.03,0.85,1784935585211.4902
-0.887,-0.397,-0.129,-14.56,0.76,0.92,1784935585221.267
-0.889,-0.408,-0.113,-14.47,1.46,1.16,1784935585231.929
-0.892,-0.41,-0.1,-12.67,1.98,1.07,1784935585242.43
-0.899,-0.414,-0.087,-9.43,2.62,1.22,1784935585255.596
-0.905,-0.418,-0.085,-5.4,3.3,1.28,1784935585261.3098
-0.907,-0.421,-0.088,-1.65,3.69,1.1,1784935585271.083
-0.907,-0.42,-0.09,1.07,3.91,0.67,1784935585281.389
-0.904,-0.413,-0.093,2.72,3.72,0.43,1784935585292.048
-0.904,-0.414,-0.1,3.3,3.42,0.58,1784935585305.3171
-0.9,-0.414,-0.1,2.47,3.08,0.15,1784935585312.1228
-0.896,-0.415,-0.097,1.22,2.69,-0.61,1784935585320.8042
-0.894,-0.413,-0.099,0.24,2.26,-1.22,1784935585331.229
-0.897,-0.414,-0.102,0.0,1.95,-1.59,1784935585341.852
-0.897,-0.408,-0.103,-0.24,1.86,-1.86,1784935585352.1018
-0.891,-0.407,-0.11,0.06,1.83,-1.31,1784935585365.258
-0.881,-0.403,-0.11,-0.18,1.71,-0.98,1784935585371.833
-0.875,-0.387,-0.105,-0.79,1.46,-0.55,1784935585381.0479
-0.871,-0.372,-0.103,-1.19,0.85,0.52,1784935585391.426
-0.857,-0.359,-0.125,-2.2,0.49,1.62,1784935585401.75
-0.849,-0.386,-0.176,-4.03,2.17,2.14,1784935585412.162
-0.859,-0.436,-0.188,-8.82,5.31,0.4,1784935585425.3792
-0.873,-0.459,-0.175,-14.34,7.6,-2.2,1784935585431.936
-0.882,-0.463,-0.162,-15.81,9.34,-3.02,1784935585441.2942
-0.887,-0.47,-0.151,-11.84,10.65,-2.59,1784935585451.716
-0.895,-0.476,-0.149,-4.52,11.29,-1.92,1784935585462.3252
-0.9,-0.467,-0.149,2.78,11.66,-1.07,1784935585475.703
-0.9,-0.444,-0.143,8.85,11.81,-0.24,1784935585481.119
-0.894,-0.423,-0.137,13.31,11.75,0.49,1784935585491.7
