ax,ay,az,gx,gy,gz,timestamp_ms
-0.343,-0.741,0.681,-19.14,-41.38,49.41,1784934951098.176
-0.346,-0.722,0.669,-20.33,-44.77,49.04,1784934951098.504
-0.342,-0.713,0.658,-20.91,-48.22,48.86,1784934951098.783
-0.334,-0.7,0.644,-19.75,-51.48,48.68,1784934951099.231
-0.328,-0.678,0.628,-17.73,-54.81,48.49,1784934951099.4968
-0.322,-0.657,0.612,-15.81,-57.62,48.68,1784934951099.773
-0.319,-0.638,0.604,-15.14,-59.79,49.38,1784934951100.053
-0.314,-0.63,0.601,-14.74,-61.77,50.39,1784934951100.3298
-0.306,-0.621,0.594,-13.92,-63.42,50.87,1784934951100.589
-0.302,-0.598,0.591,-13.61,-64.88,51.0,1784934951100.8552
-0.302,-0.575,0.583,-15.14,-66.32,52.43,1784934951101.122
-0.303,-0.577,0.595,-17.55,-67.48,53.59,1784934951101.37
-0.306,-0.586,0.598,-18.46,-68.67,53.1,1784934951101.629
-0.309,-0.578,0.59,-18.68,-69.83,52.34,1784934951101.8892
-0.303,-0.568,0.582,-18.65,-70.62,52.4,1784934951102.139
-0.296,-0.561,0.577,-18.74,-70.96,52.31,1784934951102.381
-0.296,-0.558,0.569,-19.9,-70.86,51.67,1784934951102.6252
-0.302,-0.559,0.571,-22.64,-70.28,51.33,1784934951102.8918
-0.303,-0.566,0.574,-24.32,-69.03,50.45,1784934951103.1392
-0.302,-0.586,0.589,-25.39,-67.48,50.87,1784934951103.3752
-0.306,-0.594,0.596,-25.51,-65.55,51.0,1784934951103.622
-0.305,-0.589,0.603,-26.52,-63.39,50.48,1784934951103.862
-0.314,-0.597,0.616,-28.23,-60.98,49.2,1784934951104.1018
-0.326,-0.627,0.636,-28.93,-57.47,49.26,1784934951104.342
-0.332,-0.671,0.661,-27.59,-53.68,50.23,1784934951104.59
-0.319,-0.686,0.685,-24.81,-50.05,49.84,1784934951104.8372
-0.355,-0.713,0.68,-21.3,-46.21,49.26,1784934951105.0771
-0.375,-0.749,0.662,-22.55,-42.09,47.82,1784934951105.319
-0.384,-0.737,0.675,-27.74,-38.06,47.24,1784934951105.567
-0.401,-0.738,0.69,-28.38,-34.27,48.52,1784934951105.8079
-0.419,-0.747,0.72,-26.06,-31.62,49.32,1784934951106.051
-0.429,-0.732,0.707,-23.59,-30.52,49.1,1784934951106.3008
-0.431,-0.719,0.678,-22.43,-29.76,49.93,1784934951106.545
-0.43,-0.734,0.633,-23.04,-29.51,51.0,1784934951106.7842
-0.43,-0.732,0.594,-24.11,-29.36,51.76,1784934951107.043
-0.429,-0.728,0.558,-23.87,-29.08,52.8,1784934951107.3
-0.426,-0.713,0.527,-23.65,-28.99,53.77,1784934951107.543
-0.419,-0.689,0.51,-23.1,-28.81,55.64,1784934951107.8123
-0.41,-0.668,0.495,-21.88,-28.87,58.38,1784934951108.052
-0.403,-0.654,0.477,-21.15,-29.42,61.13,1784934951108.302
-0.394,-0.642,0.467,-23.01,-30.0,63.26,1784934951108.5288
-0.386,-0.639,0.462,-26.03,-30.18,65.4,1784934951108.768
-0.388,-0.639,0.456,-28.93,-30.4,67.6,1784934951109.0032
-0.39,-0.646,0.451,-32.01,-30.24,70.19,1784934951109.24
-0.388,-0.65,0.451,-34.67,-29.54,72.6,1784934951109.47
-0.399,-0.666,0.452,-36.5,-28.17,74.01,1784934951109.707
-0.419,-0.674,0.455,-39.61,-26.15,74.71,1784934951109.944
-0.428,-0.678,0.477,-43.28,-23.32,75.35,1784934951110.1748
-0.433,-0.681,0.503,-46.48,-20.23,75.38,1784934951110.416
-0.445,-0.683,0.523,-49.59,-17.24,74.56,1784934951110.6482
-0.445,-0.683,0.523,-52.31,-14.5,72.97,1784934951110.882
-0.454,-0.69,0.542,-53.83,-11.57,71.14,1784934951111.1082
-0.461,-0.706,0.559,-54.29,-8.61,69.22,1784934951111.3347
-0.467,-0.728,0.578,-53.83,-6.23,66.62,1784934951111.5698
-0.475,-0.755,0.596,-53.83,-6.23,66.62,1784934951111.792
-0.49,-0.777,0.595,-52.86,-4.61,62.96,1784934951112.0142
-0.511,-0.797,0.579,-51.09,-3.27,58.9,1784934951112.229
-0.538,-0.816,0.557,-48.65,-2.17,54.72,1784934951112.4429
-0.562,-0.819,0.531,-47.12,-0.85,50.29,1784934951112.654
-0.571,-0.821,0.509,-45.56,0.95,45.93,1784934951112.8672
-0.57,-0.819,0.494,-44.37,2.84,40.8,1784934951113.083
-0.567,-0.811,0.498,-43.86,4.49,35.04,1784934951113.2942
-0.569,-0.801,0.505,-41.99,6.29,29.45,1784934951113.513
-0.575,-0.788,0.516,-37.48,8.27,24.87,1784934951113.7312
-0.58,-0.784,0.528,-32.32,10.16,20.78,1784934951113.952
-0.591,-0.776,0.538,-28.35,11.84,17.06,1784934951114.1682
-0.595,-0.77,0.549,-24.23,13.25,14.4,1784934951114.387
-0.604,-0.771,0.545,-18.62,14.1,11.32,1784934951114.6108
-0.615,-0.761,0.523,-12.39,14.71,8.76,1784934951114.827
-0.615,-0.743,0.495,-6.65,15.56,7.32,1784934951115.063
-0.618,-0.737,0.479,-2.75,16.17,5.58,1784934951115.283
-0.619,-0.735,0.47,-2.32,15.93,3.17,1784934951115.5168
-0.618,-0.73,0.471,-4.09,15.53,0.73,1784934951115.797
-0.61,-0.725,0.466,-5.95,14.28,-0.67,1784934951116.044
-0.603,-0.717,0.459,-6.96,12.88,-2.29,1784934951116.264
-0.593,-0.705,0.441,-7.42,11.66,-4.03,1784934951116.477
-0.578,-0.69,0.422,-7.69,10.59,-4.94,1784934951116.7148
-0.56,-0.68,0.412,-7.97,10.07,-5.77,1784934951117.012
-0.548,-0.67,0.398,-8.24,10.07,-6.99,1784934951117.2537
-0.536,-0.66,0.387,-8.21,10.22,-7.51,1784934951117.4631
-0.53,-0.657,0.372,-7.69,10.41,-7.87,1784934951117.681
-0.527,-0.659,0.358,-7.39,10.99,-8.67,1784934951117.899
-0.527,-0.667,0.346,-7.2,11.84,-10.19,1784934951118.13
-0.527,-0.664,0.341,-7.48,13.31,-12.21,1784934951118.349
-0.521,-0.664,0.337,-6.62,14.77,-14.04,1784934951118.572
-0.512,-0.661,0.328,-5.13,16.33,-16.39,1784934951118.7852
-0.512,-0.657,0.328,-3.45,18.01,-18.89,1784934951119.003
-0.496,-0.672,0.326,0.49,19.59,-20.72,1784934951119.224
-0.499,-0.65,0.316,3.91,21.18,-24.17,1784934951119.447
-0.497,-0.639,0.315,6.13,22.86,-25.45,1784934951119.6558
-0.485,-0.637,0.313,8.58,24.99,-26.43,1784934951119.863
-0.47,-0.624,0.303,11.87,27.28,-28.96,1784934951120.0728
-0.469,-0.605,0.295,14.71,29.6,-32.65,1784934951120.28
-0.478,-0.6,0.292,17.61,32.59,-35.19,1784934951120.4888
-0.481,-0.609,0.293,20.33,35.68,-35.98,1784934951120.706
-0.483,-0.615,0.297,23.07,38.94,-36.65,1784934951120.9412
-0.493,-0.612,0.295,26.06,42.42,-38.27,1784934951121.148
-0.509,-0.61,0.29,29.05,46.33,-39.64,1784934951121.3608
-0.529,-0.615,0.287,31.92,50.36,-40.38,1784934951121.574
-0.544,-0.627,0.289,34.85,54.08,-41.11,1784934951121.778
-0.556,-0.636,0.291,37.9,57.99,-42.42,1784934951121.989
-0.572,-0.646,0.283,41.2,61.71,-44.01,1784934951122.2039
-0.583,-0.676,0.271,44.71,65.61,-44.43,1784934951122.4202
-0.608,-0.699,0.281,48.92,69.43,-44.56,1784934951122.625
-0.595,-0.771,0.283,55.82,73.06,-43.31,1784934951122.841
-0.612,-0.817,0.267,60.7,75.38,-46.05,1784934951123.059
-0.649,-0.849,0.226,57.74,75.81,-47.98,1784934951123.2742
-0.645,-0.9,0.187,50.57,77.46,-48.13,1784934951123.498
-0.677,-0.929,0.123,38.94,78.77,-49.71,1784934951123.709
-0.699,-0.948,0.083,20.33,78.59,-48.59,1784934951123.9219
-0.682,-0.963,0.061,1.71,79.38,-46.42,1784934951124.122
-0.662,-0.955,0.025,-13.73,81.06,-47.12,1784934951124.3362
-0.673,-0.952,0.003,-27.41,84.14,-50.02,1784934951124.57
-0.704,-0.948,-0.02,-41.69,87.92,-51.67,1784934951124.775
-0.705,-0.882,0.0,-60.82,91.25,-51.91,1784934951124.9841
-0.705,-0.814,0.039,-74.43,94.3,-53.25,1784934951125.192
-0.702,-0.797,0.084,-78.34,98.54,-52.95,1784934951125.3992
-0.695,-0.782,0.126,-76.24,102.3,-51.27,1784934951125.6052
-0.673,-0.734,0.171,-70.41,105.08,-48.43,1784934951125.8088
-0.649,-0.677,0.208,-59.85,108.34,-42.82,1784934951126.014
-0.62,-0.638,0.239,-44.37,111.91,-35.55,1784934951126.215
-0.591,-0.618,0.252,-25.36,114.57,-28.96,1784934951126.418
-0.561,-0.589,0.245,-5.65,116.98,-23.5,1784934951126.6228
-0.533,-0.552,0.242,12.85,119.54,-19.38,1784934951126.83
-0.513,-0.507,0.25,28.63,122.2,-16.27,1784934951127.033
-0.498,-0.48,0.253,42.24,124.97,-13.49,1784934951127.237
-0.487,-0.459,0.253,52.95,127.96,-10.71,1784934951127.44
-0.484,-0.449,0.244,61.16,130.86,-7.81,1784934951127.647
-0.489,-0.437,0.243,65.71,133.46,-4.43,1784934951127.883
-0.488,-0.436,0.234,68.94,135.84,-0.24,1784934951128.126
-0.49,-0.443,0.231,71.6,138.1,3.33,1784934951128.4038
-0.504,-0.455,0.239,71.81,140.11,5.4,1784934951128.638
-0.527,-0.489,0.231,68.94,141.85,7.05,1784934951128.845
-0.566,-0.515,0.223,62.96,144.2,8.94,1784934951129.048
-0.61,-0.533,0.239,57.16,147.28,13.4,1784934951129.255
-0.631,-0.557,0.261,54.54,149.48,19.29,1784934951129.466
-0.643,-0.562,0.276,53.9,150.88,24.14,1784934951129.67
-0.657,-0.544,0.298,54.11,152.13,29.48,1784934951129.882
-0.665,-0.55,0.334,57.01,153.39,37.72,1784934951130.086
-0.66,-0.579,0.373,61.37,153.75,46.66,1784934951130.298
-0.664,-0.604,0.404,66.07,153.87,54.17,1784934951130.501
-0.689,-0.636,0.433,70.53,153.42,61.34,1784934951130.7058
-0.729,-0.684,0.443,74.62,152.01,68.12,1784934951130.9067
-0.77,-0.727,0.423,76.3,150.12,74.07,1784934951131.1108
-0.816,-0.757,0.382,75.56,148.23,78.74,1784934951131.316
-0.854,-0.781,0.366,74.62,145.45,81.91,1784934951131.522
-0.879,-0.805,0.357,74.65,141.18,83.04,1784934951131.723
-0.886,-0.819,0.375,75.72,136.08,82.52,1784934951131.9321
-0.886,-0.825,0.392,78.62,130.16,81.48,1784934951132.148
-0.877,-0.813,0.411,83.04,123.57,80.26,1784934951132.3508
-0.869,-0.792,0.422,89.27,116.03,78.31,1784934951132.5571
-0.864,-0.773,0.414,95.13,107.55,76.27,1784934951132.76
-0.853,-0.764,0.386,98.15,98.82,73.85,1784934951132.964
-0.836,-0.764,0.349,97.63,90.15,71.5,1784934951133.159
-0.826,-0.777,0.322,93.94,82.34,69.92,1784934951133.364
-0.781,-0.799,0.276,89.14,75.62,67.17,1784934951133.568
-0.794,-0.775,0.264,82.8,70.93,62.11,1784934951133.7651
-0.795,-0.803,0.264,79.84,65.68,61.01,1784934951133.961
-0.789,-0.839,0.257,79.29,62.14,59.11,1784934951134.1638
-0.785,-0.827,0.238,80.14,59.27,55.33,1784934951134.3691
-0.772,-0.809,0.22,81.88,57.41,52.16,1784934951134.5798
-0.748,-0.803,0.207,82.86,56.46,49.35,1784934951134.7817
-0.735,-0.789,0.206,82.28,56.28,46.45,1784934951134.983
-0.721,-0.768,0.213,82.52,57.1,45.23,1784934951135.1838
-0.705,-0.75,0.221,84.96,58.66,45.11,1784934951135.391
-0.7,-0.724,0.228,87.68,60.18,45.23,1784934951135.596
-0.696,-0.706,0.221,89.45,61.37,45.01,1784934951135.793
-0.692,-0.69,0.221,88.38,62.17,43.92,1784934951135.987
-0.76,-0.642,0.224,76.88,63.14,42.97,1784934951136.568
-0.781,-0.638,0.218,76.51,63.2,43.74112,1784934951136.925
-0.855,-0.483,-0.074,-0.37,0.64,0.15,1784934951137.1147
-0.854,-0.482,-0.072,-0.21,0.73,0.43,1784934951137.389
-0.852,-0.485,-0.072,0.15,0.82,0.58,1784934951144.602
-0.852,-0.484,-0.072,0.52,0.79,0.64,1784934951149.986
-0.848,-0.48,-0.074,0.67,0.7,0.79,1784934951160.264
-0.847,-0.479,-0.073,0.7,0.76,0.85,1784934951170.6638
-0.85,-0.48,-0.072,0.73,0.76,0.98,1784934951181.048
-0.853,-0.481,-0.07,0.58,0.76,1.16,1784934951194.271
-0.856,-0.48,-0.068,0.31,0.92,1.43,1784934951199.694
-0.857,-0.482,-0.069,-0.15,0.98,1.71,1784934951210.05
-0.857,-0.484,-0.069,-0.31,0.98,1.98,1784934951220.35
-0.858,-0.487,-0.069,-0.52,0.98,2.23,1784934951230.741
-0.859,-0.491,-0.066,-0.7,0.98,2.35,1784934951241.1157
-0.855,-0.496,-0.061,-0.52,0.85,2.41,1784934951254.365
-0.855,-0.498,-0.063,-0.34,0.67,2.26,1784934951259.892
-0.855,-0.499,-0.063,-0.24,0.46,1.92,1784934951270.067
-0.855,-0.5,-0.063,-0.15,0.21,1.65,1784934951280.458
-0.855,-0.502,-0.065,-0.31,-0.09,1.16,1784934951290.911
-0.854,-0.503,-0.065,-0.27,-0.24,0.55,1784934951301.2568
-0.857,-0.501,-0.066,-0.27,-0.4,0.12,1784934951314.549
-0.856,-0.503,-0.069,-0.18,-0.43,-0.37,1784934951320.0151
-0.854,-0.503,-0.071,-0.09,-0.55,-0.82,1784934951330.379
-0.853,-0.504,-0.071,-0.09,-0.55,-1.25,1784934951340.595
-0.85,-0.501,-0.069,0.21,-0.55,-1.68,1784934951351.0498
-0.848,-0.499,-0.07,0.92,-0.67,-1.83,1784934951361.607
-0.849,-0.495,-0.072,1.43,-0.61,-1.92,1784934951374.8801
-0.845,-0.492,-0.072,1.62,-0.58,-2.08,1784934951380.547
-0.844,-0.487,-0.073,1.5,-0.73,-2.04,1784934951390.466
-0.842,-0.481,-0.072,1.04,-0.79,-2.04,1784934951400.859
-0.841,-0.476,-0.073,0.37,-0.82,-1.8,1784934951411.274
-0.844,-0.471,-0.072,-0.46,-1.07,-1.5,1784934951421.6057
-0.846,-0.471,-0.072,-1.68,-1.25,-1.37,1784934951434.9922
-0.847,-0.468,-0.072,-3.02,-1.43,-1.13,1784934951440.648
-0.848,-0.464,-0.069,-4.3,-1.65,-0.67,1784934951450.583
-0.848,-0.463,-0.067,-5.71,-1.92,0.06,1784934951461.054
-0.847,-0.459,-0.067,-7.84,-2.17,0.61,1784934951471.373
-0.85,-0.457,-0.069,-10.83,-2.53,1.34,1784934951484.628
-0.85,-0.452,-0.067,-14.44,-2.72,2.32,1784934951490.477
-0.852,-0.455,-0.067,-18.04,-2.69,3.42,1784934951500.499
-0.855,-0.458,-0.065,-21.94,-2.78,4.39,1784934951510.9792
-0.857,-0.458,-0.056,-25.97,-3.39,5.19,1784934951521.5093
-0.859,-0.45,-0.034,-30.61,-4.64,6.29,1784934951534.7058
-0.86,-0.42,-0.008,-35.74,-7.11,8.12,1784934951540.6348
-0.85,-0.403,-0.014,-41.29,-10.38,10.53,1784934951550.815
-0.866,-0.363,0.015,-52.4,-14.4,12.82,1784934951561.492
-0.878,-0.246,0.031,-76.69,-20.87,16.82,1784934951574.7112
-0.843,-0.15,-0.009,-115.54,-25.76,24.29,1784934951580.9421
-0.812,-0.1,-0.156,-172.19,-27.8,31.37,1784934951591.404
-0.726,-0.198,-0.297,-230.99,-19.65,30.58,1784934951604.657
-0.743,-0.408,-0.375,-271.1,-6.23,18.01,1784934951610.6328
-0.821,-0.578,-0.382,-289.56,4.3,6.5,1784934951620.904
-0.872,-0.739,-0.366,-279.34,11.93,2.69,1784934951631.9011
-0.874,-0.853,-0.295,-247.69,14.04,3.42,1784934951644.959
-0.861,-0.829,-0.243,-203.01,9.61,1.92,1784934951651.108
-0.841,-0.731,-0.217,-156.25,1.8,1.77,1784934951661.22
-0.823,-0.645,-0.268,-113.68,-4.27,1.1,1784934951674.518
-0.823,-0.601,-0.332,-84.11,-7.93,-2.47,1784934951680.4668
-0.829,-0.542,-0.373,-73.55,-9.13,-6.41,1784934951690.478
-0.818,-0.486,-0.364,-79.2,-7.11,-6.23,1784934951700.8152
-0.809,-0.42,-0.377,-90.06,-4.91,-6.47,1784934951711.409
-0.821,-0.408,-0.405,-108.16,-3.3,-4.52,1784934951724.66
-0.811,-0.446,-0.456,-123.26,-1.43,-4.67,1784934951730.678
-0.812,-0.455,-0.597,-135.26,-0.37,-5.83,1784934951740.8562
-0.821,-0.523,-0.668,-146.95,4.73,-1.62,1784934951751.477
-0.824,-0.589,-0.699,-145.63,7.9,-3.39,1784934951764.8562
-0.849,-0.665,-0.743,-144.72,11.93,-3.81,1784934951770.753
-0.873,-0.769,-0.718,-140.93,17.3,-5.62,1784934951781.183
-0.873,-0.783,-0.691,-128.51,20.6,-12.12,1784934951794.2651
-0.869,-0.769,-0.68,-115.82,25.24,-13.61,1784934951800.4202
-0.872,-0.752,-0.642,-104.34,29.02,-13.95,1784934951811.038
-0.862,-0.724,-0.668,-90.09,31.62,-19.04,1784934951821.687
-0.86,-0.762,-0.715,-81.39,36.99,-23.74,1784934951835.004
-0.848,-0.775,-0.736,-72.66,42.66,-30.27,1784934951840.9211
-0.86,-0.761,-0.756,-61.25,48.8,-35.83,1784934951851.428
-0.881,-0.779,-0.751,-51.97,55.79,-39.12,1784934951864.691
-0.885,-0.773,-0.768,-38.82,59.51,-48.37,1784934951870.6602
-0.888,-0.761,-0.77,-28.26,63.63,-55.64,1784934951881.252
-0.897,-0.735,-0.763,-18.68,68.54,-60.43,1784934951891.722
-0.911,-0.69,-0.753,-11.29,72.45,-65.83,1784934951904.9458
-0.913,-0.637,-0.751,-7.32,75.41,-70.1,1784934951910.924
-0.91,-0.619,-0.757,-6.9,78.77,-72.88,1784934951921.203
-0.915,-0.616,-0.751,-9.25,82.61,-75.56,1784934951934.5842
-0.927,-0.616,-0.742,-10.44,86.49,-78.16,1784934951940.4988
-0.935,-0.613,-0.728,-10.35,89.66,-80.14,1784934951950.872
-0.934,-0.608,-0.712,-9.55,91.83,-81.27,1784934951961.377
-0.934,-0.617,-0.718,-8.0,93.39,-82.22,1784934951974.669
-0.948,-0.613,-0.711,-6.78,94.88,-82.98,1784934951980.6873
-0.949,-0.592,-0.706,-5.52,95.58,-83.29,1784934951990.832
-0.936,-0.568,-0.715,-4.55,95.92,-82.71,1784934952001.416
-0.921,-0.563,-0.736,-5.8,96.44,-81.97,1784934952014.7
-0.912,-0.577,-0.756,-7.63,98.12,-81.58,1784934952020.6343
-0.907,-0.584,-0.769,-8.33,100.19,-81.82,1784934952031.036
-0.921,-0.6,-0.765,-9.06,101.99,-82.4,1784934952041.589
-0.921,-0.6,-0.765,-10.07,103.43,-83.77,1784934952054.851
-0.935,-0.613,-0.735,-9.25,103.95,-85.39,1784934952060.8699
-0.926,-0.612,-0.711,-7.2,104.13,-87.25,1784934952071.451
-0.917,-0.614,-0.696,-5.28,104.77,-90.06,1784934952084.586
-0.952,-0.61,-0.665,-5.28,104.77,-90.06,1784934952090.4429
-0.978,-0.569,-0.619,-3.63,103.92,-92.93,1784934952101.159
-0.926,-0.532,-0.633,-2.5,100.77,-94.21,1784934952111.716
-0.879,-0.518,-0.68,-6.93,97.93,-95.92,1784934952124.9468
-0.849,-0.513,-0.718,-16.63,96.41,-99.22,1784934952130.988
-0.801,-0.511,-0.755,-27.22,96.68,-102.42,1784934952141.4211
-0.774,-0.505,-0.757,-37.05,98.85,-104.8,1784934952154.6628
-0.764,-0.486,-0.738,-45.56,101.84,-106.42,1784934952160.722
-0.746,-0.481,-0.67,-50.72,105.26,-106.3,1784934952171.61
-0.714,-0.481,-0.592,-51.48,106.45,-104.34,1784934952184.8489
-0.671,-0.461,-0.518,-47.33,105.32,-100.8,1784934952190.884
-0.621,-0.428,-0.492,-38.3,101.81,-95.74,1784934952201.699
-0.573,-0.393,-0.442,-31.68,98.85,-85.7,1784934952214.953
-0.513,-0.353,-0.457,-15.11,90.95,-79.47,1784934952220.948
-0.468,-0.27,-0.502,-1.46,83.71,-73.61,1784934952231.395
-0.432,-0.219,-0.524,7.02,80.08,-61.4,1784934952245.123
-0.401,-0.195,-0.538,13.82,76.82,-48.62,1784934952250.636
-0.366,-0.207,-0.53,17.43,74.37,-37.08,1784934952260.946
-0.329,-0.274,-0.526,18.28,71.75,-28.38,1784934952271.362
-0.311,-0.341,-0.496,18.13,69.46,-23.32,1784934952284.729
-0.294,-0.37,-0.445,19.78,66.68,-20.66,1784934952290.9397
-0.269,-0.37,-0.42,22.92,62.07,-20.02,1784934952301.3289
-0.251,-0.355,-0.425,24.63,56.52,-20.45,1784934952314.631
-0.238,-0.348,-0.481,22.19,50.81,-21.91,1784934952320.675
-0.228,-0.322,-0.518,14.98,47.33,-23.44,1784934952331.166
-0.219,-0.293,-0.527,6.01,45.78,-24.35,1784934952341.541
-0.216,-0.295,-0.479,-3.91,45.29,-25.12,1784934952354.766
-0.215,-0.359,-0.384,-13.86,43.34,-26.52,1784934952360.8608
-0.201,-0.444,-0.33,-20.84,38.36,-29.45,1784934952370.9768
-0.198,-0.462,-0.285,-19.96,33.54,-33.45,1784934952384.532
-0.222,-0.396,-0.257,-11.75,28.66,-37.45,1784934952390.41
-0.245,-0.296,-0.275,-1.5,22.61,-37.11,1784934952400.772
-0.273,-0.196,-0.278,7.84,17.58,-31.56,1784934952411.19
-0.279,-0.15,-0.271,12.02,15.32,-20.84,1784934952424.411
-0.298,-0.212,-0.194,19.04,10.62,-10.28,1784934952430.3948
-0.287,-0.277,-0.265,32.78,0.09,-4.43,1784934952440.8389
-0.217,-0.418,-0.313,39.25,-4.94,4.3,1784934952451.3652
-0.137,-0.522,-0.405,48.77,-9.58,7.2,1784934952464.6667
-0.122,-0.511,-0.572,59.02,-13.31,3.78,1784934952470.6292
-0.149,-0.449,-0.7,60.12,-12.94,-0.76,1784934952480.874
-0.165,-0.418,-0.766,49.81,-10.38,-4.18,1784934952491.278
-0.165,-0.414,-0.808,32.2,-8.64,-6.04,1784934952501.698
-0.179,-0.441,-0.835,12.48,-6.84,-8.06,1784934952515.073
-0.194,-0.48,-0.829,-4.33,-5.31,-9.09,1784934952520.802
-0.186,-0.522,-0.817,-15.47,-4.36,-9.34,1784934952531.0789
-0.191,-0.63,-0.809,-21.21,-2.47,-10.74,1784934952541.3608
-0.203,-0.783,-0.765,-21.91,0.73,-15.41,1784934952554.605
-0.197,-0.92,-0.772,-14.16,3.02,-25.06,1784934952560.5781
-0.159,-0.928,-0.761,1.37,6.53,-39.12,1784934952570.73
-0.15,-0.803,-0.841,19.07,9.13,-52.34,1784934952581.519
-0.213,-0.731,-0.924,30.4,14.22,-61.13,1784934952594.626
-0.251,-0.754,-0.881,30.34,21.91,-66.96,1784934952600.758
-0.256,-0.807,-0.835,27.59,27.41,-72.63,1784934952611.0598
-0.28,-0.835,-0.82,27.95,33.42,-80.23,1784934952621.703
-0.299,-0.844,-0.737,29.15,40.74,-88.29,1784934952635.0022
-0.311,-0.85,-0.709,28.44,45.11,-98.39,1784934952641.0188
-0.318,-0.823,-0.718,28.23,49.65,-110.66,1784934952651.5388
-0.279,-0.719,-0.723,29.51,54.38,-121.04,1784934952664.986
-0.248,-0.584,-0.757,29.45,55.33,-127.75,1784934952670.8337
-0.205,-0.559,-0.807,24.45,55.6,-131.38,1784934952681.534
-0.194,-0.638,-0.818,13.7,55.94,-133.79,1784934952694.6729
-0.206,-0.78,-0.759,6.9,58.11,-135.59,1784934952700.7493
-0.193,-0.888,-0.675,10.04,59.54,-138.62,1784934952711.264
-0.186,-0.914,-0.656,22.22,58.9,-142.7,1784934952724.599
-0.177,-0.825,-0.673,36.87,58.41,-145.51,1784934952730.6292
-0.067,-0.683,-0.634,48.52,55.6,-144.14,1784934952741.276
0.052,-0.586,-0.635,53.96,49.23,-140.84,1784934952754.491
0.098,-0.495,-0.636,51.91,43.86,-134.62,1784934952760.554
0.17,-0.368,-0.642,44.19,38.09,-124.79,1784934952771.246
0.202,-0.323,-0.645,34.61,33.36,-113.16,1784934952784.322
0.194,-0.427,-0.575,25.27,30.98,-101.84,1784934952789.966
0.215,-0.468,-0.521,19.65,27.22,-94.21,1784934952801.1611
0.245,-0.49,-0.525,19.17,20.72,-85.36,1784934952811.614
0.273,-0.528,-0.535,21.33,15.53,-75.2,1784934952824.701
0.383,-0.525,-0.572,18.46,8.85,-69.12,1784934952830.843
0.436,-0.527,-0.665,15.08,4.58,-66.41,1784934952841.273
0.403,-0.499,-0.718,8.45,3.57,-61.37,1784934952851.698
0.397,-0.524,-0.714,-0.03,3.3,-52.58,1784934952865.053
0.429,-0.538,-0.673,-8.3,2.32,-44.34,1784934952871.007
0.422,-0.542,-0.692,-8.79,-0.06,-38.21,1784934952881.171
0.412,-0.548,-0.701,-6.56,-1.71,-32.9,1784934952891.3237
0.44,-0.551,-0.744,-6.1,-4.24,-28.72,1784934952904.593
0.444,-0.566,-0.78,-7.32,-4.91,-25.27,1784934952910.5972
0.449,-0.568,-0.774,-8.03,-4.24,-20.39,1784934952920.595
0.464,-0.595,-0.794,-5.65,-4.61,-14.16,1784934952931.185
0.456,-0.64,-0.793,-4.09,-3.94,-8.45,1784934952941.3928
0.465,-0.662,-0.753,-2.93,-2.47,-3.45,1784934952954.603
0.476,-0.691,-0.698,1.65,-1.53,1.86,1784934952960.36
0.48,-0.671,-0.661,6.65,-1.37,7.35,1784934952970.3958
0.467,-0.642,-0.665,10.74,-1.89,12.82,1784934952980.958
0.439,-0.647,-0.648,12.15,-1.83,19.32,1784934952991.4507
0.43,-0.647,-0.608,11.47,-3.63,24.96,1784934953004.686
0.418,-0.647,-0.598,12.82,-7.6,30.79,1784934953010.699
0.382,-0.644,-0.574,14.47,-11.9,36.38,1784934953021.0078
0.367,-0.649,-0.528,15.47,-17.24,42.18,1784934953031.662
0.376,-0.635,-0.53,17.85,-23.71,49.75,1784934953044.9001
0.413,-0.585,-0.533,20.11,-29.54,58.44,1784934953050.896
0.461,-0.53,-0.55,20.45,-35.16,66.23,1784934953061.377
0.485,-0.556,-0.614,19.47,-39.37,72.51,1784934953074.547
0.533,-0.576,-0.614,17.67,-41.63,75.14,1784934953080.727
0.638,-0.548,-0.608,18.74,-44.43,76.14,1784934953091.062
0.694,-0.542,-0.593,20.48,-46.17,76.39,1784934953102.113
0.744,-0.583,-0.536,22.83,-48.52,75.38,1784934953114.908
0.814,-0.582,-0.537,30.37,-53.16,73.0,1784934953120.918
0.832,-0.54,-0.589,40.99,-56.28,69.86,1784934953131.408
0.859,-0.486,-0.637,47.55,-57.01,66.62,1784934953144.623
0.885,-0.433,-0.666,49.29,-55.67,63.6,1784934953150.635
0.887,-0.355,-0.706,47.33,-53.83,60.15,1784934953161.23
0.902,-0.274,-0.766,41.72,-50.42,57.44,1784934953171.758
0.904,-0.251,-0.799,30.4,-44.37,56.06,1784934953184.9612
0.871,-0.33,-0.812,15.29,-37.66,54.41,1784934953190.982
0.809,-0.464,-0.802,2.56,-30.27,51.58,1784934953201.3618
0.704,-0.618,-0.772,-2.9,-22.61,49.59,1784934953214.638
0.569,-0.827,-0.778,-2.9,-15.99,46.66,1784934953220.556
0.432,-1.037,-0.8,0.64,-9.92,39.86,1784934953230.7148
0.32,-1.158,-0.823,7.9,-4.43,31.77,1784934953241.211
0.257,-1.146,-0.814,14.74,-0.03,23.74,1784934953251.736
0.211,-1.065,-0.781,18.1,3.72,15.17,1784934953265.419
0.141,-0.964,-0.734,14.92,6.01,6.53,1784934953270.585
0.069,-0.89,-0.679,8.85,5.89,1.68,1784934953280.938
0.034,-0.841,-0.625,5.16,4.09,0.95,1784934953291.3762
0.01,-0.766,-0.584,2.66,1.13,-0.21,1784934953301.6682
-0.016,-0.714,-0.538,-0.85,-2.38,0.03,1784934953314.982
-0.03,-0.71,-0.489,-4.12,-6.87,3.17,1784934953320.618
-0.036,-0.742,-0.455,-2.62,-10.99,7.42,1784934953330.804
-0.036,-0.742,-0.455,4.55,-14.47,11.41,1784934953341.333
-0.039,-0.771,-0.442,14.95,-17.49,14.86,1784934953354.2322
-0.046,-0.773,-0.45,26.67,-20.05,17.79,1784934953360.5251
-0.053,-0.756,-0.462,36.96,-22.03,21.33,1784934953370.973
-0.058,-0.739,-0.472,36.96,-22.03,21.33,1784934953381.6377
-0.049,-0.722,-0.462,45.01,-24.26,25.24,1784934953394.842
-0.035,-0.708,-0.431,54.66,-27.8,29.42,1784934953400.9001
-0.026,-0.692,-0.424,65.89,-32.11,33.81,1784934953411.378
-0.014,-0.665,-0.432,76.97,-36.96,38.97,1784934953425.153
-0.003,-0.628,-0.475,86.09,-41.93,43.98,1784934953430.892
0.013,-0.565,-0.544,88.75,-45.35,48.13,1784934953440.997
0.032,-0.502,-0.6,85.88,-45.56,53.25,1784934953451.4739
0.061,-0.472,-0.599,79.29,-44.68,60.55,1784934953465.0923
0.098,-0.498,-0.522,73.98,-42.91,67.81,1784934953470.918
0.124,-0.593,-0.405,76.94,-41.63,74.43,1784934953481.4248
0.13,-0.704,-0.331,88.17,-43.64,78.4,1784934953494.588
0.112,-0.781,-0.313,100.1,-48.16,79.13,1784934953500.695
0.082,-0.768,-0.403,105.53,-52.95,77.73,1784934953511.2979
0.041,-0.71,-0.483,103.73,-52.46,76.14,1784934953524.538
0.015,-0.701,-0.483,98.39,-46.97,80.39,1784934953530.5337
0.006,-0.737,-0.413,97.69,-41.35,87.74,1784934953541.037
0.018,-0.809,-0.305,105.87,-37.9,93.81,1784934953551.7449
0.033,-0.911,-0.225,123.75,-36.81,99.12,1784934953565.0898
0.029,-0.97,-0.197,146.89,-38.18,102.57,1784934953571.111
0.0,-0.965,-0.335,163.73,-39.58,102.05,1784934953592.296
-0.04,-0.843,-0.484,148.72,-36.47,99.58,1784934953592.9558
-0.078,-0.752,-0.57,106.85,-29.39,102.02,1784934953600.826
-0.107,-0.724,-0.563,56.06,-20.39,106.14,1784934953614.083
-0.124,-0.759,-0.483,10.47,-13.12,108.52,1784934953619.9492
-0.118,-0.827,-0.348,-18.98,-8.88,108.46,1784934953630.728
-0.104,-0.895,-0.265,-30.03,-7.63,107.46,1784934953641.608
-0.115,-0.939,-0.244,-29.73,-6.78,104.92,1784934953654.999
-0.15,-0.979,-0.261,-24.2,-6.32,101.29,1784934953661.0059
-0.201,-1.074,-0.287,-19.29,-6.32,97.32,1784934953671.3718
-0.275,-1.135,-0.26,-20.14,-5.65,91.62,1784934953684.631
-0.33,-1.068,-0.194,-20.81,-6.1,90.18,1784934953690.602
-0.348,-1.029,-0.179,-7.08,-7.08,94.18,1784934953700.732
-0.353,-1.043,-0.17,15.05,-8.3,95.83,1784934953711.268
-0.372,-1.03,-0.175,37.14,-10.47,95.8,1784934953724.4922
-0.385,-1.001,-0.19,57.34,-11.14,95.92,1784934953730.753
-0.398,-0.977,-0.217,74.62,-10.65,95.52,1784934953740.9612
-0.413,-0.969,-0.228,88.96,-9.34,95.61,1784934953751.489
-0.444,-0.989,-0.232,100.8,-8.82,96.71,1784934953764.833
-0.476,-0.955,-0.24,105.14,-8.45,97.38,1784934953770.888
-0.513,-0.855,-0.264,102.48,-7.97,99.25,1784934953781.4348
-0.553,-0.814,-0.285,97.14,-6.07,102.88,1784934953794.4907
-0.592,-0.81,-0.263,85.09,-4.76,103.49,1784934953800.5261
-0.613,-0.856,-0.24,71.17,-3.36,101.93,1784934953810.963
-0.625,-0.929,-0.213,59.11,-0.89,98.48,1784934953821.4998
-0.648,-0.994,-0.18,51.52,1.28,94.12,1784934953834.77
-0.659,-1.044,-0.143,52.67,3.11,90.58,1784934953840.4338
-0.68,-1.048,-0.116,63.81,4.39,87.83,1784934953850.838
-0.708,-1.014,-0.12,81.7,5.8,87.8,1784934953861.328
-0.725,-0.953,-0.154,97.66,8.55,89.85,1784934953874.748
-0.747,-0.812,-0.17,101.9,11.72,91.43,1784934953880.8599
-0.749,-0.725,-0.151,99.92,13.82,94.24,1784934953891.191
-0.762,-0.706,-0.098,92.32,14.4,99.43,1784934953904.4211
-0.702,-0.702,-0.069,79.35,14.37,101.2,1784934953910.441
-0.734,-0.692,-0.044,68.09,15.56,95.34,1784934953921.011
-0.759,-0.769,-0.076,58.78,15.47,92.59,1784934953931.724
-0.749,-0.816,-0.073,47.55,16.82,88.84,1784934953944.876
-0.735,-0.819,-0.054,43.79,17.73,86.31,1784934953951.0012
-0.734,-0.796,-0.053,49.32,18.59,85.09,1784934953961.3728
-0.723,-0.771,-0.061,58.41,19.96,84.72,1784934953974.58
-0.708,-0.742,-0.068,65.16,22.0,83.9,1784934953980.632
-0.694,-0.709,-0.059,69.15,24.38,82.61,1784934953991.0269
-0.681,-0.673,-0.041,72.33,26.25,80.97,1784934954001.699
-0.676,-0.621,-0.033,72.82,27.59,79.53,1784934954014.9429
-0.675,-0.571,-0.022,70.31,28.75,78.59,1784934954021.006
-0.677,-0.548,-0.032,66.32,29.39,77.03,1784934954031.436
-0.701,-0.532,-0.05,59.63,30.64,74.43,1784934954044.689
-0.754,-0.515,-0.043,50.17,31.83,71.78,1784934954050.646
-0.811,-0.514,-0.015,40.65,32.44,70.1,1784934954061.117
-0.855,-0.525,-0.003,32.47,32.5,69.52,1784934954071.7283
-0.896,-0.518,0.005,25.51,32.07,69.61,1784934954084.9468
-0.933,-0.495,0.009,18.89,30.15,71.02,1784934954091.006
-0.948,-0.485,-0.025,11.87,28.2,73.61,1784934954101.4258
-0.965,-0.515,-0.052,4.7,27.59,75.38,1784934954114.732
-0.992,-0.56,-0.009,-1.59,27.83,75.05,1784934954120.653
-1.018,-0.589,0.028,-3.69,26.86,74.25,1784934954130.871
-1.044,-0.614,0.023,1.53,25.36,73.49,1784934954141.439
-1.063,-0.649,0.022,11.81,24.81,71.23,1784934954154.732
-1.074,-0.647,0.051,20.97,23.65,67.69,1784934954160.697
-1.058,-0.642,0.058,28.47,21.0,63.97,1784934954171.15
-1.046,-0.65,0.054,34.91,18.31,58.47,1784934954184.417
-1.02,-0.674,0.039,40.07,14.92,51.88,1784934954190.3801
-0.993,-0.667,0.021,42.97,11.57,43.79,1784934954200.864
-0.973,-0.648,-0.014,45.53,7.69,36.56,1784934954211.38
-0.95,-0.608,-0.061,45.29,4.09,30.15,1784934954224.6257
-0.921,-0.553,-0.109,39.09,0.55,24.69,1784934954230.658
-0.895,-0.509,-0.142,27.5,-2.41,21.3,1784934954240.8489
-0.874,-0.483,-0.145,12.91,-3.66,19.53,1784934954251.357
-0.859,-0.492,-0.132,-2.35,-3.2,18.56,1784934954264.95
-0.853,-0.532,-0.09,-15.17,-2.23,17.88,1784934954270.221
-0.852,-0.573,-0.047,-22.98,-1.8,16.97,1784934954280.785
-0.848,-0.595,-0.015,-23.71,-1.22,15.75,1784934954291.489
-0.842,-0.625,0.001,-17.79,-0.98,13.34,1784934954304.607
-0.839,-0.631,0.005,-9.4,-0.95,9.4,1784934954310.44
-0.845,-0.611,0.008,0.27,-1.22,5.46,1784934954320.389
-0.855,-0.6,-0.013,9.49,-1.65,1.71,1784934954330.969
-0.87,-0.588,-0.038,14.86,-2.44,-2.32,1784934954341.335
-0.882,-0.58,-0.051,16.24,-2.9,-6.29,1784934954351.7383
-0.887,-0.578,-0.033,15.53,-3.17,-10.07,1784934954365.1
-0.886,-0.587,-0.006,16.14,-4.09,-13.4,1784934954371.0232
-0.884,-0.585,0.009,19.87,-5.04,-15.78,1784934954381.3372
-0.892,-0.569,0.002,26.67,-5.89,-17.21,1784934954391.768
-0.897,-0.532,-0.019,34.24,-6.13,-17.94,1784934954404.986
-0.896,-0.495,-0.032,40.65,-5.83,-17.27,1784934954411.0012
-0.894,-0.456,-0.041,43.0,-5.46,-16.05,1784934954421.215
-0.89,-0.422,-0.035,40.35,-4.79,-13.92,1784934954431.865
-0.882,-0.404,-0.027,34.58,-3.81,-10.68,1784934954444.959
-0.867,-0.4,-0.018,27.28,-2.69,-7.17,1784934954451.0168
-0.85,-0.4,-0.01,18.68,-1.68,-4.39,1784934954460.796
-0.833,-0.41,0.001,10.28,-0.67,-2.69,1784934954471.335
-0.822,-0.429,0.014,3.05,-0.24,-2.01,1784934954484.791
-0.819,-0.448,0.022,-2.93,-0.27,-2.01,1784934954490.393
-0.822,-0.453,0.02,-7.45,-0.27,-1.95,1784934954500.387
-0.828,-0.461,0.018,-10.04,-0.52,-1.65,1784934954510.8691
-0.833,-0.47,0.024,-11.08,-0.58,-1.31,1784934954521.395
-0.84,-0.485,0.032,-9.64,-0.64,-0.85,1784934954531.83
-0.844,-0.494,0.037,-6.74,-0.55,-0.34,1784934954544.919
-0.846,-0.498,0.035,-3.08,-0.55,0.21,1784934954550.6958
-0.846,-0.497,0.03,0.49,-0.46,0.85,1784934954560.629
-0.842,-0.497,0.026,3.33,-0.37,1.16,1784934954570.848
-0.838,-0.5,0.021,4.43,-0.21,1.37,1784934954581.523
-0.838,-0.5,0.017,4.7,0.0,0.79,1784934954591.7307
-0.845,-0.491,0.016,4.27,-0.06,0.73,1784934954605.031
-0.846,-0.494,0.013,3.97,-0.21,0.82,1784934954610.793
-0.851,-0.499,0.013,3.42,-0.31,0.7,1784934954620.723
-0.851,-0.499,0.013,2.75,-0.82,0.43,1784934954631.1418
-0.855,-0.506,0.015,2.08,-1.31,0.37,1784934954641.459
-0.856,-0.507,0.022,1.95,-1.8,0.67,1784934954654.71
-0.857,-0.512,0.024,1.74,-2.26,0.67,1784934954660.405
-0.857,-0.524,0.024,0.52,-2.69,0.31,1784934954670.2012
-0.858,-0.525,0.025,0.52,-2.69,0.31,1784934954680.9092
-0.856,-0.512,0.02,-0.79,-3.05,0.4,1784934954691.148
-0.853,-0.511,0.003,-2.2,-3.05,0.64,1784934954702.074
-0.853,-0.516,-0.004,-5.04,-3.05,0.0,1784934954714.946
-0.854,-0.519,-0.0,-8.94,-3.54,-0.76,1784934954720.521
-0.851,-0.527,-0.001,-13.06,-4.03,-1.4,1784934954730.761
-0.854,-0.533,-0.002,-16.57,-4.36,-2.11,1784934954741.033
-0.866,-0.539,-0.003,-18.37,-4.64,-2.81,1784934954751.473
-0.882,-0.536,0.005,-18.22,-4.61,-3.57,1784934954764.8142
-0.887,-0.527,0.01,-16.21,-4.43,-3.78,1784934954770.6619
-0.883,-0.521,0.012,-12.76,-4.03,-3.27,1784934954781.0151
-0.874,-0.516,0.016,-9.55,-3.97,-2.66,1784934954791.141
-0.863,-0.517,0.016,-6.96,-3.81,-2.08,1784934954801.452
-0.859,-0.52,0.017,-4.94,-3.63,-1.74,1784934954814.764
-0.851,-0.516,0.011,-2.96,-3.42,-1.71,1784934954820.4211
-0.844,-0.507,0.005,-1.74,-3.17,-1.95,1784934954830.329
-0.839,-0.494,0.003,-2.2,-3.11,-2.32,1784934954840.6921
-0.834,-0.486,0.003,-4.06,-3.14,-2.75,1784934954850.93
-0.834,-0.484,0.004,-6.41,-3.11,-3.08,1784934954861.4048
-0.836,-0.484,0.002,-7.78,-2.87,-3.02,1784934954874.774
-0.837,-0.488,0.008,-7.75,-2.44,-2.87,1784934954880.599
-0.837,-0.49,0.01,-6.35,-2.2,-2.9,1784934954890.434
-0.836,-0.49,0.008,-4.79,-2.2,-2.87,1784934954900.827
-0.837,-0.491,0.008,-3.69,-1.89,-3.08,1784934954911.201
-0.839,-0.493,0.008,-2.78,-1.56,-3.17,1784934954921.554
-0.837,-0.495,0.009,-1.92,-1.43,-3.02,1784934954934.955
-0.841,-0.491,0.011,-1.5,-1.4,-2.99,1784934954940.5251
-0.846,-0.486,0.007,-1.1,-1.62,-2.75,1784934954950.5159
-0.849,-0.479,-0.002,-1.34,-1.71,-2.62,1784934954960.948
-0.851,-0.475,-0.004,-2.01,-1.8,-2.23,1784934954971.333
-0.853,-0.472,-0.008,-3.11,-1.71,-1.95,1784934954981.629
-0.854,-0.469,-0.004,-4.33,-1.71,-1.62,1784934954994.8853
-0.855,-0.472,-0.003,-5.71,-1.83,-1.37,1784934955000.698
-0.852,-0.476,-0.004,-7.23,-1.89,-1.22,1784934955010.5579
-0.854,-0.48,-0.002,-8.3,-1.83,-1.19,1784934955020.9338
-0.857,-0.485,0.002,-8.61,-1.62,-1.07,1784934955031.3333
-0.857,-0.486,0.002,-7.66,-1.46,-0.61,1784934955041.6792
-0.854,-0.486,-0.0,-6.23,-1.37,-0.06,1784934955054.959
-0.852,-0.486,0.0,-5.43,-1.22,0.34,1784934955060.7092
-0.852,-0.486,-0.001,-5.28,-1.19,0.95,1784934955070.6028
-0.851,-0.487,-0.001,-5.83,-0.95,1.59,1784934955080.983
-0.846,-0.486,-0.002,-6.26,-0.89,2.14,1784934955091.3767
-0.844,-0.484,-0.004,-6.68,-1.01,2.69,1784934955101.7458
-0.841,-0.482,-0.008,-7.87,-0.98,3.05,1784934955115.024
-0.842,-0.487,-0.009,-9.16,-0.82,3.17,1784934955120.7737
-0.842,-0.494,-0.002,-9.92,-0.58,3.17,1784934955130.73
-0.848,-0.5,0.002,-9.89,-0.34,3.14,1784934955141.0679
-0.852,-0.498,0.005,-8.7,-0.31,3.48,1784934955151.423
-0.85,-0.497,0.004,-6.96,-0.31,4.06,1784934955164.758
-0.85,-0.5,-0.003,-6.04,-0.4,4.27,1784934955170.43
-0.849,-0.505,-0.007,-5.92,-0.37,4.24,1784934955180.424
-0.85,-0.507,-0.007,-6.29,-0.31,4.12,1784934955190.732
-0.85,-0.508,-0.005,-6.44,-0.31,3.85,1784934955201.18
-0.851,-0.509,-0.006,-6.56,-0.34,3.57,1784934955211.544
-0.854,-0.505,-0.01,-6.96,-0.43,3.45,1784934955224.766
-0.855,-0.498,-0.014,-7.87,-0.37,3.17,1784934955230.5122
-0.852,-0.497,-0.018,-8.91,-0.34,3.14,1784934955240.4639
-0.85,-0.504,-0.017,-10.28,-0.43,2.87,1784934955250.932
-0.85,-0.512,-0.014,-11.75,-0.24,2.17,1784934955261.3818
-0.85,-0.519,-0.006,-11.93,-0.09,1.59,1784934955274.756
-0.847,-0.513,-0.006,-10.65,-0.09,0.98,1784934955280.58
-0.85,-0.509,-0.006,-8.12,0.24,0.95,1784934955290.5322
-0.858,-0.506,-0.004,-5.43,0.73,0.79,1784934955300.941
-0.886,-0.494,0.006,-3.3,1.34,0.76,1784934955311.35
-0.906,-0.491,0.006,-1.19,1.77,0.61,1784934955321.635
-0.9,-0.496,0.006,1.13,2.14,1.07,1784934955334.923
-0.885,-0.497,0.001,3.48,1.83,2.01,1784934955340.7458
-0.87,-0.496,-0.008,5.58,1.46,3.08,1784934955350.585
-0.865,-0.486,-0.019,6.9,1.19,3.63,1784934955361.0789
-0.858,-0.479,-0.024,7.02,1.01,3.69,1784934955371.327
-0.847,-0.472,-0.026,5.71,0.73,3.36,1784934955381.969
-0.838,-0.47,-0.027,3.2,0.92,2.87,1784934955394.9749
-0.839,-0.475,-0.02,0.15,1.01,2.81,1784934955400.83
-0.839,-0.482,-0.009,-2.72,1.07,3.14,1784934955410.6309
-0.837,-0.492,-0.0,-3.94,1.19,3.66,1784934955421.082
-0.837,-0.504,-0.004,-3.54,1.25,3.72,1784934955431.4749
-0.838,-0.51,-0.004,-2.35,1.59,3.2,1784934955441.9302
-0.84,-0.508,0.001,-1.07,1.8,2.56,1784934955455.0212
-0.843,-0.504,0.002,-0.03,1.86,2.11,1784934955460.75
-0.847,-0.503,0.004,0.85,1.83,1.46,1784934955471.078
-0.853,-0.501,0.003,1.4,1.46,0.73,1784934955481.303
-0.857,-0.496,0.0,1.4,0.92,0.21,1784934955491.4592
-0.862,-0.491,-0.005,0.73,0.15,-0.34,1784934955504.694
-0.864,-0.49,-0.008,-0.18,-0.49,-0.89,1784934955510.393
-0.861,-0.485,-0.007,-1.37,-0.98,-1.5,1784934955520.437
-0.856,-0.481,-0.007,-2.29,-1.43,-2.08,1784934955530.9397
-0.855,-0.485,-0.01,-2.78,-1.71,-2.23,1784934955541.188
-0.86,-0.489,-0.014,-3.17,-1.95,-2.23,1784934955551.5369
-0.863,-0.488,-0.017,-3.54,-1.86,-2.2,1784934955564.855
-0.861,-0.486,-0.016,-3.66,-1.37,-1.68,1784934955570.507
-0.859,-0.485,-0.013,-3.27,-0.98,-1.04,1784934955580.631
-0.855,-0.483,-0.01,-3.05,-0.64,-0.34,1784934955590.8323
-0.853,-0.483,-0.009,-2.9,-0.24,0.27,1784934955601.2212
-0.85,-0.488,-0.009,-2.72,0.09,0.46,1784934955611.661
-0.848,-0.493,-0.009,-2.41,0.43,0.49,1784934955624.8472
-0.847,-0.494,-0.009,-1.68,0.61,0.52,1784934955630.6282
-0.849,-0.494,-0.009,-0.67,0.61,0.37,1784934955640.5781
-0.852,-0.491,-0.008,-0.03,0.58,-0.03,1784934955650.8538
-0.854,-0.494,-0.007,0.49,0.58,-0.37,1784934955661.3218
-0.855,-0.492,-0.009,0.52,0.58,-0.58,1784934955671.753
-0.858,-0.489,-0.009,0.67,0.52,-0.82,1784934955685.16
-0.858,-0.491,-0.009,1.1,0.37,-1.13,1784934955690.609
-0.86,-0.492,-0.011,1.31,0.4,-1.34,1784934955700.616
-0.863,-0.491,-0.015,1.19,0.18,-1.65,1784934955711.078
-0.863,-0.487,-0.016,0.73,0.12,-1.71,1784934955721.439
-0.863,-0.484,-0.014,0.09,-0.06,-1.62,1784934955731.833
-0.863,-0.48,-0.015,-0.64,-0.12,-1.37,1784934955745.111
-0.861,-0.478,-0.013,-1.31,-0.09,-1.31,1784934955750.955
-0.86,-0.477,-0.014,-1.95,-0.27,-1.25,1784934955761.098
-0.857,-0.479,-0.012,-2.32,-0.31,-1.07,1784934955771.1138
-0.857,-0.479,-0.006,-2.66,-0.21,-0.85,1784934955781.539
-0.854,-0.477,-0.006,-2.75,-0.21,-0.52,1784934955794.672
-0.846,-0.478,-0.007,-2.62,-0.21,-0.12,1784934955800.545
-0.842,-0.48,-0.007,-2.69,-0.27,0.21,1784934955810.365
-0.838,-0.479,-0.009,-3.02,-0.46,0.49,1784934955820.7612
-0.836,-0.483,-0.011,-3.05,-0.49,0.76,1784934955831.252
-0.841,-0.488,-0.013,-2.84,-0.43,0.95,1784934955841.482
-0.849,-0.487,-0.011,-3.11,-0.18,1.01,1784934955854.7341
-0.845,-0.484,-0.004,-3.27,0.21,1.46,1784934955860.548
-0.836,-0.472,0.007,-2.93,0.34,2.47,1784934955870.481
-0.839,-0.453,-0.002,-2.75,-0.15,4.3,1784934955881.017
-0.834,-0.437,-0.036,-3.63,-0.21,6.62,1784934955891.188
-0.824,-0.435,-0.052,-5.86,1.16,8.51,1784934955901.611
-0.82,-0.429,-0.039,-9.46,3.08,10.28,1784934955915.256
-0.82,-0.429,-0.039,-13.09,4.58,12.63,1784934955920.865
-0.819,-0.403,-0.031,-14.22,5.43,15.72,1784934955931.117
-0.826,-0.398,-0.056,-15.41,7.35,17.64,1784934955941.509
-0.845,-0.427,-0.064,-17.98,9.28,18.68,1784934955954.7861
-0.873,-0.44,-0.031,-17.24,10.25,20.14,1784934955960.736
-0.892,-0.454,0.011,-17.24,10.25,20.14,1784934955971.191
-0.903,-0.473,0.035,-11.47,9.95,20.84,1784934955981.7222
-0.907,-0.496,0.039,-2.56,8.91,20.23,1784934955994.911
-0.908,-0.512,0.037,6.65,8.03,18.52,1784934956000.8599
-0.906,-0.515,0.029,14.13,6.41,16.02,1784934956011.0237
-0.903,-0.503,0.013,19.84,4.09,13.37,1784934956021.5051
-0.902,-0.483,-0.012,22.46,1.68,10.44,1784934956034.765
