ax,ay,az,gx,gy,gz,timestamp_ms
-0.815,0.319,0.442,1.28,-0.06,-0.21,1784838606213.804
-0.814,0.314,0.439,1.68,-0.34,0.7,1784838606214.507
-0.811,0.311,0.434,1.01,-0.27,1.83,1784838606215.093
-0.809,0.309,0.429,-0.46,0.34,2.69,1784838606215.5981
-0.798,0.305,0.425,-2.14,1.43,3.69,1784838606216.099
-0.786,0.297,0.422,-4.73,3.2,4.58,1784838606216.663
-0.776,0.281,0.427,-9.06,5.77,5.52,1784838606217.119
-0.773,0.265,0.428,-15.11,9.19,6.68,1784838606217.4312
-0.765,0.256,0.431,-23.62,12.94,8.24,1784838606218.104
-0.749,0.253,0.437,-33.69,16.3,10.19,1784838606218.438
-0.752,0.266,0.461,-43.98,19.07,12.02,1784838606218.7588
-0.795,0.293,0.496,-52.52,20.87,13.15,1784838606219.308
-0.814,0.302,0.502,-57.34,21.24,13.73,1784838606219.632
-0.803,0.301,0.482,-58.96,20.45,13.09,1784838606219.9512
-0.811,0.294,0.454,-57.92,19.23,11.51,1784838606220.269
-0.806,0.284,0.438,-54.23,17.82,9.74,1784838606220.592
-0.798,0.293,0.432,-50.97,15.66,8.09,1784838606221.001
-0.778,0.322,0.439,-46.48,13.03,6.65,1784838606221.366
-0.777,0.34,0.44,-41.2,8.85,4.97,1784838606221.71
-0.785,0.334,0.437,-35.34,6.53,2.5,1784838606222.054
-0.782,0.31,0.447,-30.95,5.71,-0.09,1784838606222.364
-0.81,0.295,0.452,-30.92,5.43,-2.04,1784838606222.676
-0.826,0.278,0.444,-35.04,8.39,0.03,1784838606222.979
-0.753,0.238,0.438,-44.22,14.71,5.46,1784838606223.5781
-0.768,0.214,0.442,-59.45,19.75,7.84,1784838606224.1467
-0.813,0.217,0.477,-78.89,24.75,10.04,1784838606224.5078
-0.777,0.255,0.555,-101.32,28.44,15.23,1784838606224.9111
-0.695,0.297,0.676,-124.39,28.87,21.42,1784838606225.2422
-0.659,0.324,0.767,-142.25,27.38,25.45,1784838606225.559
-0.665,0.353,0.802,-152.2,27.19,27.07,1784838606225.8718
-0.641,0.379,0.833,-155.06,28.66,28.78,1784838606226.1829
-0.626,0.391,0.876,-152.62,29.39,29.3,1784838606226.502
-0.645,0.4,0.924,-146.7,29.63,28.02,1784838606226.8313
-0.675,0.411,0.981,-140.96,29.48,25.64,1784838606227.167
-0.7,0.397,1.02,-137.36,28.6,21.67,1784838606227.498
-0.702,0.324,1.034,-137.91,25.82,17.24,1784838606227.818
-0.684,0.237,1.02,-140.96,20.75,12.73,1784838606228.1333
-0.652,0.229,0.989,-146.55,12.39,11.81,1784838606228.4448
-0.598,0.266,1.043,-155.98,0.43,17.12,1784838606228.758
-0.613,0.331,1.169,-163.52,-16.72,18.46,1784838606229.0728
-0.666,0.412,1.299,-162.14,-36.13,16.51,1784838606229.402
-0.695,0.482,1.396,-148.14,-53.53,15.47,1784838606229.722
-0.708,0.519,1.451,-121.77,-69.0,15.05,1784838606230.0369
-0.755,0.504,1.449,-89.48,-83.01,15.56,1784838606230.3481
-0.81,0.479,1.406,-59.08,-96.71,16.45,1784838606230.658
-0.846,0.442,1.358,-35.68,-110.66,18.49,1784838606230.9692
-0.887,0.396,1.281,-18.4,-123.23,20.66,1784838606231.284
-0.903,0.356,1.233,-7.9,-134.77,23.19,1784838606231.594
-0.92,0.319,1.222,-4.12,-146.46,26.37,1784838606231.909
-0.961,0.278,1.213,-2.84,-156.59,28.53,1784838606232.217
-0.997,0.242,1.215,-1.53,-165.2,29.02,1784838606232.527
-1.009,0.236,1.202,1.1,-172.77,29.3,1784838606232.838
-1.011,0.236,1.183,3.45,-178.26,29.24,1784838606233.15
-1.033,0.237,1.162,6.78,-181.22,27.99,1784838606233.4722
-1.038,0.235,1.126,10.38,-183.57,26.86,1784838606233.797
-1.018,0.243,1.106,11.32,-185.58,24.63,1784838606234.122
-0.996,0.253,1.122,9.7,-189.03,22.4,1784838606234.4429
-0.991,0.25,1.124,8.82,-191.5,21.94,1784838606234.76
-1.006,0.247,1.128,6.65,-193.85,22.95,1784838606235.08
-0.978,0.306,1.136,6.59,-195.32,26.25,1784838606235.4
-0.931,0.365,1.13,10.68,-197.21,31.43,1784838606235.725
-0.923,0.372,1.101,18.43,-198.16,32.56,1784838606236.043
-0.935,0.367,1.06,30.7,-197.03,30.0,1784838606236.367
-0.931,0.354,1.016,40.07,-194.4,31.04,1784838606236.692
-0.923,0.322,0.998,42.73,-190.01,35.07,1784838606237.011
-0.904,0.297,0.988,42.05,-185.37,39.64,1784838606237.343
-0.86,0.257,0.906,37.78,-178.99,45.14,1784838606237.67
-0.808,0.196,0.787,31.8,-171.54,48.71,1784838606238.393
-0.751,0.133,0.718,25.21,-164.98,48.98,1784838606238.7231
-0.698,0.098,0.704,20.29,-160.99,49.56,1784838606239.051
-0.647,0.091,0.704,11.11,-160.1,49.75,1784838606239.372
-0.6,0.103,0.706,-3.08,-158.36,48.07,1784838606239.704
-0.567,0.155,0.715,-11.96,-156.38,42.39,1784838606240.0352
-0.57,0.229,0.723,-10.13,-154.73,37.54,1784838606240.4438
-0.565,0.256,0.685,1.65,-150.94,38.21,1784838606240.875
-0.514,0.247,0.635,15.69,-146.18,39.98,1784838606241.2998
-0.468,0.219,0.599,25.88,-140.35,38.27,1784838606241.7249
-0.444,0.184,0.572,32.5,-133.03,35.07,1784838606242.244
-0.411,0.133,0.553,35.83,-125.92,35.86,1784838606242.671
-0.389,0.076,0.514,36.53,-119.45,35.46,1784838606243.12
-0.374,0.049,0.466,33.91,-111.12,34.03,1784838606243.5552
-0.337,0.056,0.448,29.82,-103.46,36.35,1784838606243.9868
-0.27,0.09,0.481,21.7,-98.09,40.44,1784838606244.3618
-0.243,0.118,0.508,15.11,-93.54,41.08,1784838606244.687
-0.236,0.11,0.504,15.44,-85.06,38.06,1784838606245.0078
-0.236,0.11,0.504,16.42,-75.59,35.86,1784838606245.333
-0.227,0.072,0.487,13.25,-67.42,34.94,1784838606245.6611
-0.191,0.054,0.499,5.34,-60.85,33.75,1784838606245.985
-0.157,0.07,0.547,-2.35,-53.32,31.59,1784838606246.306
-0.139,0.083,0.542,-2.35,-53.32,31.59,1784838606246.634
-0.091,0.067,0.53,-4.85,-44.25,28.17,1784838606246.962
-0.05,0.032,0.554,-8.51,-38.06,25.76,1784838606247.283
-0.068,0.022,0.586,-17.3,-32.14,22.64,1784838606247.607
-0.002,0.098,0.617,-23.47,-27.34,24.45,1784838606247.937
0.022,0.119,0.616,-22.52,-26.0,24.66,1784838606248.268
0.019,0.101,0.641,-20.81,-22.0,21.18,1784838606248.5938
0.034,0.116,0.667,-19.14,-17.58,20.2,1784838606248.924
0.057,0.139,0.68,-17.46,-15.29,20.33,1784838606249.2568
0.067,0.147,0.692,-15.02,-13.43,18.52,1784838606249.583
0.084,0.162,0.71,-10.77,-12.24,15.75,1784838606249.9033
0.085,0.179,0.74,-5.77,-11.08,11.05,1784838606250.232
0.093,0.163,0.744,-1.25,-7.93,7.51,1784838606250.56
0.124,0.147,0.749,0.61,-3.11,3.17,1784838606250.877
0.138,0.114,0.773,1.37,-0.82,-0.31,1784838606251.2053
0.148,0.091,0.799,0.34,0.37,-1.34,1784838606251.5159
0.16,0.112,0.81,-3.63,2.5,-2.08,1784838606251.827
0.188,0.152,0.826,-7.02,2.99,-1.46,1784838606252.127
0.196,0.18,0.857,-7.32,1.04,0.95,1784838606252.438
0.195,0.2,0.88,-5.98,-0.06,2.84,1784838606252.7417
0.209,0.216,0.894,-3.33,0.15,3.11,1784838606253.0469
0.214,0.225,0.916,-0.89,0.4,2.32,1784838606253.3499
0.224,0.228,0.931,0.55,1.13,0.37,1784838606253.658
0.229,0.228,0.948,1.8,1.71,-1.4,1784838606253.966
0.226,0.218,0.953,2.35,2.17,-2.41,1784838606254.2742
0.23,0.21,0.951,2.04,2.29,-3.2,1784838606254.583
0.23,0.209,0.961,2.08,2.62,-3.33,1784838606254.888
0.226,0.22,0.964,2.11,2.26,-2.2,1784838606255.1902
0.21,0.241,0.975,1.8,0.43,-1.07,1784838606255.498
0.2,0.268,0.995,2.9,-1.25,0.12,1784838606255.807
0.189,0.29,0.971,6.23,-2.62,1.1,1784838606256.1072
0.182,0.287,0.926,10.13,-2.96,1.28,1784838606256.417
0.153,0.28,0.93,12.42,-2.47,0.92,1784838606256.723
0.109,0.289,0.966,10.5,-1.43,1.68,1784838606257.028
0.108,0.285,0.969,6.2,0.67,3.6,1784838606257.3271
0.081,0.253,0.986,-0.58,1.98,6.26,1784838606257.632
0.044,0.192,1.0,-8.27,2.81,10.28,1784838606257.939
0.026,0.141,0.986,-15.9,3.36,14.92,1784838606258.2468
0.011,0.199,0.977,-24.41,2.84,19.99,1784838606258.5542
0.035,0.287,0.993,-27.8,2.35,23.41,1784838606258.8657
0.052,0.313,0.991,-22.89,1.16,22.98,1784838606259.177
0.063,0.308,0.979,-14.44,-0.64,21.58,1784838606259.49
0.053,0.294,0.987,-4.61,-4.3,22.25,1784838606259.817
0.042,0.25,0.96,6.44,-8.91,24.08,1784838606260.125
0.01,0.188,0.906,15.11,-14.37,25.67,1784838606260.4412
-0.03,0.159,0.821,20.6,-18.8,26.52,1784838606260.752
-0.036,0.208,0.815,23.07,-20.26,28.53,1784838606261.068
-0.046,0.264,0.829,25.33,-20.14,32.69,1784838606261.3928
-0.014,0.224,0.806,28.72,-17.37,36.16,1784838606261.712
0.008,0.127,0.859,25.42,-13.89,40.93,1784838606262.029
0.029,0.065,0.947,11.54,-11.23,49.26,1784838606262.391
0.11,0.022,1.003,-9.4,-10.41,56.37,1784838606262.711
0.137,0.013,1.016,-29.73,-13.76,61.07,1784838606263.0222
0.093,0.104,0.996,-45.99,-20.29,65.03,1784838606263.33
0.051,0.325,0.946,-51.55,-28.57,69.77,1784838606263.6428
0.038,0.612,0.92,-40.41,-36.59,75.81,1784838606263.957
0.012,0.823,0.965,-9.86,-44.95,82.13,1784838606264.263
-0.057,0.899,1.016,35.13,-53.19,87.44,1784838606264.58
-0.109,0.891,1.135,83.01,-60.64,93.17,1784838606264.894
-0.17,0.873,1.265,124.49,-69.55,100.07,1784838606265.216
-0.2,0.876,1.262,155.37,-76.17,105.72,1784838606265.532
-0.173,0.837,1.31,171.64,-80.54,109.74,1784838606265.857
-0.166,0.73,1.338,181.89,-84.14,115.12,1784838606266.18
-0.169,0.506,1.19,185.89,-84.44,121.89,1784838606266.503
-0.16,0.266,0.993,185.64,-79.99,126.22,1784838606266.8203
-0.168,0.082,0.806,175.15,-77.7,132.82,1784838606267.138
-0.132,-0.072,0.673,145.33,-70.53,142.12,1784838606267.463
0.061,-0.177,0.634,104.22,-59.27,149.69,1784838606267.789
0.291,-0.219,0.676,51.45,-50.94,153.02,1784838606268.1082
0.433,-0.175,0.73,-1.5,-46.11,148.44,1784838606268.4312
0.599,-0.102,0.775,-40.89,-41.6,137.27,1784838606268.759
0.723,-0.008,0.831,-63.48,-39.77,122.96,1784838606269.0889
0.718,0.106,0.873,-68.76,-41.14,106.91,1784838606269.414
0.699,0.223,0.881,-57.68,-41.41,91.49,1784838606269.737
0.693,0.296,0.854,-37.29,-41.84,74.77,1784838606270.06
0.658,0.279,0.847,-14.44,-43.98,55.67,1784838606270.3901
0.63,0.225,0.844,10.47,-45.11,39.12,1784838606270.726
0.639,0.152,0.753,29.39,-44.47,28.53,1784838606271.0579
0.691,0.077,0.675,40.01,-40.59,19.41,1784838606271.3853
0.73,0.029,0.687,41.81,-35.92,13.82,1784838606271.694
0.752,-0.127,0.72,20.97,-24.14,6.01,1784838606272.388
0.747,-0.144,0.718,0.89,-16.88,2.53,1784838606272.695
-0.871,0.287,0.466,-27.01,11.17,-7.32,1784838606273.254
-0.857,0.287,0.472,-23.38,9.55,-6.74,1784838606273.557
-0.85,0.291,0.468,-18.19,7.54,-6.13,1784838606273.8691
-0.847,0.294,0.466,-13.64,5.49,-5.13,1784838606274.175
-0.846,0.292,0.465,-9.8,3.51,-4.61,1784838606280.339
-0.851,0.291,0.461,-6.32,2.04,-3.69,1784838606285.821
-0.854,0.282,0.457,-4.24,1.1,-1.92,1784838606295.9858
-0.852,0.265,0.447,-5.04,0.61,0.64,1784838606306.323
-0.85,0.266,0.449,-8.42,0.55,3.6,1784838606316.739
-0.846,0.274,0.467,-11.93,0.61,7.14,1784838606327.1948
-0.836,0.277,0.493,-14.71,0.82,11.02,1784838606340.4841
-0.839,0.275,0.501,-17.43,1.37,14.77,1784838606346.071
-0.842,0.284,0.504,-20.39,2.47,18.56,1784838606356.655
-0.831,0.291,0.513,-22.86,3.42,21.94,1784838606367.237
-0.826,0.292,0.523,-24.2,4.67,24.35,1784838606380.471
-0.812,0.286,0.544,-25.57,6.9,25.94,1784838606386.13
-0.787,0.269,0.59,-29.54,8.91,27.92,1784838606396.586
-0.758,0.26,0.645,-37.23,9.4,30.55,1784838606407.208
-0.731,0.262,0.689,-46.42,9.28,34.39,1784838606420.466
-0.725,0.249,0.706,-56.22,9.37,38.12,1784838606426.1802
-0.712,0.232,0.743,-66.71,8.67,40.68,1784838606436.726
-0.684,0.257,0.777,-75.47,5.1,42.48,1784838606447.35
-0.654,0.315,0.795,-81.88,-1.01,43.34,1784838606460.823
-0.629,0.363,0.862,-86.31,-9.25,41.99,1784838606466.49
-0.634,0.368,0.952,-87.53,-18.43,37.57,1784838606476.788
-0.638,0.351,0.979,-84.29,-28.57,30.73,1784838606487.7751
-0.629,0.326,0.97,-79.93,-37.93,24.02,1784838606500.918
-0.612,0.312,0.964,-73.82,-47.46,17.76,1784838606506.907
-0.576,0.339,0.995,-64.24,-57.71,13.37,1784838606517.3462
-0.578,0.367,1.032,-51.73,-67.63,11.51,1784838606530.541
-0.605,0.38,1.067,-37.9,-76.63,9.22,1784838606536.4832
-0.634,0.378,1.084,-25.54,-83.56,7.29,1784838606547.1658
-0.66,0.37,1.088,-17.3,-88.5,6.35,1784838606557.631
-0.694,0.332,1.076,-14.1,-92.81,6.29,1784838606570.601
-0.726,0.278,1.026,-14.74,-95.98,5.98,1784838606576.287
-0.75,0.228,0.954,-22.06,-98.57,6.38,1784838606586.6758
-0.743,0.203,0.914,-35.92,-100.86,8.45,1784838606597.45
-0.728,0.218,0.909,-51.88,-104.98,11.87,1784838606610.784
-0.717,0.251,0.948,-66.35,-110.84,14.31,1784838606616.6028
-0.722,0.269,1.006,-75.53,-118.5,15.14,1784838606627.33
-0.755,0.269,1.012,-75.38,-126.32,13.64,1784838606640.821
-0.791,0.264,0.945,-67.87,-130.71,11.14,1784838606646.679
-0.803,0.256,0.883,-60.12,-134.89,10.96,1784838606657.343
-0.759,0.307,0.913,-53.74,-140.48,14.4,1784838606670.727
-0.655,0.457,1.096,-43.46,-150.4,16.17,1784838606676.6038
-0.587,0.61,1.21,-16.36,-165.56,20.91,1784838606687.4082
-0.607,0.6,1.138,17.15,-172.22,28.96,1784838606700.6929
-0.666,0.511,1.264,20.87,-186.65,42.97,1784838606706.6162
-0.72,0.575,1.363,2.5,-209.85,57.71,1784838606717.466
-0.72,0.575,1.363,6.13,-210.24,63.84,1784838606730.5757
-0.757,0.686,1.312,37.57,-204.02,67.42,1784838606736.4219
-0.774,0.691,1.184,67.84,-199.62,71.47,1784838606747.1099
-0.837,0.504,1.032,74.31,-190.86,74.59,1784838606760.712
-0.841,0.285,0.934,60.88,-178.59,73.67,1784838606766.52
-0.779,0.168,0.882,60.88,-178.59,73.67,1784838606777.3198
-0.693,0.07,0.888,40.28,-165.59,66.47,1784838606790.715
-0.671,0.016,0.87,22.8,-155.92,54.57,1784838606796.589
-0.638,0.012,0.876,9.83,-145.82,44.5,1784838606807.271
-0.585,0.058,0.882,1.46,-134.71,37.57,1784838606817.878
-0.59,0.149,0.891,-6.1,-124.09,31.22,1784838606831.021
-0.58,0.261,0.917,-11.14,-113.1,22.98,1784838606837.355
-0.549,0.321,0.938,-7.81,-105.44,13.34,1784838606847.6072
-0.531,0.295,0.927,-0.58,-99.64,4.64,1784838606860.946
-0.513,0.245,0.933,3.97,-96.01,1.68,1784838606866.936
-0.5,0.21,0.943,5.31,-93.87,2.87,1784838606876.7822
-0.456,0.214,0.935,4.46,-91.56,6.59,1784838606887.358
-0.412,0.285,0.953,3.78,-92.17,12.85,1784838606897.8
-0.413,0.329,0.986,5.4,-94.55,18.52,1784838606911.0652
-0.408,0.33,1.005,6.1,-95.34,21.42,1784838606916.884
-0.388,0.304,0.992,4.55,-93.72,23.77,1784838606927.365
-0.365,0.238,0.969,1.53,-90.55,25.76,1784838606937.671
-0.354,0.171,0.935,-3.42,-87.04,28.2,1784838606951.094
-0.332,0.158,0.906,-10.44,-84.35,30.7,1784838606957.1409
-0.306,0.192,0.889,-15.29,-82.86,32.99,1784838606967.4631
-0.276,0.218,0.882,-14.83,-82.4,35.98,1784838606980.516
-0.244,0.215,0.864,-11.51,-83.13,37.26,1784838606986.6052
-0.223,0.214,0.859,-9.74,-83.96,35.55,1784838606996.8481
-0.214,0.253,0.879,-8.0,-84.23,32.96,1784838607007.539
-0.201,0.264,0.87,-2.08,-83.74,30.58,1784838607020.963
-0.196,0.245,0.839,3.97,-82.8,27.77,1784838607026.971
-0.181,0.242,0.823,8.67,-81.55,25.33,1784838607036.8792
-0.197,0.227,0.797,13.95,-81.06,23.29,1784838607047.4958
-0.206,0.203,0.748,17.52,-79.17,21.67,1784838607060.8818
-0.187,0.178,0.722,19.62,-75.59,21.12,1784838607066.818
-0.159,0.128,0.704,20.42,-71.93,21.64,1784838607077.27
-0.131,0.057,0.702,16.48,-66.9,21.45,1784838607090.71
-0.108,0.014,0.713,7.02,-60.46,21.0,1784838607096.394
-0.098,-0.01,0.72,-4.85,-54.02,21.15,1784838607106.9119
-0.093,0.013,0.706,-16.36,-48.83,21.45,1784838607117.482
-0.057,0.089,0.679,-24.72,-43.73,21.76,1784838607130.619
-0.03,0.177,0.67,-26.89,-40.68,20.81,1784838607136.568
-0.019,0.238,0.614,-20.78,-39.25,18.8,1784838607147.155
-0.013,0.251,0.566,-9.0,-37.63,15.81,1784838607157.6829
0.002,0.239,0.575,4.06,-35.62,11.87,1784838607171.052
0.011,0.178,0.585,13.12,-32.59,8.21,1784838607176.7522
0.036,0.116,0.586,16.91,-28.44,4.3,1784838607187.244
0.06,0.075,0.622,15.35,-23.77,1.28,1784838607197.632
0.067,0.058,0.639,9.09,-19.44,1.13,1784838607211.097
0.102,0.102,0.655,0.21,-14.59,1.37,1784838607216.7969
0.114,0.164,0.67,-6.74,-11.93,2.08,1784838607226.696
0.131,0.215,0.677,-11.02,-9.34,3.72,1784838607237.165
0.187,0.25,0.727,-12.48,-6.56,5.37,1784838607250.503
0.191,0.254,0.762,-11.9,-5.86,5.83,1784838607255.9968
0.209,0.24,0.774,-10.96,-5.28,5.62,1784838607266.311
0.218,0.22,0.798,-9.4,-4.97,4.85,1784838607276.639
0.216,0.207,0.802,-6.87,-4.64,4.15,1784838607287.102
0.226,0.235,0.821,-4.3,-4.43,4.06,1784838607297.411
0.232,0.265,0.847,-0.4,-4.55,2.75,1784838607310.773
0.226,0.264,0.852,4.33,-5.31,0.58,1784838607316.169
0.219,0.236,0.839,7.42,-5.68,-1.31,1784838607326.333
0.199,0.209,0.844,7.93,-5.46,-2.11,1784838607336.853
0.194,0.197,0.827,6.29,-3.78,-2.17,1784838607347.2341
0.186,0.186,0.81,3.54,-1.77,-1.83,1784838607360.466
0.151,0.16,0.799,1.68,-0.21,-0.03,1784838607366.0159
0.135,0.154,0.796,0.55,1.8,2.32,1784838607376.101
0.142,0.177,0.807,-0.85,4.36,3.66,1784838607386.5469
0.153,0.161,0.835,-0.49,6.5,2.84,1784838607396.9478
0.153,0.123,0.867,0.46,8.3,1.5,1784838607407.368
0.166,0.14,0.903,-1.89,9.52,1.04,1784838607420.959
0.166,0.189,0.922,-3.85,9.37,0.46,1784838607426.6008
0.171,0.223,0.923,-2.72,8.45,-0.79,1784838607436.3132
0.176,0.254,0.929,0.09,6.44,-1.19,1784838607446.698
0.163,0.287,0.946,4.09,3.51,-0.03,1784838607457.206
0.149,0.308,0.963,8.24,0.18,2.66,1784838607467.5852
0.143,0.335,0.985,11.26,-3.27,7.11,1784838607480.7239
0.133,0.358,1.004,12.48,-7.39,12.7,1784838607486.745
0.096,0.357,1.005,12.91,-12.51,18.77,1784838607496.876
0.013,0.321,1.013,11.87,-17.43,25.27,1784838607507.7231
-0.051,0.293,1.007,7.63,-20.87,31.89,1784838607521.0781
-0.108,0.311,0.993,0.82,-24.32,36.87,1784838607526.8708
-0.185,0.343,0.976,-5.13,-27.68,39.95,1784838607537.1367
-0.167,0.377,0.965,-6.93,-28.63,41.99,1784838607547.641
-0.12,0.439,0.999,-2.69,-32.38,46.42,1784838607560.951
-0.099,0.497,1.037,9.7,-43.06,54.66,1784838607566.7478
-0.062,0.585,1.026,29.85,-58.44,66.9,1784838607577.1038
-0.086,0.674,0.976,51.73,-76.02,81.15,1784838607590.381
-0.1,0.728,0.836,68.33,-87.86,91.74,1784838607595.9502
-0.109,0.723,0.885,79.56,-91.56,102.48,1784838607607.095
-0.129,0.563,0.934,89.48,-87.53,113.8,1784838607617.7961
-0.094,0.256,0.986,84.6,-78.65,120.43,1784838607630.9768
-0.164,-0.012,0.998,55.51,-71.11,124.85,1784838607636.8909
-0.093,-0.097,0.959,11.99,-60.21,128.61,1784838607647.5652
-0.001,-0.024,0.894,-28.23,-50.66,129.7,1784838607661.0
0.108,0.069,0.804,-53.77,-42.66,126.04,1784838607666.802
0.193,0.201,0.799,-61.77,-38.27,122.07,1784838607677.561
0.225,0.342,0.842,-52.28,-37.54,118.75,1784838607691.0222
0.261,0.43,0.879,-28.5,-39.22,111.45,1784838607696.924
0.314,0.434,0.88,-0.58,-40.07,97.93,1784838607707.451
0.35,0.385,0.921,28.87,-39.67,84.05,1784838607720.766
0.293,0.287,0.938,52.71,-38.48,74.68,1784838607726.583
0.276,0.189,0.918,65.1,-34.94,67.6,1784838607737.123
0.242,0.139,0.898,66.47,-32.14,61.28,1784838607747.612
0.235,0.145,0.845,63.08,-28.26,56.58,1784838607761.087
0.282,0.161,0.791,59.08,-23.87,54.08,1784838607766.956
0.388,0.143,0.735,53.8,-19.04,50.42,1784838607777.343
0.544,0.115,0.769,49.35,-14.56,46.72,1784838607800.3762
0.553,0.149,0.846,44.28,-12.67,44.43,1784838607804.063
0.613,0.13,0.907,37.72,-9.19,40.01,1784838607807.9019
0.682,0.123,0.976,29.36,-6.87,32.93,1784838607818.092
0.668,0.183,0.999,19.87,-6.96,27.47,1784838607831.001
0.697,0.199,0.961,16.24,-6.81,21.61,1784838607836.967
0.687,0.232,0.957,17.64,-9.4,15.05,1784838607848.538
0.653,0.3,0.953,20.14,-11.41,10.68,1784838607857.661
0.701,0.278,0.892,27.47,-10.83,6.71,1784838607871.1062
0.693,0.247,0.86,37.35,-10.71,1.16,1784838607876.8818
0.714,0.22,0.8,44.62,-8.55,-2.38,1784838607887.012
0.737,0.152,0.761,47.61,-5.07,-7.08,1784838607901.203
0.721,0.155,0.758,47.49,-0.12,-11.72,1784838607914.963
0.724,0.19,0.751,47.49,6.84,-14.37,1784838607916.4531
0.717,0.174,0.727,48.95,14.65,-17.24,1784838607927.5288
0.698,0.153,0.748,48.65,21.88,-19.2,1784838607937.619
0.686,0.172,0.774,44.31,28.41,-18.83,1784838607952.644
0.691,0.146,0.752,38.97,33.66,-17.94,1784838607967.4282
0.694,0.118,0.745,32.93,37.05,-18.65,1784838607967.962
0.687,0.124,0.76,27.77,38.97,-19.41,1784838607983.881
0.684,0.11,0.785,25.94,40.19,-21.03,1784838607988.8499
0.698,0.091,0.785,25.82,40.83,-23.87,1784838608007.353
0.698,0.091,0.785,24.99,39.83,-28.84,1784838608019.613
0.73,0.093,0.765,23.38,37.63,-35.46,1784838608024.266
0.724,0.146,0.774,26.89,36.99,-42.57,1784838608028.4001
0.767,0.176,0.77,34.55,35.8,-50.51,1784838608045.999
0.824,0.156,0.755,34.55,35.8,-50.51,1784838608053.167
0.861,0.154,0.765,39.06,32.72,-56.83,1784838608056.3672
0.929,0.126,0.798,40.19,28.75,-61.92,1784838608067.2058
0.979,0.124,0.823,36.38,22.31,-66.16,1784838608080.273
1.026,0.2,0.853,28.78,13.95,-68.73,1784838608086.185
1.092,0.317,0.857,25.18,3.69,-68.0,1784838608096.6921
1.143,0.439,0.85,26.25,-7.93,-64.33,1784838608107.1948
1.173,0.586,0.8,32.93,-17.15,-61.62,1784838608120.5261
1.154,0.428,0.714,44.74,-26.67,-55.06,1784838608126.341
0.901,0.103,0.664,44.16,-36.77,-40.13,1784838608136.968
0.741,0.127,0.75,34.33,-28.9,-10.86,1784838608147.6062
0.678,0.106,0.707,35.1,-16.45,14.74,1784838608160.823
0.647,0.089,0.636,24.41,-10.59,29.63,1784838608166.645
0.594,0.099,0.636,5.95,-12.54,30.73,1784838608177.1992
0.413,0.171,0.681,-11.35,-15.02,21.21,1784838608190.633
0.406,0.197,0.682,-17.73,-6.38,16.69,1784838608196.4412
0.348,0.272,0.744,-18.71,-4.82,13.67,1784838608206.915
0.291,0.349,0.808,-11.99,-2.81,11.81,1784838608217.3628
0.277,0.432,0.873,-3.94,3.23,6.62,1784838608230.5989
0.318,0.415,0.853,4.3,8.94,-1.37,1784838608236.253
0.355,0.418,0.816,7.26,11.93,-8.91,1784838608246.44
0.371,0.427,0.793,9.52,14.16,-12.3,1784838608257.115
0.403,0.425,0.78,10.65,17.0,-13.55,1784838608267.752
0.425,0.417,0.778,8.06,18.98,-12.97,1784838608281.0217
0.448,0.42,0.785,3.42,20.33,-12.21,1784838608286.9902
0.466,0.445,0.806,-3.51,20.63,-10.35,1784838608297.127
0.488,0.464,0.815,-11.38,19.65,-10.01,1784838608307.852
0.511,0.47,0.819,-15.87,17.73,-11.05,1784838608321.217
0.52,0.467,0.828,-16.11,14.59,-12.3,1784838608327.2278
0.531,0.453,0.834,-13.76,10.71,-12.3,1784838608337.584
0.537,0.436,0.829,-10.59,6.71,-12.57,1784838608350.75
0.543,0.425,0.815,-5.58,3.6,-12.39,1784838608356.559
0.535,0.417,0.818,0.82,0.79,-11.11,1784838608366.714
0.512,0.423,0.827,4.73,-1.74,-8.67,1784838608377.043
0.496,0.428,0.814,4.39,-3.33,-6.81,1784838608387.381
0.471,0.432,0.797,3.27,-4.76,-5.43,1784838608400.727
0.453,0.436,0.78,0.76,-5.95,-3.27,1784838608406.3162
0.435,0.429,0.772,-2.66,-6.96,-1.53,1784838608416.418
0.423,0.429,0.759,-6.23,-7.14,-0.34,1784838608426.7039
0.414,0.43,0.739,-9.61,-6.71,0.73,1784838608437.144
0.402,0.416,0.736,-10.59,-5.83,1.07,1784838608447.515
0.39,0.399,0.73,-10.41,-4.46,0.24,1784838608460.948
0.385,0.385,0.728,-8.36,-2.87,-1.65,1784838608466.493
0.386,0.389,0.738,-5.04,-0.82,-3.85,1784838608476.5388
0.397,0.405,0.764,-1.22,0.64,-6.13,1784838608487.0022
0.399,0.406,0.772,2.93,1.59,-8.15,1784838608497.257
0.402,0.406,0.789,7.57,2.53,-10.13,1784838608510.751
0.418,0.426,0.817,10.47,3.33,-11.14,1784838608516.5862
0.44,0.439,0.838,11.47,3.27,-11.54,1784838608526.7598
0.455,0.451,0.858,11.23,2.32,-10.56,1784838608537.422
0.469,0.451,0.855,8.88,0.89,-8.36,1784838608547.678
0.468,0.434,0.843,6.26,-0.85,-5.62,1784838608561.0603
0.465,0.426,0.823,2.62,-2.04,-2.84,1784838608566.6401
0.456,0.422,0.801,0.12,-2.87,-0.55,1784838608576.51
0.443,0.427,0.785,-0.98,-3.17,1.34,1784838608586.844
0.436,0.431,0.766,-0.82,-2.81,2.08,1784838608597.133
0.426,0.43,0.762,1.59,-2.01,1.89,1784838608607.721
0.419,0.431,0.759,3.75,-0.95,1.46,1784838608621.19
0.417,0.43,0.768,5.89,0.03,0.79,1784838608626.528
0.416,0.431,0.787,7.6,0.67,-0.03,1784838608636.67
0.424,0.435,0.787,7.26,1.31,-0.67,1784838608646.98
0.429,0.435,0.783,7.66,1.22,-0.67,1784838608657.435
0.433,0.438,0.783,8.33,1.01,0.06,1784838608670.722
0.433,0.438,0.78,8.15,0.89,0.76,1784838608676.3708
0.431,0.429,0.774,8.21,0.73,1.37,1784838608686.265
0.424,0.42,0.766,8.09,0.73,1.59,1784838608696.743
0.427,0.427,0.764,7.81,1.13,1.62,1784838608706.931
0.433,0.439,0.764,8.61,1.22,2.01,1784838608717.677
