ax,ay,az,gx,gy,gz,timestamp_ms
-0.831,-0.486,-0.168,6.32,3.02,1.07,1784935348505.5981
-0.83,-0.48,-0.17,3.6,1.25,0.7,1784935348618.732
-0.823,-0.471,-0.165,0.27,0.15,1.01,1784935348618.9639
-0.814,-0.469,-0.158,-2.62,-0.61,1.37,1784935348619.169
-0.806,-0.469,-0.153,-4.61,-1.46,2.01,1784935348619.374
-0.799,-0.474,-0.15,-5.68,-2.17,2.87,1784935348619.591
-0.797,-0.483,-0.153,-5.62,-2.84,3.94,1784935348619.789
-0.794,-0.49,-0.16,-4.79,-3.36,4.82,1784935348619.991
-0.791,-0.493,-0.17,-3.51,-3.81,5.28,1784935348620.196
-0.788,-0.493,-0.185,-2.41,-4.55,5.34,1784935348620.393
-0.788,-0.49,-0.198,-2.96,-5.34,5.13,1784935348620.5928
-0.789,-0.489,-0.207,-4.73,-6.1,4.88,1784935348620.791
-0.794,-0.488,-0.219,-7.42,-6.84,4.09,1784935348620.9878
-0.805,-0.488,-0.233,-10.41,-7.66,3.23,1784935348621.185
-0.815,-0.5,-0.247,-13.67,-8.33,2.84,1784935348621.386
-0.82,-0.512,-0.257,-17.27,-8.88,2.47,1784935348621.585
-0.82,-0.521,-0.26,-20.54,-9.34,2.14,1784935348621.7878
-0.823,-0.525,-0.263,-22.77,-9.61,1.83,1784935348621.986
-0.821,-0.529,-0.27,-23.96,-9.86,1.83,1784935348622.2
-0.823,-0.532,-0.274,-24.72,-9.95,1.5,1784935348622.398
-0.823,-0.533,-0.274,-24.9,-9.61,1.16,1784935348622.5999
-0.821,-0.531,-0.271,-23.87,-8.76,1.01,1784935348622.804
-0.82,-0.527,-0.264,-21.21,-7.45,1.46,1784935348623.009
-0.817,-0.527,-0.256,-17.67,-5.89,1.98,1784935348623.208
-0.813,-0.526,-0.247,-13.58,-4.55,2.75,1784935348623.4087
-0.808,-0.524,-0.246,-9.09,-3.11,3.75,1784935348623.6218
-0.804,-0.525,-0.244,-4.7,-1.77,4.82,1784935348623.848
-0.798,-0.528,-0.247,-0.95,-0.61,5.71,1784935348624.0552
-0.797,-0.53,-0.244,1.92,0.37,5.83,1784935348624.254
-0.798,-0.53,-0.244,4.15,0.98,5.77,1784935348624.4468
-0.797,-0.524,-0.244,5.65,1.59,5.52,1784935348624.642
-0.798,-0.52,-0.245,6.35,1.98,5.34,1784935348624.84
-0.8,-0.517,-0.244,6.23,1.95,5.07,1784935348625.039
-0.804,-0.517,-0.242,5.22,1.98,4.85,1784935348625.233
-0.809,-0.52,-0.236,3.72,1.86,4.36,1784935348625.458
-0.814,-0.52,-0.231,2.11,1.62,3.94,1784935348625.667
-0.816,-0.522,-0.231,0.52,1.59,3.91,1784935348625.8528
-0.816,-0.521,-0.229,-1.07,1.46,3.69,1784935348626.07
-0.816,-0.518,-0.222,-2.75,1.28,3.14,1784935348626.2632
-0.818,-0.514,-0.215,-4.36,0.79,2.75,1784935348626.4497
-0.817,-0.505,-0.204,-5.77,0.21,2.56,1784935348626.6409
-0.814,-0.502,-0.202,-6.35,-0.31,2.08,1784935348626.831
-0.816,-0.503,-0.206,-6.23,-0.98,1.13,1784935348627.017
-0.819,-0.498,-0.201,-5.95,-1.65,0.0,1784935348627.205
-0.818,-0.491,-0.197,-5.62,-2.11,-1.1,1784935348627.396
-0.825,-0.492,-0.196,-5.19,-2.75,-1.65,1784935348627.5862
-0.834,-0.494,-0.197,-5.16,-3.39,-1.65,1784935348627.774
-0.834,-0.494,-0.195,-5.31,-3.72,-1.25,1784935348627.963
-0.834,-0.489,-0.197,-5.16,-3.91,-0.95,1784935348628.153
-0.835,-0.483,-0.198,-4.94,-4.24,-0.79,1784935348628.34
-0.834,-0.481,-0.203,-5.25,-4.52,-0.21,1784935348628.5342
-0.836,-0.483,-0.202,-5.8,-4.7,0.61,1784935348628.73
-0.836,-0.487,-0.202,-6.5,-4.97,1.13,1784935348628.916
-0.837,-0.488,-0.2,-7.29,-5.1,1.25,1784935348629.112
-0.841,-0.486,-0.198,-7.66,-5.4,1.25,1784935348629.303
-0.846,-0.483,-0.2,-7.97,-5.8,1.13,1784935348629.489
-0.851,-0.483,-0.202,-8.76,-6.26,0.73,1784935348629.681
-0.856,-0.48,-0.207,-10.1,-6.68,0.46,1784935348629.875
-0.859,-0.477,-0.211,-11.93,-7.2,-0.15,1784935348630.066
-0.862,-0.478,-0.209,-13.58,-7.57,-0.55,1784935348630.2542
-0.862,-0.478,-0.209,-13.95,-7.81,-0.82,1784935348630.4487
-0.862,-0.482,-0.203,-13.7,-8.18,-1.19,1784935348630.6418
-0.859,-0.48,-0.205,-13.12,-8.76,-1.68,1784935348630.829
-0.856,-0.473,-0.209,-12.91,-9.16,-2.38,1784935348631.0242
-0.851,-0.468,-0.213,-12.91,-9.16,-2.38,1784935348631.215
-0.851,-0.461,-0.22,-12.94,-9.52,-3.2,1784935348631.406
-0.85,-0.454,-0.226,-13.37,-9.74,-3.78,1784935348631.6
-0.848,-0.456,-0.227,-13.82,-9.7,-4.27,1784935348631.795
-0.847,-0.458,-0.23,-13.89,-9.8,-4.76,1784935348631.998
-0.845,-0.46,-0.232,-13.43,-9.7,-4.79,1784935348632.185
-0.84,-0.462,-0.241,-12.82,-9.25,-4.52,1784935348632.3772
-0.836,-0.462,-0.247,-12.3,-8.85,-4.15,1784935348632.585
-0.833,-0.461,-0.248,-11.93,-8.27,-3.75,1784935348632.8162
-0.833,-0.461,-0.256,-12.09,-7.6,-3.33,1784935348633.0828
-0.829,-0.453,-0.26,-12.54,-6.74,-2.84,1784935348633.307
-0.832,-0.455,-0.268,-12.36,-6.01,-1.62,1784935348633.621
-0.828,-0.46,-0.271,-12.48,-5.22,-0.55,1784935348633.829
-0.822,-0.46,-0.27,-12.97,-4.52,0.37,1784935348634.083
-0.82,-0.461,-0.273,-12.82,-3.36,1.46,1784935348634.304
-0.812,-0.467,-0.269,-11.69,-2.41,2.23,1784935348634.495
-0.811,-0.468,-0.266,-10.16,-1.53,2.75,1784935348634.6921
-0.808,-0.466,-0.263,-8.42,-0.55,3.23,1784935348634.884
-0.806,-0.468,-0.263,-6.71,0.21,3.97,1784935348635.072
-0.804,-0.465,-0.263,-6.07,0.95,4.46,1784935348635.259
-0.805,-0.464,-0.261,-6.38,1.43,5.25,1784935348635.4492
-0.808,-0.46,-0.265,-7.57,1.68,5.55,1784935348635.6401
-0.819,-0.463,-0.275,-8.94,2.29,5.37,1784935348635.827
-0.838,-0.464,-0.291,-9.92,3.33,4.55,1784935348636.02
-0.854,-0.457,-0.283,-10.59,5.01,3.78,1784935348636.214
-0.852,-0.441,-0.257,-9.49,7.11,3.72,1784935348636.468
-0.845,-0.428,-0.229,-5.74,8.39,4.79,1784935348636.68
-0.842,-0.419,-0.213,-0.06,8.91,7.08,1784935348636.888
-0.83,-0.416,-0.212,5.55,9.46,9.98,1784935348637.0781
-0.824,-0.433,-0.226,10.07,10.32,12.54,1784935348637.274
-0.821,-0.452,-0.243,12.42,10.96,13.86,1784935348637.518
-0.822,-0.47,-0.254,13.64,11.47,14.22,1784935348637.7358
-0.829,-0.477,-0.264,15.08,11.81,13.92,1784935348637.9312
-0.839,-0.474,-0.273,16.39,11.66,13.03,1784935348638.1272
-0.841,-0.471,-0.278,16.94,11.6,12.39,1784935348638.3303
-0.845,-0.476,-0.266,17.15,11.96,12.21,1784935348638.529
-0.849,-0.497,-0.244,19.1,12.02,12.12,1784935348638.725
-0.855,-0.509,-0.226,22.95,11.81,12.3,1784935348638.924
-0.851,-0.508,-0.213,27.22,11.54,12.57,1784935348639.134
-0.841,-0.505,-0.211,31.53,10.86,12.7,1784935348639.331
-0.835,-0.51,-0.218,34.97,9.77,12.15,1784935348639.528
-0.835,-0.505,-0.224,36.41,8.51,10.22,1784935348639.7249
-0.834,-0.495,-0.227,35.19,7.29,7.6,1784935348639.929
-0.834,-0.476,-0.223,30.52,6.04,5.01,1784935348640.116
-0.836,-0.458,-0.219,23.44,4.97,2.87,1784935348640.31
-0.839,-0.445,-0.214,15.02,4.12,1.25,1784935348640.513
-0.843,-0.447,-0.211,6.62,3.42,0.21,1784935348640.6982
-0.842,-0.46,-0.209,-0.76,2.72,-0.46,1784935348640.8901
-0.844,-0.475,-0.207,-6.1,2.04,-0.76,1784935348641.0771
-0.846,-0.483,-0.202,-8.55,1.31,-0.76,1784935348641.263
-0.844,-0.485,-0.198,-8.21,0.61,-0.58,1784935348641.455
-0.846,-0.479,-0.201,-7.14,-0.12,-0.18,1784935348641.6472
-0.842,-0.466,-0.206,-6.26,-0.89,-0.06,1784935348641.8372
-0.837,-0.453,-0.211,-5.86,-1.59,-0.12,1784935348642.026
-0.837,-0.449,-0.219,-6.2,-1.98,-0.18,1784935348642.219
-0.835,-0.446,-0.226,-7.42,-2.17,-0.27,1784935348642.4119
-0.832,-0.447,-0.23,-8.88,-2.35,-0.4,1784935348642.5989
-0.832,-0.448,-0.231,-10.41,-2.38,-0.58,1784935348642.793
-0.834,-0.45,-0.234,-11.51,-2.5,-0.61,1784935348642.987
-0.833,-0.449,-0.234,-11.99,-2.56,-0.37,1784935348643.1748
-0.833,-0.446,-0.24,-11.96,-2.75,-0.27,1784935348643.369
-0.832,-0.448,-0.246,-11.75,-3.05,-0.21,1784935348643.562
-0.834,-0.447,-0.249,-11.9,-3.33,-0.37,1784935348643.754
-0.832,-0.445,-0.251,-12.12,-3.63,-0.37,1784935348643.944
-0.831,-0.444,-0.253,-11.99,-3.66,-0.06,1784935348644.136
-0.832,-0.441,-0.256,-12.02,-3.63,0.03,1784935348644.332
-0.834,-0.439,-0.256,-12.45,-3.51,-0.06,1784935348644.5261
-0.838,-0.435,-0.258,-13.46,-3.3,0.06,1784935348644.72
-0.84,-0.435,-0.26,-14.22,-2.99,0.12,1784935348644.9211
-0.846,-0.438,-0.261,-14.47,-2.87,0.21,1784935348645.115
-0.85,-0.439,-0.264,-14.31,-2.78,0.55,1784935348645.309
-0.85,-0.438,-0.266,-14.16,-2.72,0.58,1784935348645.502
-0.848,-0.441,-0.265,-13.95,-2.53,0.58,1784935348645.696
-0.85,-0.439,-0.263,-13.55,-2.47,0.67,1784935348645.885
-0.852,-0.438,-0.259,-12.82,-2.14,0.79,1784935348646.08
-0.852,-0.438,-0.256,-11.32,-1.98,1.07,1784935348646.2742
-0.851,-0.438,-0.256,-9.92,-1.86,1.4,1784935348646.462
-0.851,-0.434,-0.256,-8.88,-1.77,1.65,1784935348646.6538
-0.85,-0.434,-0.256,-7.72,-1.74,2.01,1784935348646.846
-0.85,-0.439,-0.257,-6.2,-1.62,2.38,1784935348647.032
-0.849,-0.44,-0.258,-4.64,-1.5,2.53,1784935348647.223
-0.848,-0.44,-0.257,-3.02,-1.46,2.69,1784935348647.413
-0.846,-0.44,-0.256,-1.89,-1.37,2.72,1784935348647.605
-0.846,-0.435,-0.255,-1.1,-1.31,2.56,1784935348647.794
-0.846,-0.434,-0.259,-0.95,-1.4,2.72,1784935348647.9958
-0.846,-0.431,-0.257,-1.83,-1.59,2.69,1784935348648.188
-0.848,-0.428,-0.252,-2.56,-1.71,2.66,1784935348648.375
-0.846,-0.431,-0.252,-2.5,-1.65,2.9,1784935348648.5781
-0.846,-0.428,-0.247,-2.81,-1.83,2.47,1784935348648.817
-0.846,-0.428,-0.245,-3.23,-2.26,2.32,1784935348649.021
-0.846,-0.429,-0.242,-3.81,-2.38,2.32,1784935348649.211
-0.846,-0.428,-0.242,-4.33,-2.2,2.38,1784935348649.4028
-0.844,-0.43,-0.241,-4.55,-1.89,2.66,1784935348649.611
-0.846,-0.432,-0.24,-4.09,-2.01,2.93,1784935348649.842
-0.845,-0.435,-0.238,-3.3,-2.01,3.33,1784935348650.08
-0.843,-0.437,-0.238,-2.56,-1.98,3.57,1784935348650.2988
-0.843,-0.438,-0.243,-2.11,-2.11,3.45,1784935348650.517
-0.844,-0.441,-0.245,-2.04,-2.11,3.45,1784935348650.724
-0.845,-0.443,-0.252,-2.11,-2.14,3.39,1784935348650.92
-0.847,-0.443,-0.258,-2.23,-2.17,3.11,1784935348651.1062
-0.848,-0.446,-0.258,-2.47,-2.04,2.75,1784935348651.296
-0.849,-0.447,-0.261,-2.75,-1.95,2.35,1784935348651.4868
-0.849,-0.45,-0.265,-2.62,-2.11,2.11,1784935348651.675
-0.85,-0.45,-0.263,-2.9,-1.8,1.89,1784935348651.864
-0.851,-0.45,-0.26,-2.38,-1.46,1.98,1784935348652.054
-0.849,-0.451,-0.259,-1.22,-1.22,2.01,1784935348652.2397
-0.848,-0.448,-0.257,-0.27,-1.01,1.68,1784935348652.4238
-0.847,-0.448,-0.255,0.61,-0.89,1.31,1784935348652.608
-0.85,-0.442,-0.244,0.82,-0.37,0.12,1784935348653.164
-0.853,-0.439,-0.241,0.7,-0.43,0.0,1784935348653.353
-0.849,-0.407,-0.27,0.49,-0.61,0.09,1784935348653.66
-0.848,-0.406,-0.27,0.49,-0.98,-0.06,1784935348653.847
-0.847,-0.406,-0.273,0.49,-1.13,-0.09,1784935348657.964
-0.849,-0.405,-0.274,0.15,-1.16,-0.03,1784935348671.19
-0.85,-0.406,-0.277,-0.37,-1.34,0.21,1784935348676.5872
-0.853,-0.405,-0.28,-1.13,-1.43,0.46,1784935348686.923
-0.855,-0.405,-0.279,-2.01,-1.65,0.89,1784935348697.312
-0.853,-0.406,-0.279,-2.87,-1.77,1.4,1784935348707.72
-0.851,-0.407,-0.278,-3.54,-1.83,1.56,1784935348717.987
-0.851,-0.406,-0.276,-4.15,-2.08,1.68,1784935348731.3752
-0.849,-0.406,-0.275,-4.52,-2.26,1.74,1784935348736.7703
-0.851,-0.406,-0.272,-5.04,-2.47,1.77,1784935348747.024
-0.857,-0.406,-0.272,-5.37,-2.78,1.62,1784935348757.3381
-0.857,-0.406,-0.276,-5.89,-3.2,1.86,1784935348767.761
-0.858,-0.406,-0.277,-6.81,-3.54,2.01,1784935348781.135
-0.858,-0.408,-0.277,-7.66,-3.75,2.32,1784935348786.56
-0.855,-0.41,-0.279,-8.67,-4.09,2.62,1784935348796.6877
-0.85,-0.41,-0.279,-9.61,-4.55,3.08,1784935348816.182
-0.847,-0.409,-0.283,-11.17,-4.85,3.78,1784935348817.4038
-0.838,-0.407,-0.286,-14.04,-5.1,4.64,1784935348827.847
-0.832,-0.409,-0.285,-18.37,-5.43,5.25,1784935348841.211
-0.828,-0.41,-0.286,-23.56,-5.62,5.83,1784935348846.793
-0.823,-0.416,-0.285,-28.17,-5.34,6.23,1784935348857.2878
-0.819,-0.42,-0.291,-31.77,-5.13,6.26,1784935348867.866
-0.818,-0.422,-0.294,-33.81,-4.36,6.1,1784935348881.084
-0.816,-0.425,-0.287,-34.09,-3.54,5.62,1784935348886.752
-0.812,-0.426,-0.287,-32.96,-2.93,5.19,1784935348897.4478
-0.806,-0.427,-0.287,-31.22,-3.05,5.01,1784935348907.7917
-0.802,-0.431,-0.29,-29.39,-4.09,4.7,1784935348917.771
-0.814,-0.424,-0.31,-29.08,-5.62,4.06,1784935348931.113
-0.832,-0.41,-0.327,-31.07,-6.78,3.3,1784935348937.233
-0.844,-0.4,-0.332,-35.19,-6.87,2.56,1784935348947.2693
-0.854,-0.405,-0.325,-40.74,-5.92,2.04,1784935348957.529
-0.855,-0.414,-0.304,-46.42,-5.01,1.65,1784935348968.216
-0.856,-0.42,-0.276,-50.45,-4.67,1.95,1784935348981.823
-0.852,-0.428,-0.257,-51.64,-4.43,2.53,1784935348987.1208
-0.833,-0.424,-0.249,-51.24,-4.97,2.72,1784935348997.531
-0.85,-0.419,-0.255,-50.84,-6.35,2.44,1784935349009.539
-0.851,-0.432,-0.279,-50.33,-6.96,1.8,1784935349018.036
-0.841,-0.433,-0.313,-52.19,-8.64,0.21,1784935349031.625
-0.837,-0.426,-0.361,-58.08,-11.05,-1.71,1784935349037.101
-0.842,-0.41,-0.392,-67.35,-12.54,-3.17,1784935349047.762
-0.852,-0.375,-0.392,-78.34,-14.56,-3.36,1784935349058.2888
-0.846,-0.334,-0.409,-89.36,-16.72,-0.85,1784935349071.436
-0.827,-0.346,-0.435,-100.41,-17.18,2.99,1784935349077.818
-0.806,-0.419,-0.492,-115.36,-17.24,4.7,1784935349087.882
-0.793,-0.491,-0.572,-135.78,-16.24,4.15,1784935349101.1628
-0.791,-0.533,-0.633,-154.45,-11.17,2.9,1784935349107.379
-0.799,-0.536,-0.673,-167.82,-4.21,1.46,1784935349120.6091
-0.793,-0.548,-0.684,-175.12,3.88,0.85,1784935349127.902
-0.794,-0.582,-0.679,-173.35,11.93,1.16,1784935349141.5732
-0.803,-0.625,-0.725,-161.32,17.82,0.18,1784935349146.894
-0.822,-0.65,-0.789,-141.58,23.29,-3.02,1784935349157.474
-0.824,-0.682,-0.829,-116.55,28.63,-7.02,1784935349168.711
-0.837,-0.722,-0.871,-90.21,34.67,-10.71,1784935349181.782
-0.825,-0.784,-0.915,-63.81,40.44,-11.02,1784935349188.114
-0.83,-0.805,-0.961,-41.57,46.54,-17.0,1784935349199.323
-0.853,-0.805,-0.983,-25.18,53.35,-25.45,1784935349211.067
-0.867,-0.796,-0.976,-12.91,59.36,-33.33,1784935349216.789
-0.87,-0.767,-0.983,-3.33,64.82,-41.38,1784935349227.794
-0.873,-0.742,-1.008,4.85,70.71,-49.07,1784935349238.2998
-0.889,-0.74,-1.039,11.2,77.09,-56.34,1784935349251.248
-0.921,-0.76,-1.051,17.82,84.75,-63.51,1784935349257.622
-0.957,-0.792,-1.021,28.47,92.44,-70.19,1784935349267.927
-0.986,-0.807,-0.979,42.36,98.27,-76.33,1784935349281.167
-1.025,-0.762,-0.925,56.79,101.32,-81.48,1784935349287.29
-1.059,-0.672,-0.851,71.96,102.18,-84.87,1784935349298.82
-1.073,-0.578,-0.784,86.89,101.41,-86.64,1784935349310.9272
-1.051,-0.51,-0.739,98.27,100.8,-87.56,1784935349316.662
-1.009,-0.493,-0.729,104.31,101.63,-89.39,1784935349327.768
-0.985,-0.536,-0.743,102.36,105.04,-93.72,1784935349340.823
-0.984,-0.602,-0.748,92.26,109.87,-100.56,1784935349346.8372
-0.996,-0.663,-0.754,78.77,114.05,-107.97,1784935349357.795
-1.01,-0.693,-0.753,66.81,117.74,-113.93,1784935349371.604
-1.021,-0.689,-0.737,55.76,119.82,-118.02,1784935349377.537
-1.01,-0.664,-0.724,44.8,119.21,-119.88,1784935349388.0552
-0.996,-0.65,-0.717,36.77,117.47,-120.61,1784935349401.739
-0.984,-0.633,-0.696,32.35,115.97,-121.07,1784935349408.242
-0.966,-0.616,-0.657,32.65,114.41,-121.16,1784935349421.143
-0.944,-0.596,-0.618,35.77,112.28,-120.12,1784935349427.1792
-0.91,-0.586,-0.597,37.05,109.93,-118.53,1784935349438.029
-0.879,-0.565,-0.581,33.75,108.13,-118.53,1784935349451.43
-0.839,-0.553,-0.574,25.73,106.42,-118.96,1784935349457.364
-0.806,-0.528,-0.597,13.03,104.71,-118.59,1784935349467.885
-0.776,-0.491,-0.59,0.21,104.25,-116.34,1784935349481.6538
-0.739,-0.507,-0.578,-6.96,104.4,-114.38,1784935349488.331
-0.712,-0.492,-0.509,-9.03,103.52,-114.29,1784935349498.309
-0.684,-0.446,-0.455,-2.81,100.59,-112.77,1784935349511.5981
-0.63,-0.46,-0.49,6.26,99.22,-110.14,1784935349517.46
-0.604,-0.513,-0.517,2.9,96.99,-110.23,1784935349527.805
-0.603,-0.523,-0.499,-12.88,93.36,-112.28,1784935349541.685
-0.563,-0.516,-0.47,-25.12,90.21,-110.87,1784935349547.345
-0.519,-0.526,-0.467,-28.02,87.19,-107.3,1784935349557.622
-0.487,-0.481,-0.464,-26.22,85.39,-104.43,1784935349571.423
-0.453,-0.451,-0.488,-20.51,84.69,-99.73,1784935349577.2979
-0.418,-0.43,-0.493,-16.45,83.9,-94.0,1784935349587.4062
-0.38,-0.371,-0.478,-13.92,80.84,-87.71,1784935349598.1729
-0.335,-0.307,-0.488,-12.57,75.96,-78.92,1784935349611.553
-0.302,-0.268,-0.496,-12.51,70.41,-69.92,1784935349617.09
-0.268,-0.276,-0.542,-17.4,64.91,-61.59,1784935349628.171
-0.237,-0.321,-0.579,-28.11,61.53,-52.13,1784935349641.4158
-0.219,-0.366,-0.579,-32.26,59.11,-45.53,1784935349648.952
-0.23,-0.371,-0.587,-31.98,57.65,-40.59,1784935349657.496
-0.227,-0.431,-0.533,-32.65,57.47,-33.54,1784935349671.525
-0.201,-0.478,-0.493,-28.23,53.93,-30.73,1784935349677.377
-0.179,-0.553,-0.454,-21.88,51.79,-27.86,1784935349687.207
-0.169,-0.588,-0.426,-9.8,47.91,-29.24,1784935349698.173
-0.138,-0.552,-0.434,4.43,42.15,-32.14,1784935349711.2332
-0.107,-0.509,-0.456,16.21,37.6,-32.72,1784935349716.819
-0.104,-0.477,-0.505,25.54,33.51,-32.84,1784935349728.202
-0.114,-0.449,-0.542,31.46,30.92,-30.88,1784935349738.197
-0.099,-0.419,-0.555,33.48,29.24,-27.8,1784935349751.334
-0.086,-0.392,-0.566,34.06,27.01,-24.48,1784935349756.98
-0.088,-0.372,-0.549,31.92,25.33,-20.54,1784935349768.1921
-0.079,-0.383,-0.514,28.08,22.06,-15.9,1784935349781.113
-0.071,-0.413,-0.531,26.31,17.82,-12.27,1784935349786.742
-0.068,-0.393,-0.529,20.33,14.56,-9.4,1784935349797.537
-0.049,-0.379,-0.529,11.69,11.32,-6.29,1784935349808.156
-0.049,-0.379,-0.529,3.51,8.24,-3.51,1784935349821.589
-0.03,-0.405,-0.538,-3.17,6.2,-2.62,1784935349827.2378
-0.022,-0.439,-0.557,-9.43,5.16,-3.14,1784935349837.056
-0.019,-0.46,-0.563,-15.11,3.94,-3.2,1784935349847.257
-0.012,-0.469,-0.563,-19.65,2.78,-3.23,1784935349857.7651
-0.011,-0.491,-0.564,-19.65,2.78,-3.23,1784935349871.374
-0.008,-0.513,-0.55,-22.98,1.98,-3.45,1784935349877.894
-0.01,-0.519,-0.552,-22.77,0.95,-3.63,1784935349886.921
-0.011,-0.519,-0.562,-19.1,-0.21,-3.57,1784935349897.4521
-0.001,-0.527,-0.573,-14.83,-1.43,-3.3,1784935349908.239
0.009,-0.531,-0.612,-10.99,-2.9,-3.05,1784935349921.215
-0.0,-0.54,-0.651,-8.39,-2.47,-3.45,1784935349926.625
-0.013,-0.56,-0.659,-7.29,-0.82,-4.7,1784935349936.8992
-0.018,-0.585,-0.665,-6.26,0.0,-6.59,1784935349947.28
-0.02,-0.601,-0.659,-4.3,1.1,-9.03,1784935349957.647
-0.014,-0.61,-0.652,-2.81,1.71,-12.09,1784935349968.239
-0.009,-0.628,-0.652,-1.13,1.46,-15.26,1784935349981.827
-0.015,-0.613,-0.649,1.56,1.37,-18.22,1784935349987.6963
-0.001,-0.599,-0.659,4.73,1.04,-19.87,1784935349997.241
-0.015,-0.585,-0.686,7.6,0.73,-21.0,1784935350007.7922
-0.049,-0.585,-0.689,10.16,1.8,-20.51,1784935350021.1301
-0.069,-0.596,-0.654,11.78,3.57,-19.87,1784935350027.4172
-0.091,-0.609,-0.607,14.53,4.27,-19.62,1784935350037.2368
-0.11,-0.62,-0.535,19.78,4.18,-18.74,1784935350047.7852
-0.114,-0.644,-0.49,27.01,1.77,-17.09,1784935350061.0571
-0.124,-0.676,-0.474,35.98,-1.53,-15.11,1784935350066.7378
-0.116,-0.689,-0.468,44.37,-4.52,-13.09,1784935350077.212
-0.097,-0.684,-0.518,54.23,-7.32,-12.18,1784935350087.776
-0.104,-0.676,-0.572,63.42,-7.02,-13.89,1784935350101.174
-0.092,-0.632,-0.58,65.0,-6.1,-18.25,1784935350106.85
-0.072,-0.563,-0.649,61.13,-7.75,-23.04,1784935350117.216
-0.065,-0.532,-0.651,53.53,-6.68,-25.03,1784935350127.785
-0.014,-0.509,-0.636,39.52,-8.45,-26.37,1784935350141.4102
0.022,-0.557,-0.744,23.04,-12.63,-25.85,1784935350146.7688
-0.01,-0.623,-0.799,7.87,-10.83,-25.42,1784935350158.1262
-0.054,-0.687,-0.827,-5.07,-7.29,-28.29,1784935350168.218
-0.073,-0.681,-0.827,-19.9,-5.28,-33.72,1784935350181.071
-0.078,-0.758,-0.846,-27.74,-0.55,-36.9,1784935350186.794
-0.048,-0.777,-0.768,-38.27,4.33,-43.49,1784935350197.227
-0.036,-0.79,-0.752,-43.98,6.2,-53.38,1784935350207.773
-0.005,-0.807,-0.689,-45.32,6.87,-60.49,1784935350221.101
0.047,-0.82,-0.784,-42.12,2.87,-65.68,1784935350227.4338
-0.02,-0.843,-0.899,-36.65,4.85,-69.8,1784935350237.186
-0.134,-0.851,-0.897,-33.85,11.35,-72.48,1784935350248.252
-0.18,-0.82,-0.887,-28.63,16.6,-73.76,1784935350261.428
-0.136,-0.778,-0.784,-19.78,22.43,-73.34,1784935350266.957
0.095,-0.755,-0.637,-10.99,22.8,-71.84,1784935350279.299
0.346,-0.782,-0.745,-0.24,15.84,-70.93,1784935350290.815
0.387,-0.781,-0.888,8.79,16.08,-69.28,1784935350296.722
0.357,-0.703,-0.999,16.45,21.06,-66.99,1784935350307.25
0.341,-0.579,-1.114,20.54,28.6,-62.56,1784935350318.055
0.307,-0.544,-1.131,15.59,41.69,-55.6,1784935350331.003
0.266,-0.6,-0.968,2.99,56.09,-49.23,1784935350336.722
0.258,-0.727,-0.77,-6.32,62.59,-42.91,1784935350347.2742
0.285,-0.859,-0.646,-6.38,61.53,-38.3,1784935350357.823
0.277,-0.918,-0.551,4.64,58.23,-37.05,1784935350371.114
0.253,-0.92,-0.474,25.18,52.55,-36.01,1784935350376.842
0.269,-0.852,-0.429,47.67,43.12,-36.53,1784935350387.954
0.292,-0.743,-0.469,65.31,31.98,-37.75,1784935350398.1462
0.303,-0.61,-0.557,70.77,22.98,-36.99,1784935350411.479
0.31,-0.517,-0.649,62.23,17.82,-34.12,1784935350417.1392
0.335,-0.487,-0.668,42.76,17.0,-30.3,1784935350427.9402
0.402,-0.486,-0.658,20.39,15.9,-25.7,1784935350441.095
0.459,-0.566,-0.637,3.3,15.05,-20.69,1784935350447.0051
0.451,-0.69,-0.577,-9.43,13.76,-19.17,1784935350457.574
0.439,-0.793,-0.509,-15.26,9.4,-21.67,1784935350467.8909
0.43,-0.869,-0.497,-11.54,2.62,-25.24,1784935350481.647
0.406,-0.862,-0.505,-4.12,-4.43,-30.4,1784935350487.5688
0.393,-0.804,-0.521,5.01,-11.93,-34.36,1784935350497.666
0.398,-0.762,-0.561,12.48,-19.35,-36.56,1784935350508.165
0.41,-0.725,-0.612,14.92,-24.9,-37.66,1784935350521.487
0.417,-0.721,-0.652,12.7,-26.83,-37.35,1784935350527.175
0.42,-0.757,-0.661,7.54,-27.38,-36.53,1784935350537.845
0.449,-0.79,-0.643,3.63,-28.08,-36.04,1784935350548.477
0.477,-0.797,-0.647,4.24,-29.42,-36.23,1784935350561.7568
0.479,-0.812,-0.664,6.84,-30.4,-36.77,1784935350567.762
0.498,-0.8,-0.639,8.42,-30.49,-38.3,1784935350577.8757
0.543,-0.745,-0.636,11.93,-30.7,-38.7,1784935350590.7148
0.579,-0.661,-0.653,14.01,-30.06,-37.63,1784935350596.52
0.597,-0.606,-0.65,12.6,-28.57,-35.16,1784935350608.285
0.601,-0.567,-0.644,8.58,-27.62,-31.62,1784935350618.231
0.613,-0.555,-0.65,5.92,-27.13,-27.5,1784935350631.433
0.629,-0.566,-0.672,5.49,-25.73,-24.29,1784935350636.974
0.631,-0.559,-0.674,6.01,-23.29,-21.94,1784935350647.212
0.642,-0.506,-0.676,6.53,-21.58,-19.59,1784935350658.1472
0.658,-0.47,-0.722,6.53,-19.65,-15.87,1784935350671.49
0.621,-0.52,-0.762,4.03,-15.53,-12.88,1784935350677.29
0.606,-0.523,-0.727,-1.46,-11.05,-11.75,1784935350687.233
0.6,-0.458,-0.724,-1.5,-8.09,-9.06,1784935350697.9219
0.52,-0.421,-0.754,0.12,-4.79,-4.61,1784935350708.332
0.435,-0.41,-0.806,-1.07,-1.13,0.61,1784935350721.615
0.362,-0.439,-0.872,-3.6,4.64,7.51,1784935350727.0242
0.311,-0.447,-0.866,-7.93,13.12,15.84,1784935350737.437
0.311,-0.442,-0.822,-11.72,21.82,26.03,1784935350747.8872
0.352,-0.456,-0.775,-15.81,31.25,37.23,1784935350761.229
0.406,-0.451,-0.696,-18.07,42.51,49.47,1784935350766.7441
0.456,-0.459,-0.564,-16.02,53.77,62.75,1784935350777.499
0.556,-0.535,-0.404,-10.47,60.12,74.43,1784935350788.48
0.675,-0.662,-0.25,-1.13,60.88,81.73,1784935350801.61
0.728,-0.798,-0.15,15.26,55.64,82.49,1784935350807.749
0.708,-0.841,-0.146,36.9,43.09,75.72,1784935350818.03
0.662,-0.764,-0.266,59.42,24.29,64.94,1784935350831.284
0.608,-0.58,-0.468,70.86,5.37,54.11,1784935350837.2979
0.591,-0.424,-0.68,63.72,-8.51,46.63,1784935350847.467
0.619,-0.345,-0.854,38.33,-15.96,41.41,1784935350857.836
0.668,-0.341,-0.927,3.97,-15.9,39.19,1784935350871.462
0.692,-0.433,-0.914,-29.73,-10.56,38.58,1784935350877.82
0.694,-0.573,-0.81,-56.79,-3.48,37.45,1784935350887.6648
0.666,-0.719,-0.679,-67.66,1.31,35.28,1784935350898.269
0.616,-0.836,-0.583,-59.76,3.23,31.77,1784935350911.448
0.567,-0.871,-0.526,-39.8,3.11,27.25,1784935350917.705
0.516,-0.831,-0.516,-15.63,1.83,22.34,1784935350928.0068
0.459,-0.777,-0.534,5.25,0.24,18.37,1784935350937.814
0.418,-0.715,-0.528,20.78,-1.16,16.6,1784935350951.458
0.391,-0.637,-0.531,31.28,-3.3,17.49,1784935350957.028
0.358,-0.546,-0.539,35.1,-5.28,19.41,1784935350967.6567
0.321,-0.485,-0.529,34.06,-7.51,23.19,1784935350978.203
0.293,-0.457,-0.499,29.39,-10.32,28.02,1784935350991.1812
0.283,-0.479,-0.469,23.47,-13.73,33.05,1784935350997.3801
0.281,-0.525,-0.417,17.88,-16.85,37.45,1784935351008.1038
0.296,-0.555,-0.359,16.94,-21.06,41.9,1784935351021.12
0.314,-0.588,-0.329,23.5,-26.12,46.48,1784935351026.8381
0.31,-0.611,-0.333,34.06,-31.37,50.11,1784935351037.2778
0.302,-0.565,-0.34,44.47,-36.65,52.4,1784935351048.236
0.319,-0.506,-0.329,57.01,-41.6,57.25,1784935351061.862
0.338,-0.477,-0.316,71.08,-45.59,64.27,1784935351067.113
0.33,-0.478,-0.293,84.84,-48.95,71.38,1784935351077.779
0.283,-0.525,-0.323,96.26,-51.94,78.46,1784935351091.151
0.23,-0.585,-0.344,101.72,-53.41,83.25,1784935351097.2532
0.23,-0.585,-0.344,104.16,-54.78,86.52,1784935351107.788
0.193,-0.633,-0.348,107.67,-55.97,90.06,1784935351120.689
0.168,-0.687,-0.412,113.5,-54.69,92.07,1784935351127.054
0.139,-0.798,-0.46,119.57,-51.91,92.04,1784935351137.8088
0.103,-0.911,-0.466,126.5,-48.49,92.59,1784935351150.8647
0.08,-0.989,-0.435,126.5,-48.49,92.59,1784935351156.98
0.069,-1.033,-0.37,135.9,-46.45,92.56,1784935351167.543
0.059,-1.008,-0.319,145.21,-46.21,93.42,1784935351181.16
0.034,-0.896,-0.303,151.8,-47.18,95.95,1784935351187.0662
0.011,-0.805,-0.359,154.55,-47.49,100.59,1784935351197.987
-0.016,-0.74,-0.414,145.39,-45.96,106.51,1784935351211.225
-0.048,-0.742,-0.462,127.87,-42.66,113.9,1784935351217.094
-0.08,-0.813,-0.483,106.05,-36.38,118.32,1784935351228.0671
-0.112,-0.872,-0.448,84.54,-29.94,116.0,1784935351241.236
-0.14,-0.945,-0.393,69.67,-25.21,113.01,1784935351247.868
-0.167,-1.032,-0.337,60.82,-21.33,111.24,1784935351257.8418
-0.194,-1.062,-0.276,57.41,-18.74,110.39,1784935351271.294
-0.199,-1.016,-0.181,64.46,-18.74,112.25,1784935351276.9668
-0.207,-0.986,-0.145,79.71,-20.51,116.98,1784935351287.851
-0.244,-0.962,-0.169,92.65,-20.17,120.46,1784935351303.968
-0.296,-0.916,-0.211,95.16,-18.56,122.75,1784935351307.731
-0.339,-0.915,-0.267,89.75,-16.27,125.49,1784935351317.7148
-0.389,-0.985,-0.324,80.69,-12.73,125.58,1784935351331.1018
-0.432,-1.064,-0.326,70.31,-7.97,123.66,1784935351337.25
-0.454,-1.124,-0.291,65.25,-4.15,120.82,1784935351347.7349
-0.46,-1.15,-0.245,67.23,-2.5,116.52,1784935351358.0579
-0.454,-1.118,-0.137,73.37,-1.95,114.17,1784935351371.563
-0.45,-1.029,-0.041,88.35,-3.88,114.72,1784935351377.587
-0.432,-0.958,0.003,108.22,-5.49,119.39,1784935351388.021
-0.418,-0.972,0.02,126.77,-4.18,122.71,1784935351401.3728
-0.412,-1.094,-0.043,138.86,2.5,120.4,1784935351407.532
-0.427,-1.24,-0.081,141.21,15.11,111.76,1784935351418.102
-0.475,-1.298,-0.142,137.49,23.87,100.5,1784935351431.6091
-0.522,-1.193,-0.215,127.26,30.64,89.79,1784935351437.102
-0.578,-1.05,-0.218,114.44,37.14,81.21,1784935351456.029
-0.633,-0.893,-0.138,98.94,40.83,77.82,1784935351461.214
-0.661,-0.815,-0.109,84.08,39.95,77.36,1784935351467.1091
-0.655,-0.832,-0.111,65.86,38.45,73.89,1784935351477.7961
-0.645,-0.824,-0.065,42.27,38.03,68.54,1784935351492.1118
-0.619,-0.802,-0.013,22.4,35.37,67.48,1784935351497.064
-0.596,-0.77,0.011,12.51,31.16,69.86,1784935351507.7068
-0.57,-0.756,0.002,12.12,28.11,73.03,1784935351518.412
-0.565,-0.745,-0.011,12.6,26.61,76.14,1784935351531.459
-0.574,-0.738,0.012,10.99,27.13,80.84,1784935351537.646
-0.602,-0.731,0.052,8.12,28.32,86.76,1784935351548.095
-0.618,-0.699,0.106,4.3,28.69,92.14,1784935351561.347
-0.664,-0.663,0.145,0.73,28.26,96.93,1784935351567.0479
-0.653,-0.708,0.155,-2.9,27.83,103.27,1784935351577.538
-0.674,-0.734,0.144,-5.68,29.36,100.77,1784935351588.1072
-0.681,-0.771,0.104,-7.02,30.58,97.08,1784935351601.244
-0.711,-0.776,0.085,-9.58,32.2,91.59,1784935351607.1602
-0.734,-0.791,0.074,-10.28,33.54,89.36,1784935351617.66
-0.744,-0.786,0.065,-10.22,34.03,87.19,1784935351628.163
-0.748,-0.764,0.061,-10.07,34.24,85.15,1784935351641.553
-0.759,-0.742,0.049,-9.8,33.63,84.51,1784935351648.183
-0.767,-0.72,0.036,-10.8,32.41,85.97,1784935351657.824
-0.768,-0.683,-0.0,-13.79,30.34,89.05,1784935351670.893
-0.776,-0.654,-0.052,-19.01,28.08,92.93,1784935351680.865
-0.791,-0.649,-0.127,-25.94,25.82,95.34,1784935351687.443
-0.817,-0.638,-0.184,-39.55,25.33,96.84,1784935351698.056
-0.853,-0.64,-0.199,-54.35,25.36,96.68,1784935351711.4438
-0.894,-0.637,-0.185,-68.45,24.29,95.86,1784935351717.7532
-0.923,-0.634,-0.191,-80.97,23.5,96.1,1784935351727.9448
-0.932,-0.646,-0.177,-90.98,23.96,96.13,1784935351741.2422
-0.94,-0.656,-0.136,-97.45,24.17,94.76,1784935351747.393
-0.934,-0.686,-0.077,-95.95,23.35,93.78,1784935351757.507
-0.954,-0.795,-0.022,-79.99,22.71,90.58,1784935351768.0461
-1.013,-0.901,0.04,-53.77,19.65,83.8,1784935351782.282
-1.056,-0.969,0.08,-19.53,15.17,75.53,1784935351787.247
-1.103,-0.995,0.097,19.1,9.77,67.38,1784935351799.263
-1.103,-0.989,0.077,55.82,2.75,58.6,1784935351808.1548
-1.06,-0.851,0.046,80.42,-5.07,48.89,1784935351821.345
-1.012,-0.666,-0.005,92.23,-12.36,41.75,1784935351827.057
-0.945,-0.592,-0.121,95.86,-17.49,35.62,1784935351837.713
-0.897,-0.533,-0.207,89.02,-19.44,26.46,1784935351850.968
-0.855,-0.47,-0.211,74.89,-18.65,19.32,1784935351856.727
-0.804,-0.476,-0.178,61.8,-14.77,16.17,1784935351867.985
-0.766,-0.52,-0.118,48.59,-10.13,15.08,1784935351878.101
-0.747,-0.577,-0.044,35.71,-6.59,13.95,1784935351891.283
-0.729,-0.646,0.009,27.5,-4.46,12.09,1784935351896.873
-0.717,-0.67,0.028,25.64,-3.02,8.94,1784935351907.359
-0.695,-0.658,0.025,29.73,-1.43,6.47,1784935351917.83
-0.704,-0.638,0.002,36.07,0.55,3.72,1784935351931.592
-0.725,-0.608,-0.024,39.74,2.01,1.83,1784935351936.591
-0.74,-0.595,-0.047,42.3,3.54,1.65,1784935351947.204
-0.749,-0.596,-0.06,43.21,5.01,1.95,1784935351957.554
-0.762,-0.593,-0.065,41.72,5.86,1.77,1784935351968.235
-0.769,-0.579,-0.073,38.12,6.13,1.71,1784935351981.5413
-0.775,-0.563,-0.078,31.77,6.07,1.59,1784935351987.5251
-0.786,-0.549,-0.083,22.83,5.52,0.64,1784935351997.2632
-0.795,-0.533,-0.084,12.3,4.73,-0.85,1784935352013.259
-0.806,-0.526,-0.07,1.68,4.33,-2.26,1784935352018.2778
-0.819,-0.529,-0.048,-6.84,4.06,-3.11,1784935352031.605
-0.835,-0.529,-0.023,-11.69,3.54,-3.2,1784935352037.6948
-0.842,-0.522,-0.01,-13.52,2.81,-3.33,1784935352047.2031
-0.849,-0.509,-0.008,-13.76,2.08,-3.78,1784935352057.939
-0.859,-0.501,-0.007,-13.03,1.77,-4.36,1784935352068.4019
-0.865,-0.492,-0.008,-12.54,1.46,-4.79,1784935352081.752
-0.867,-0.486,0.004,-12.24,1.34,-4.49,1784935352087.789
-0.869,-0.489,0.004,-10.53,1.07,-4.03,1784935352097.568
-0.864,-0.483,0.002,-7.66,1.01,-3.33,1784935352107.8457
-0.863,-0.477,-0.0,-4.3,0.61,-2.69,1784935352118.449
-0.866,-0.463,-0.014,-1.92,0.06,-2.23,1784935352131.608
-0.866,-0.464,-0.028,0.64,-0.06,-1.68,1784935352136.874
-0.868,-0.467,-0.035,2.11,-0.46,-1.46,1784935352147.0652
-0.874,-0.471,-0.032,2.17,-0.92,-1.13,1784935352157.4312
-0.864,-0.496,-0.03,1.89,-1.34,-0.61,1784935352168.0132
-0.871,-0.479,-0.031,-0.31,-1.95,-1.19,1784935352178.3108
-0.881,-0.48,-0.038,-1.25,-2.47,0.61,1784935352191.6711
-0.871,-0.49,-0.05,-1.56,-2.78,3.3,1784935352197.649
-0.855,-0.488,-0.061,-3.72,-3.05,5.01,1784935352207.1482
-0.851,-0.496,-0.065,-8.39,-2.93,5.95,1784935352217.688
-0.851,-0.521,-0.057,-14.34,-2.78,5.92,1784935352228.22
-0.848,-0.547,-0.047,-19.62,-2.84,5.71,1784935352241.454
-0.847,-0.557,-0.04,-23.74,-3.17,5.37,1784935352247.316
-0.843,-0.551,-0.041,-26.09,-3.66,5.19,1784935352257.3882
-0.834,-0.543,-0.053,-26.28,-4.06,5.13,1784935352267.6611
-0.828,-0.538,-0.066,-25.24,-4.3,4.79,1784935352278.126
-0.83,-0.55,-0.071,-23.74,-4.03,4.24,1784935352291.418
-0.83,-0.566,-0.071,-22.03,-3.45,3.45,1784935352297.197
-0.826,-0.564,-0.067,-20.33,-3.08,2.84,1784935352307.522
-0.826,-0.563,-0.067,-18.19,-2.75,2.23,1784935352318.154
-0.825,-0.556,-0.072,-16.42,-2.66,1.43,1784935352331.27
-0.819,-0.548,-0.076,-14.98,-2.44,0.89,1784935352337.091
-0.817,-0.544,-0.08,-13.52,-2.17,0.09,1784935352347.032
-0.814,-0.537,-0.085,-11.72,-1.77,-0.76,1784935352357.456
-0.815,-0.54,-0.089,-10.04,-1.19,-1.53,1784935352368.458
-0.821,-0.534,-0.089,-9.61,-0.82,-2.41,1784935352381.47
-0.823,-0.528,-0.084,-9.25,-0.4,-2.75,1784935352387.1182
-0.823,-0.528,-0.084,-8.82,-0.12,-2.93,1784935352396.957
-0.821,-0.527,-0.083,-8.48,0.0,-3.51,1784935352407.405
-0.824,-0.527,-0.084,-8.09,0.24,-4.24,1784935352417.794
-0.834,-0.531,-0.081,-7.45,0.55,-5.22,1784935352428.1777
-0.854,-0.537,-0.065,-5.77,0.7,-5.8,1784935352441.27
-0.882,-0.543,-0.028,-5.77,0.7,-5.8,1784935352446.7927
-0.907,-0.564,-0.003,-1.68,0.12,-5.16,1784935352457.043
-0.889,-0.604,0.014,4.43,-0.43,-4.36,1784935352467.417
-0.86,-0.611,0.032,11.72,-0.95,-4.39,1784935352478.3489
-0.844,-0.582,0.014,20.6,-1.37,-4.43,1784935352488.4382
-0.839,-0.561,-0.013,29.15,-1.65,-4.49,1784935352501.91
-0.829,-0.533,-0.031,33.14,-2.04,-5.34,1784935352507.1812
-0.807,-0.51,-0.061,31.89,-2.59,-5.68,1784935352517.62
-0.799,-0.515,-0.079,25.7,-2.53,-5.8,1784935352528.632
-0.794,-0.517,-0.077,15.69,-2.23,-6.5,1784935352541.27
-0.785,-0.516,-0.068,5.04,-2.29,-6.96,1784935352547.1821
-0.784,-0.51,-0.059,-4.7,-2.78,-7.35,1784935352556.7942
-0.789,-0.508,-0.059,-11.99,-3.33,-7.69,1784935352567.6182
-0.794,-0.507,-0.054,-16.97,-3.33,-7.84,1784935352578.032
-0.8,-0.493,-0.053,-20.72,-3.42,-7.69,1784935352591.182
-0.805,-0.488,-0.063,-22.98,-3.81,-6.81,1784935352597.004
-0.815,-0.491,-0.067,-24.54,-3.75,-5.98,1784935352607.018
-0.827,-0.499,-0.061,-24.72,-3.42,-5.37,1784935352617.6838
-0.83,-0.5,-0.052,-23.56,-3.23,-4.82,1784935352628.2803
-0.829,-0.495,-0.049,-21.82,-3.45,-4.36,1784935352641.422
-0.828,-0.486,-0.053,-20.02,-3.69,-3.91,1784935352647.317
-0.827,-0.475,-0.058,-18.01,-3.75,-3.3,1784935352657.313
-0.83,-0.468,-0.057,-15.87,-3.54,-2.87,1784935352668.001
-0.83,-0.463,-0.054,-14.1,-3.23,-2.38,1784935352686.74
-0.834,-0.462,-0.049,-12.63,-3.02,-2.38,1784935352691.175
-0.839,-0.461,-0.04,-11.51,-3.02,-2.47,1784935352696.78
-0.851,-0.459,-0.032,-10.25,-3.27,-1.92,1784935352707.139
-0.839,-0.478,-0.036,-8.18,-3.88,-0.67,1784935352717.5159
-0.869,-0.459,-0.047,-6.59,-4.03,-1.37,1784935352727.814
-0.862,-0.461,-0.06,-7.08,-4.82,0.7,1784935352741.7258
-0.872,-0.465,-0.059,-7.93,-5.01,1.53,1784935352746.839
-0.873,-0.479,-0.065,-7.39,-5.77,2.87,1784935352756.959
-0.874,-0.478,-0.068,-7.11,-6.29,2.93,1784935352767.4182
-0.877,-0.48,-0.076,-7.57,-6.87,3.42,1784935352777.89
-0.868,-0.486,-0.083,-9.28,-7.26,3.48,1784935352788.2559
-0.865,-0.487,-0.084,-10.5,-7.14,3.14,1784935352801.3198
-0.867,-0.493,-0.1,-11.08,-7.08,3.14,1784935352807.42
-0.865,-0.507,-0.116,-11.05,-6.56,3.2,1784935352817.4841
-0.859,-0.514,-0.116,-11.26,-5.52,3.2,1784935352827.784
-0.849,-0.52,-0.12,-11.2,-4.33,3.45,1784935352838.1628
-0.841,-0.531,-0.121,-10.77,-2.99,3.69,1784935352851.753
-0.83,-0.539,-0.113,-10.25,-1.77,3.88,1784935352857.186
-0.818,-0.544,-0.103,-9.46,-0.92,3.85,1784935352867.5078
-0.815,-0.544,-0.098,-7.54,-0.43,3.66,1784935352877.8481
-0.81,-0.542,-0.097,-4.94,-0.4,3.57,1784935352887.9458
-0.808,-0.536,-0.107,-3.05,-0.43,2.87,1784935352901.7742
-0.805,-0.531,-0.115,-2.5,-0.49,2.01,1784935352906.824
-0.814,-0.523,-0.12,-2.69,-0.34,0.92,1784935352917.1252
-0.821,-0.528,-0.118,-3.08,-0.15,0.52,1784935352927.4038
-0.83,-0.53,-0.11,-3.97,0.31,-0.06,1784935352938.03
-0.835,-0.528,-0.1,-3.85,0.79,-0.03,1784935352948.3591
-0.841,-0.531,-0.087,-3.17,1.25,-0.15,1784935352961.7258
-0.851,-0.528,-0.073,-2.66,1.53,-0.24,1784935352967.078
-0.851,-0.526,-0.061,-1.8,1.71,0.24,1784935352977.222
-0.85,-0.525,-0.059,-0.46,1.77,0.43,1784935352987.626
-0.853,-0.523,-0.057,1.16,1.65,0.31,1784935352998.066
-0.855,-0.521,-0.051,2.23,1.62,0.18,1784935353008.56
-0.854,-0.52,-0.049,3.27,1.5,0.34,1784935353021.461
-0.852,-0.515,-0.049,4.18,1.13,0.82,1784935353027.0999
-0.853,-0.511,-0.052,4.7,0.37,1.16,1784935353037.06
-0.85,-0.511,-0.055,4.33,-0.15,1.43,1784935353047.518
-0.846,-0.504,-0.053,3.02,-0.55,1.65,1784935353057.9531
-0.84,-0.501,-0.05,1.62,-0.89,2.2,1784935353071.0989
-0.838,-0.508,-0.05,0.09,-1.19,2.32,1784935353076.633
-0.839,-0.51,-0.049,-2.01,-1.25,2.01,1784935353087.4119
-0.835,-0.509,-0.046,-3.85,-1.53,1.98,1784935353097.207
-0.833,-0.514,-0.04,-4.73,-1.86,2.14,1784935353107.7139
-0.833,-0.522,-0.036,-4.52,-2.17,1.89,1784935353117.8948
-0.834,-0.523,-0.039,-3.42,-2.59,1.71,1784935353131.213
-0.835,-0.523,-0.049,-1.95,-3.2,1.62,1784935353136.8508
-0.836,-0.521,-0.056,-1.16,-3.45,1.31,1784935353146.942
-0.838,-0.521,-0.062,-1.1,-3.63,0.92,1784935353157.175
-0.838,-0.522,-0.064,-1.37,-3.88,0.64,1784935353167.668
-0.839,-0.526,-0.064,-1.74,-4.0,0.21,1784935353178.245
-0.84,-0.528,-0.066,-2.29,-4.33,-0.27,1784935353191.4827
-0.842,-0.528,-0.068,-2.66,-4.61,-0.58,1784935353196.9102
-0.843,-0.528,-0.071,-2.47,-4.76,-0.85,1784935353207.108
-0.844,-0.53,-0.076,-1.95,-4.73,-1.19,1784935353217.502
-0.844,-0.527,-0.082,-1.4,-4.79,-1.56,1784935353227.793
-0.847,-0.529,-0.088,-0.89,-4.79,-1.62,1784935353237.994
-0.849,-0.531,-0.089,-0.7,-4.3,-1.56,1784935353251.372
-0.849,-0.531,-0.085,-0.43,-3.97,-1.4,1784935353257.239
-0.846,-0.527,-0.082,-0.09,-3.81,-1.1,1784935353267.2053
-0.846,-0.526,-0.087,0.18,-3.6,-0.76,1784935353277.823
-0.846,-0.526,-0.089,0.43,-3.08,-0.31,1784935353287.672
-0.845,-0.528,-0.088,0.15,-2.62,-0.03,1784935353302.8792
-0.842,-0.529,-0.085,-0.55,-2.29,0.15,1784935353311.466
-0.84,-0.531,-0.08,-1.43,-1.92,0.21,1784935353316.9082
-0.838,-0.533,-0.073,-1.86,-1.74,0.0,1784935353327.488
-0.839,-0.535,-0.064,-2.08,-1.56,-0.06,1784935353337.671
-0.843,-0.531,-0.055,-2.5,-1.65,-0.24,1784935353348.0242
-0.843,-0.525,-0.045,-2.99,-1.65,0.0,1784935353358.167
-0.843,-0.522,-0.041,-3.63,-1.74,0.15,1784935353371.421
-0.842,-0.525,-0.037,-5.37,-1.98,0.06,1784935353377.127
-0.839,-0.53,-0.032,-7.6,-2.41,0.06,1784935353387.295
-0.83,-0.533,-0.028,-9.52,-2.84,-0.27,1784935353397.7402
-0.833,-0.532,-0.026,-11.05,-3.54,-0.64,1784935353408.56
-0.827,-0.539,-0.027,-12.3,-4.55,-1.16,1784935353421.3308
-0.826,-0.544,-0.025,-12.48,-5.25,-2.14,1784935353427.383
-0.827,-0.541,-0.028,-11.08,-6.26,-3.54,1784935353437.4678
-0.829,-0.535,-0.039,-8.73,-6.87,-4.79,1784935353447.787
-0.83,-0.528,-0.048,-6.56,-7.11,-5.74,1784935353458.115
-0.825,-0.521,-0.054,-4.52,-7.11,-6.32,1784935353471.332
-0.825,-0.52,-0.061,-2.59,-6.87,-6.65,1784935353476.792
-0.829,-0.516,-0.066,-0.92,-6.56,-6.81,1784935353487.06
-0.83,-0.508,-0.065,0.73,-6.2,-6.71,1784935353497.3691
-0.83,-0.501,-0.075,2.14,-5.77,-6.2,1784935353507.838
