ax,ay,az,gx,gy,gz,timestamp_ms
-0.839,-0.416,-0.267,-2.75,0.98,-0.67,1784935675655.28
-0.834,-0.413,-0.261,-1.8,0.98,-1.59,1784935675788.502
-0.833,-0.408,-0.259,-0.37,0.95,-2.66,1784935675788.723
-0.835,-0.402,-0.259,1.01,0.7,-3.72,1784935675788.9412
-0.841,-0.396,-0.264,1.86,0.67,-4.46,1784935675789.154
-0.848,-0.39,-0.267,1.89,0.61,-5.13,1784935675789.3728
-0.854,-0.384,-0.267,1.37,0.4,-5.43,1784935675789.565
-0.856,-0.382,-0.266,0.76,0.18,-5.01,1784935675789.7698
-0.859,-0.381,-0.263,0.21,-0.12,-3.97,1784935675789.98
-0.86,-0.381,-0.261,-0.21,-0.27,-2.69,1784935675790.177
-0.861,-0.383,-0.259,-0.52,-0.55,-1.25,1784935675790.3809
-0.865,-0.387,-0.263,-0.89,-0.7,0.37,1784935675790.588
-0.869,-0.392,-0.268,-1.56,-0.85,1.89,1784935675790.792
-0.871,-0.394,-0.271,-2.47,-0.85,3.17,1784935675790.986
-0.868,-0.399,-0.273,-3.48,-0.92,4.43,1784935675791.1858
-0.866,-0.404,-0.279,-4.52,-0.98,5.19,1784935675791.379
-0.86,-0.413,-0.284,-5.55,-1.01,5.31,1784935675791.57
-0.853,-0.418,-0.284,-6.32,-0.79,5.01,1784935675791.767
-0.844,-0.423,-0.278,-6.38,-0.46,4.06,1784935675791.9622
-0.839,-0.426,-0.276,-5.71,-0.31,2.81,1784935675792.151
-0.834,-0.428,-0.275,-4.52,-0.37,1.46,1784935675792.395
-0.833,-0.425,-0.278,-3.17,-0.43,-0.09,1784935675792.65
-0.838,-0.42,-0.283,-1.77,-0.37,-1.5,1784935675792.851
-0.842,-0.415,-0.286,-0.49,-0.27,-2.56,1784935675793.1199
-0.846,-0.414,-0.289,0.34,-0.12,-3.2,1784935675793.35
-0.852,-0.411,-0.289,0.7,0.15,-3.45,1784935675793.665
-0.857,-0.408,-0.286,1.01,0.24,-3.08,1784935675793.892
-0.86,-0.405,-0.283,1.31,0.4,-2.32,1784935675794.145
-0.862,-0.402,-0.278,1.5,0.61,-1.43,1784935675794.36
-0.862,-0.401,-0.274,1.46,0.64,-0.43,1784935675794.569
-0.863,-0.401,-0.273,0.95,0.67,0.46,1784935675794.808
-0.863,-0.398,-0.271,-0.09,0.58,0.98,1784935675795.0232
-0.86,-0.402,-0.269,-1.19,0.52,1.22,1784935675795.276
-0.857,-0.404,-0.265,-2.04,0.34,1.4,1784935675795.5068
-0.855,-0.406,-0.263,-2.66,0.12,1.25,1784935675795.722
-0.85,-0.406,-0.259,-3.14,-0.06,0.82,1784935675795.923
-0.846,-0.404,-0.255,-3.27,-0.43,0.4,1784935675796.111
-0.845,-0.402,-0.252,-2.78,-0.76,-0.34,1784935675796.302
-0.845,-0.4,-0.251,-2.11,-0.95,-0.82,1784935675796.4922
-0.842,-0.399,-0.254,-1.22,-1.25,-1.34,1784935675796.68
-0.844,-0.395,-0.257,-0.24,-1.37,-1.77,1784935675796.8728
-0.846,-0.392,-0.26,0.64,-1.59,-1.68,1784935675797.0713
-0.852,-0.393,-0.266,1.19,-1.65,-1.5,1784935675797.261
-0.856,-0.392,-0.268,1.37,-1.95,-1.22,1784935675797.4558
-0.861,-0.39,-0.272,1.22,-2.2,-0.79,1784935675797.655
-0.864,-0.391,-0.276,0.76,-2.29,-0.09,1784935675797.843
-0.865,-0.394,-0.282,0.24,-2.41,0.52,1784935675798.035
-0.866,-0.397,-0.286,-0.27,-2.53,1.01,1784935675798.2312
-0.862,-0.401,-0.291,-0.79,-2.44,1.62,1784935675798.416
-0.86,-0.399,-0.295,-1.22,-2.32,1.95,1784935675798.6162
-0.855,-0.401,-0.296,-1.56,-2.04,2.01,1784935675798.813
-0.852,-0.405,-0.296,-1.98,-1.8,1.92,1784935675799.004
-0.854,-0.405,-0.294,-2.11,-1.65,1.68,1784935675799.19
-0.853,-0.407,-0.295,-2.23,-1.37,1.31,1784935675799.387
-0.847,-0.404,-0.295,-2.23,-1.19,1.13,1784935675799.584
-0.841,-0.407,-0.295,-1.8,-0.76,0.89,1784935675799.768
-0.843,-0.406,-0.292,-1.31,-0.61,0.37,1784935675799.9602
-0.846,-0.4,-0.285,-0.67,-0.76,0.21,1784935675800.1511
-0.851,-0.399,-0.286,-0.09,-0.7,0.15,1784935675800.337
-0.854,-0.399,-0.29,-0.03,-0.4,0.06,1784935675800.5278
-0.852,-0.396,-0.287,-0.12,-0.27,0.31,1784935675800.737
-0.852,-0.396,-0.279,0.03,-0.18,0.82,1784935675800.9338
-0.856,-0.395,-0.273,0.12,-0.12,1.43,1784935675801.1301
-0.857,-0.397,-0.268,0.21,-0.03,2.04,1784935675801.326
-0.859,-0.4,-0.261,0.37,0.15,2.62,1784935675801.52
-0.857,-0.403,-0.258,0.79,0.15,2.99,1784935675801.708
-0.861,-0.405,-0.257,1.07,-0.09,3.17,1784935675801.9001
-0.862,-0.406,-0.257,0.85,-0.27,3.27,1784935675802.094
-0.861,-0.41,-0.255,0.49,-0.43,3.11,1784935675802.279
-0.86,-0.413,-0.254,0.09,-0.76,2.84,1784935675802.47
-0.857,-0.416,-0.255,-0.37,-1.01,2.35,1784935675802.6682
-0.857,-0.417,-0.256,-0.92,-1.46,1.77,1784935675802.856
-0.855,-0.417,-0.259,-1.22,-1.86,1.01,1784935675803.051
-0.854,-0.417,-0.263,-1.53,-2.04,0.34,1784935675803.2441
-0.854,-0.417,-0.264,-1.89,-2.14,-0.31,1784935675803.43
-0.851,-0.416,-0.267,-2.01,-2.23,-0.89,1784935675803.621
-0.852,-0.413,-0.27,-1.86,-2.23,-1.25,1784935675803.8132
-0.853,-0.411,-0.273,-1.59,-2.14,-1.62,1784935675804.003
-0.852,-0.412,-0.277,-1.37,-2.17,-1.86,1784935675804.191
-0.853,-0.412,-0.281,-1.22,-2.08,-2.08,1784935675804.385
-0.854,-0.408,-0.285,-1.37,-2.08,-2.38,1784935675804.5818
-0.854,-0.404,-0.287,-1.77,-1.92,-2.66,1784935675804.77
-0.856,-0.403,-0.284,-1.98,-1.77,-2.72,1784935675804.9631
-0.859,-0.402,-0.284,-2.17,-1.74,-2.81,1784935675805.155
-0.86,-0.401,-0.286,-2.44,-1.74,-2.99,1784935675805.344
-0.86,-0.397,-0.289,-2.66,-1.62,-2.96,1784935675805.539
-0.86,-0.396,-0.288,-2.75,-1.43,-2.99,1784935675805.732
-0.86,-0.396,-0.286,-2.62,-1.19,-2.93,1784935675805.922
-0.86,-0.395,-0.287,-2.41,-0.95,-2.72,1784935675806.1372
-0.86,-0.393,-0.285,-1.95,-0.79,-2.44,1784935675806.3318
-0.858,-0.392,-0.286,-1.46,-0.49,-2.2,1784935675806.52
-0.858,-0.391,-0.286,-1.22,-0.31,-2.08,1784935675806.7122
-0.858,-0.391,-0.286,-1.07,-0.15,-1.77,1784935675806.9102
-0.858,-0.39,-0.285,-0.95,-0.03,-1.53,1784935675807.111
-0.859,-0.389,-0.287,-0.89,0.15,-1.43,1784935675807.2952
-0.858,-0.387,-0.285,-0.73,0.31,-1.22,1784935675807.5059
-0.86,-0.389,-0.284,-0.73,0.31,-1.22,1784935675807.695
-0.859,-0.389,-0.282,-0.46,0.37,-1.07,1784935675807.88
-0.858,-0.388,-0.282,-0.12,0.37,-0.89,1784935675808.0693
-0.858,-0.388,-0.281,0.09,0.37,-0.82,1784935675808.258
-0.858,-0.387,-0.28,0.34,0.49,-0.64,1784935675808.4421
-0.858,-0.386,-0.282,0.55,0.61,-0.4,1784935675808.632
-0.857,-0.385,-0.279,0.79,0.55,-0.27,1784935675808.819
-0.856,-0.386,-0.278,1.13,0.76,-0.03,1784935675809.011
-0.855,-0.387,-0.275,1.46,0.85,0.24,1784935675809.212
-0.856,-0.387,-0.274,1.59,0.85,0.55,1784935675809.4011
-0.856,-0.387,-0.276,1.68,0.76,0.95,1784935675809.624
-0.855,-0.388,-0.279,1.56,0.82,1.19,1784935675809.809
-0.856,-0.389,-0.277,1.59,0.95,1.59,1784935675809.998
-0.853,-0.392,-0.277,1.59,0.95,1.95,1784935675810.206
-0.852,-0.393,-0.276,1.56,0.98,2.2,1784935675810.413
-0.853,-0.395,-0.274,1.46,0.89,2.53,1784935675810.652
-0.853,-0.398,-0.278,1.34,0.95,2.62,1784935675810.869
-0.857,-0.399,-0.278,1.19,0.92,2.75,1784935675811.1309
-0.858,-0.398,-0.276,1.04,0.92,2.75,1784935675811.3433
-0.858,-0.4,-0.275,0.82,0.95,2.75,1784935675811.5562
-0.856,-0.403,-0.275,0.76,0.85,2.81,1784935675811.793
-0.859,-0.406,-0.277,0.7,0.76,2.69,1784935675811.9978
-0.857,-0.405,-0.279,0.73,0.7,2.72,1784935675812.191
-0.856,-0.407,-0.276,0.92,0.67,2.69,1784935675812.386
-0.855,-0.408,-0.273,1.13,0.73,2.59,1784935675812.572
-0.855,-0.407,-0.276,1.19,0.7,2.47,1784935675812.764
-0.855,-0.406,-0.277,1.28,0.61,2.41,1784935675812.9548
-0.855,-0.406,-0.276,1.01,0.76,2.26,1784935675813.142
-0.854,-0.407,-0.277,0.92,0.73,2.29,1784935675813.335
-0.854,-0.409,-0.278,0.76,0.73,2.2,1784935675813.532
-0.854,-0.409,-0.275,0.64,0.73,2.01,1784935675813.725
-0.856,-0.408,-0.276,0.49,0.76,1.92,1784935675813.909
-0.857,-0.409,-0.277,0.34,0.7,1.83,1784935675814.105
-0.857,-0.409,-0.275,0.18,0.67,1.89,1784935675814.2988
-0.856,-0.408,-0.274,0.0,0.67,1.65,1784935675814.485
-0.856,-0.41,-0.274,-0.09,0.58,1.53,1784935675814.678
-0.856,-0.41,-0.275,-0.21,0.43,1.4,1784935675814.875
-0.857,-0.409,-0.275,-0.37,0.46,1.16,1784935675815.0662
-0.859,-0.41,-0.279,-0.43,0.49,0.76,1784935675815.258
-0.859,-0.41,-0.277,-0.55,0.4,0.55,1784935675815.449
-0.86,-0.41,-0.278,-0.52,0.4,0.49,1784935675815.635
-0.861,-0.409,-0.278,-0.46,0.37,0.55,1784935675815.83
-0.86,-0.409,-0.28,-0.64,0.37,0.52,1784935675816.0261
-0.861,-0.41,-0.283,-0.82,0.43,0.46,1784935675816.215
-0.858,-0.411,-0.282,-0.82,0.61,0.27,1784935675816.4192
-0.855,-0.412,-0.276,-0.92,0.58,0.21,1784935675816.614
-0.854,-0.409,-0.275,-1.1,0.43,0.15,1784935675816.822
-0.856,-0.408,-0.275,-1.37,0.43,-0.03,1784935675817.025
-0.864,-0.401,-0.258,-2.01,0.0,-0.15,1784935675817.217
-0.865,-0.373,-0.229,-4.15,-1.86,0.21,1784935675817.413
-0.85,-0.365,-0.235,-7.32,-3.94,1.1,1784935675817.597
-0.865,-0.382,-0.265,-11.14,-4.79,1.62,1784935675817.8071
-0.852,-0.39,-0.287,-16.72,-5.13,2.23,1784935675818.0217
-0.828,-0.422,-0.292,-17.33,-2.93,0.92,1784935675818.209
-0.854,-0.443,-0.293,-11.17,-0.34,-1.56,1784935675818.4043
-0.866,-0.43,-0.305,-2.72,0.7,-1.59,1784935675818.5999
-0.868,-0.424,-0.309,5.49,1.31,-1.5,1784935675818.787
-0.867,-0.416,-0.32,9.16,0.85,-2.62,1784935675818.978
-0.864,-0.428,-0.337,8.82,1.46,-3.3,1784935675819.189
-0.867,-0.427,-0.33,6.38,1.74,-3.78,1784935675819.384
-0.858,-0.428,-0.319,4.82,1.68,-4.43,1784935675819.5698
-0.85,-0.433,-0.305,3.39,2.53,-5.58,1784935675819.763
-0.856,-0.419,-0.282,1.53,2.53,-7.2,1784935675819.9548
-0.857,-0.4,-0.271,-0.64,1.65,-8.24,1784935675820.1433
-0.851,-0.393,-0.262,-2.44,1.43,-8.36,1784935675820.3782
-0.85,-0.39,-0.255,-2.72,1.86,-8.03,1784935675820.589
-0.85,-0.387,-0.246,-1.31,2.08,-7.6,1784935675820.7942
-0.844,-0.381,-0.244,0.67,1.95,-7.32,1784935675821.0408
-0.842,-0.377,-0.249,2.78,2.01,-7.05,1784935675821.2559
-0.846,-0.377,-0.256,4.85,2.47,-6.99,1784935675821.467
-0.85,-0.373,-0.257,6.04,2.44,-6.78,1784935675821.6992
-0.846,-0.368,-0.257,6.2,2.11,-5.98,1784935675821.9312
-0.843,-0.371,-0.261,6.04,1.98,-4.82,1784935675822.1782
-0.843,-0.375,-0.259,5.83,1.92,-3.75,1784935675822.384
-0.844,-0.376,-0.256,5.95,1.71,-2.84,1784935675822.6077
-0.847,-0.374,-0.255,5.65,1.28,-2.17,1784935675822.835
-0.852,-0.369,-0.255,5.1,0.85,-1.31,1784935675823.051
-0.865,-0.355,-0.261,-0.24,-0.7,1.65,1784935675823.6643
-0.868,-0.355,-0.263,-2.38,-1.19,2.72,1784935675823.8662
-0.863,-0.382,-0.283,-0.73,-0.95,0.03,1784935675824.081
-0.864,-0.381,-0.287,-0.98,-1.01,0.06,1784935675824.274
-0.862,-0.38,-0.289,-1.34,-1.13,0.09,1784935675824.46
-0.862,-0.38,-0.291,-1.71,-1.19,0.18,1784935675832.537
-0.861,-0.378,-0.29,-1.83,-1.28,0.24,1784935675842.9382
-0.858,-0.379,-0.288,-1.86,-1.25,0.34,1784935675853.3289
-0.857,-0.38,-0.285,-1.46,-1.28,0.37,1784935675866.5413
-0.857,-0.379,-0.286,-1.34,-1.31,0.46,1784935675871.952
-0.857,-0.379,-0.287,-1.37,-1.37,0.43,1784935675882.2139
-0.859,-0.377,-0.287,-1.65,-1.34,0.37,1784935675892.607
-0.859,-0.376,-0.288,-1.83,-1.25,0.49,1784935675902.984
-0.859,-0.375,-0.285,-2.14,-1.43,0.58,1784935675913.392
-0.857,-0.375,-0.286,-2.59,-1.65,0.58,1784935675926.6702
-0.855,-0.375,-0.286,-2.99,-1.68,0.67,1784935675932.074
-0.854,-0.376,-0.284,-3.05,-1.89,0.89,1784935675942.3052
-0.855,-0.375,-0.279,-2.9,-1.98,1.16,1784935675952.691
-0.859,-0.375,-0.276,-2.62,-2.17,1.4,1784935675963.0999
-0.86,-0.375,-0.277,-2.5,-2.23,1.65,1784935675973.475
-0.856,-0.378,-0.277,-2.53,-2.17,1.86,1784935675986.725
-0.855,-0.376,-0.276,-2.5,-2.2,2.29,1784935675992.2769
-0.857,-0.374,-0.276,-2.78,-2.59,2.41,1784935676002.4377
-0.86,-0.374,-0.274,-3.45,-2.99,2.47,1784935676012.859
-0.869,-0.37,-0.268,-4.46,-3.51,2.5,1784935676023.159
-0.876,-0.358,-0.27,-5.65,-4.24,3.02,1784935676033.6929
-0.868,-0.348,-0.283,-6.68,-5.22,3.69,1784935676046.9272
-0.865,-0.344,-0.295,-8.45,-6.2,4.36,1784935676052.4402
-0.867,-0.337,-0.291,-11.29,-6.71,5.1,1784935676062.678
-0.864,-0.325,-0.271,-13.82,-6.81,6.41,1784935676073.277
-0.861,-0.321,-0.271,-15.14,-7.14,8.33,1784935676084.0142
-0.855,-0.325,-0.274,-15.9,-7.17,10.25,1784935676096.8477
-0.853,-0.325,-0.261,-16.85,-6.9,11.93,1784935676102.586
-0.852,-0.327,-0.251,-17.03,-6.74,13.49,1784935676113.2642
-0.857,-0.328,-0.235,-16.51,-6.87,14.77,1784935676123.772
-0.86,-0.316,-0.215,-16.72,-7.81,15.93,1784935676137.027
-0.854,-0.304,-0.207,-17.7,-9.37,17.18,1784935676143.063
-0.859,-0.3,-0.195,-20.2,-11.54,17.49,1784935676153.237
-0.858,-0.281,-0.197,-25.61,-14.5,17.43,1784935676166.589
-0.855,-0.289,-0.232,-32.23,-15.08,17.73,1784935676172.627
-0.871,-0.319,-0.241,-43.09,-13.82,16.79,1784935676182.806
-0.892,-0.332,-0.263,-58.69,-12.45,15.14,1784935676193.856
-0.907,-0.358,-0.29,-71.69,-9.77,13.37,1784935676206.825
-0.915,-0.43,-0.342,-77.58,-9.37,10.41,1784935676213.258
-0.925,-0.45,-0.321,-78.74,-10.8,7.48,1784935676223.678
-0.92,-0.433,-0.283,-70.74,-12.48,7.42,1784935676233.6152
-0.909,-0.416,-0.296,-58.17,-13.64,9.31,1784935676246.907
-0.91,-0.376,-0.327,-49.81,-14.89,9.8,1784935676252.5142
-0.912,-0.344,-0.363,-46.88,-15.44,8.85,1784935676263.029
-0.916,-0.342,-0.396,-50.14,-14.92,5.89,1784935676273.7222
-0.943,-0.321,-0.372,-59.11,-14.28,1.68,1784935676286.789
-0.977,-0.276,-0.304,-68.79,-15.05,-0.21,1784935676293.118
-1.005,-0.245,-0.218,-78.34,-18.59,0.12,1784935676302.9858
-1.027,-0.239,-0.192,-90.82,-25.45,-0.09,1784935676313.741
-1.028,-0.235,-0.2,-109.16,-31.62,-2.5,1784935676326.973
-1.011,-0.22,-0.224,-132.94,-37.81,-7.81,1784935676333.297
-0.982,-0.167,-0.308,-157.23,-42.48,-16.02,1784935676343.4019
-0.905,-0.055,-0.293,-176.15,-42.7,-22.31,1784935676356.5828
-0.842,0.062,-0.231,-185.55,-42.42,-24.93,1784935676362.8372
-0.859,0.155,-0.238,-185.13,-43.89,-25.18,1784935676373.443
-0.894,0.166,-0.197,-177.07,-43.34,-22.43,1784935676386.9163
-0.904,0.102,-0.163,-167.61,-41.75,-18.68,1784935676392.305
-0.884,-0.009,-0.149,-157.69,-40.47,-10.07,1784935676403.296
-0.859,-0.143,-0.131,-142.49,-38.88,3.39,1784935676416.697
-0.867,-0.245,-0.126,-119.21,-38.0,14.28,1784935676422.9263
-0.902,-0.317,-0.178,-91.31,-39.83,19.53,1784935676433.0298
-0.921,-0.395,-0.272,-64.12,-41.87,23.53,1784935676443.9622
-0.903,-0.454,-0.395,-39.12,-42.82,28.84,1784935676456.894
-0.839,-0.463,-0.542,-16.69,-41.29,33.05,1784935676462.833
-0.774,-0.423,-0.692,0.98,-36.65,36.01,1784935676473.4348
-0.724,-0.377,-0.856,9.09,-29.18,36.32,1784935676486.863
-0.703,-0.379,-0.948,5.62,-17.55,32.2,1784935676492.812
-0.732,-0.467,-1.034,-6.78,-3.63,24.32,1784935676502.723
-0.767,-0.563,-1.069,-24.51,11.78,14.74,1784935676513.545
-0.792,-0.639,-1.071,-37.05,25.97,5.16,1784935676526.6052
-0.813,-0.689,-1.082,-42.15,37.78,-4.21,1784935676532.4868
-0.842,-0.702,-1.103,-41.96,47.36,-12.09,1784935676542.8428
-0.88,-0.684,-1.122,-37.87,56.34,-18.98,1784935676553.651
-0.909,-0.649,-1.126,-34.09,65.16,-26.7,1784935676566.664
-0.939,-0.592,-1.114,-31.74,71.93,-31.92,1784935676572.478
-0.942,-0.573,-1.127,-26.64,77.15,-31.62,1784935676583.1392
-0.913,-0.571,-1.155,-22.49,84.6,-32.2,1784935676596.3718
-0.935,-0.548,-1.163,-23.19,93.97,-36.62,1784935676602.303
-0.993,-0.577,-1.125,-22.13,105.14,-39.95,1784935676613.163
-1.041,-0.638,-1.064,-16.08,115.33,-43.4,1784935676624.159
-1.055,-0.664,-0.993,-5.31,123.23,-47.36,1784935676637.118
-1.061,-0.682,-0.959,11.38,128.94,-51.12,1784935676642.944
-1.085,-0.664,-0.946,29.39,133.64,-58.05,1784935676653.6738
-1.116,-0.589,-0.905,42.76,137.61,-66.5,1784935676667.0652
-1.134,-0.538,-0.857,51.42,141.67,-71.29,1784935676673.038
-1.145,-0.528,-0.83,57.68,146.34,-74.95,1784935676683.5178
-1.153,-0.518,-0.811,65.1,151.28,-78.92,1784935676697.196
-1.158,-0.53,-0.762,71.78,156.04,-81.48,1784935676703.005
-1.153,-0.541,-0.729,80.23,158.39,-86.55,1784935676713.7349
-1.153,-0.523,-0.692,88.9,160.92,-91.71,1784935676727.026
-1.15,-0.504,-0.678,98.85,163.88,-95.61,1784935676733.001
-1.158,-0.522,-0.697,110.97,167.49,-100.83,1784935676743.7551
-1.182,-0.573,-0.721,121.95,170.78,-108.89,1784935676757.0823
-1.224,-0.655,-0.689,122.26,171.33,-114.99,1784935676763.187
-1.217,-0.681,-0.672,122.04,165.2,-126.04,1784935676776.85
-1.186,-0.615,-0.695,118.99,157.35,-136.42,1784935676782.795
-1.158,-0.508,-0.738,114.14,150.55,-141.36,1784935676794.6482
-1.12,-0.415,-0.746,104.83,144.6,-141.91,1784935676807.1548
-1.12,-0.415,-0.746,90.18,138.31,-140.26,1784935676813.416
-1.055,-0.331,-0.732,71.32,133.21,-134.83,1784935676826.8271
-0.979,-0.286,-0.703,49.04,128.61,-128.64,1784935676832.784
-0.913,-0.306,-0.671,22.86,124.7,-122.71,1784935676843.4802
-0.851,-0.325,-0.64,3.63,120.03,-116.25,1784935676856.883
-0.805,-0.375,-0.596,3.63,120.03,-116.25,1784935676862.68
-0.767,-0.401,-0.58,-8.51,113.77,-112.16,1784935676873.473
-0.729,-0.443,-0.553,-18.4,108.83,-104.65,1784935676887.017
-0.678,-0.455,-0.52,-21.97,102.79,-95.95,1784935676893.364
-0.628,-0.444,-0.508,-21.3,96.53,-87.47,1784935676903.439
-0.601,-0.432,-0.504,-19.41,90.03,-79.96,1784935676916.78
-0.568,-0.382,-0.52,-14.59,83.56,-75.23,1784935676923.2168
-0.525,-0.35,-0.529,-11.99,78.65,-66.35,1784935676933.1628
-0.501,-0.34,-0.517,-10.1,74.43,-55.76,1784935676943.9548
-0.49,-0.334,-0.49,-6.74,70.31,-47.0,1784935676957.0972
-0.466,-0.328,-0.48,-2.35,64.3,-39.09,1784935676963.2212
-0.433,-0.313,-0.512,2.01,58.47,-32.07,1784935676973.3398
-0.412,-0.306,-0.548,3.02,55.67,-22.74,1784935676983.696
-0.384,-0.367,-0.574,7.93,54.02,-18.65,1784935676996.9438
-0.346,-0.405,-0.554,8.27,53.07,-22.16,1784935677002.6528
-0.301,-0.451,-0.495,4.43,52.92,-24.63,1784935677013.319
-0.274,-0.421,-0.494,4.46,50.02,-30.34,1784935677023.577
-0.267,-0.359,-0.528,3.51,47.49,-35.83,1784935677037.223
-0.289,-0.287,-0.52,-2.08,46.97,-38.42,1784935677043.162
-0.293,-0.24,-0.504,-10.53,45.5,-37.78,1784935677053.407
-0.274,-0.243,-0.484,-19.84,43.89,-35.71,1784935677066.653
-0.249,-0.286,-0.413,-26.61,43.0,-32.69,1784935677072.664
-0.227,-0.323,-0.355,-27.77,40.65,-29.82,1784935677082.925
-0.223,-0.32,-0.325,-24.02,36.93,-28.08,1784935677093.631
-0.225,-0.315,-0.346,-19.01,32.23,-26.0,1784935677107.005
-0.241,-0.35,-0.36,-14.95,28.6,-23.99,1784935677113.353
-0.254,-0.43,-0.331,-12.18,25.91,-21.09,1784935677123.2341
-0.263,-0.523,-0.272,-9.7,22.46,-19.47,1784935677136.9019
-0.248,-0.645,-0.217,-3.02,17.76,-19.44,1784935677142.3208
-0.221,-0.753,-0.161,9.58,13.46,-22.03,1784935677152.749
-0.172,-0.807,-0.187,26.83,7.84,-26.92,1784935677163.456
-0.136,-0.777,-0.316,48.1,1.16,-32.65,1784935677176.56
-0.117,-0.666,-0.472,64.97,-1.77,-37.23,1784935677182.6958
-0.107,-0.516,-0.59,69.83,-2.96,-39.43,1784935677193.06
-0.095,-0.414,-0.641,63.94,-2.96,-38.82,1784935677203.236
-0.1,-0.345,-0.608,52.22,-1.37,-35.89,1784935677216.699
-0.116,-0.305,-0.567,40.56,-1.1,-30.61,1784935677222.6812
-0.095,-0.324,-0.6,31.28,-3.97,-25.61,1784935677232.8188
-0.07,-0.367,-0.68,21.55,-7.45,-22.49,1784935677243.467
-0.057,-0.413,-0.742,12.27,-8.18,-21.18,1784935677256.49
-0.053,-0.456,-0.792,4.15,-8.67,-22.03,1784935677262.5852
-0.042,-0.526,-0.828,-4.46,-8.21,-24.17,1784935677272.712
-0.026,-0.585,-0.851,-12.67,-6.2,-28.26,1784935677283.072
-0.034,-0.612,-0.862,-16.75,-3.05,-34.21,1784935677294.2231
-0.04,-0.625,-0.861,-18.52,0.34,-41.02,1784935677307.1611
-0.036,-0.618,-0.883,-19.41,2.72,-47.24,1784935677313.1763
-0.052,-0.58,-0.923,-19.68,5.55,-52.43,1784935677323.025
-0.088,-0.564,-0.958,-20.11,9.43,-55.57,1784935677333.845
-0.102,-0.585,-0.946,-23.32,14.53,-58.26,1784935677347.1382
-0.128,-0.618,-0.934,-27.74,19.14,-62.59,1784935677352.753
-0.167,-0.653,-0.928,-31.25,23.83,-68.09,1784935677363.355
-0.22,-0.681,-0.914,-34.7,28.57,-74.53,1784935677377.137
-0.259,-0.717,-0.858,-39.95,33.36,-80.75,1784935677383.621
-0.271,-0.759,-0.86,-45.32,36.29,-89.24,1784935677393.821
-0.262,-0.768,-0.841,-48.71,40.04,-99.98,1784935677403.765
-0.229,-0.736,-0.797,-54.93,41.29,-112.95,1784935677417.182
-0.177,-0.643,-0.861,-65.65,38.3,-126.01,1784935677423.7927
-0.159,-0.553,-0.98,-72.08,40.68,-132.24,1784935677433.9578
-0.194,-0.505,-1.011,-77.33,49.07,-131.66,1784935677447.0588
-0.232,-0.518,-0.898,-85.3,58.66,-129.31,1784935677452.8809
-0.192,-0.578,-0.692,-92.84,63.69,-126.68,1784935677463.9082
-0.072,-0.638,-0.552,-90.7,61.25,-122.81,1784935677477.592
0.03,-0.692,-0.53,-73.49,55.36,-118.38,1784935677483.134
0.048,-0.721,-0.548,-46.85,50.05,-117.25,1784935677494.156
0.04,-0.71,-0.615,-18.95,43.34,-118.93,1784935677507.0742
0.052,-0.678,-0.749,8.15,37.75,-119.17,1784935677513.174
0.062,-0.61,-0.831,29.73,37.05,-118.14,1784935677523.862
0.068,-0.48,-0.862,42.21,36.87,-116.21,1784935677537.19
0.103,-0.341,-0.895,46.97,35.1,-111.97,1784935677542.573
0.141,-0.284,-0.924,43.34,34.24,-105.56,1784935677553.512
0.204,-0.299,-0.863,30.55,35.52,-99.52,1784935677566.973
0.297,-0.363,-0.831,17.09,34.27,-94.82,1784935677572.8901
0.375,-0.399,-0.789,7.26,31.62,-91.01,1784935677583.445
0.424,-0.406,-0.803,4.82,28.38,-85.6,1784935677594.2058
0.431,-0.4,-0.811,7.51,28.14,-79.04,1784935677606.9287
0.395,-0.377,-0.796,10.07,29.11,-72.6,1784935677613.137
0.358,-0.366,-0.782,11.93,29.94,-65.25,1784935677623.39
0.343,-0.406,-0.736,12.36,30.67,-57.71,1784935677636.753
0.348,-0.45,-0.678,12.02,29.15,-52.55,1784935677642.7253
0.39,-0.475,-0.594,13.98,24.93,-49.04,1784935677653.03
0.446,-0.482,-0.583,19.38,15.56,-47.85,1784935677663.646
0.458,-0.484,-0.654,26.67,5.07,-47.82,1784935677677.117
0.45,-0.476,-0.696,28.99,-2.11,-47.55,1784935677684.527
0.475,-0.389,-0.717,24.81,-9.64,-46.72,1784935677693.4268
0.517,-0.327,-0.767,19.35,-16.21,-42.91,1784935677703.958
0.544,-0.322,-0.778,9.37,-18.65,-37.26,1784935677717.117
0.561,-0.338,-0.772,-3.91,-20.33,-31.01,1784935677722.881
0.57,-0.413,-0.785,-14.77,-20.63,-24.72,1784935677733.438
0.572,-0.536,-0.809,-22.89,-19.29,-19.81,1784935677746.468
0.589,-0.614,-0.789,-28.87,-15.23,-17.15,1784935677752.255
0.622,-0.659,-0.767,-29.51,-11.66,-15.59,1784935677763.1328
0.648,-0.646,-0.725,-23.01,-8.82,-13.98,1784935677773.628
0.665,-0.657,-0.744,-8.24,-6.29,-10.28,1784935677786.7573
0.653,-0.686,-0.767,7.23,-2.69,-7.75,1784935677793.0142
0.608,-0.71,-0.83,21.88,1.65,-7.54,1784935677802.6062
0.558,-0.752,-0.889,35.83,7.42,-6.78,1784935677813.069
0.503,-0.838,-0.961,50.87,14.83,-3.51,1784935677823.599
0.454,-1.025,-1.051,71.29,24.84,-0.31,1784935677837.388
0.461,-1.229,-1.032,97.54,40.07,0.73,1784935677842.6628
0.626,-1.339,-0.811,129.06,57.28,2.44,1784935677853.3079
0.985,-1.081,-0.411,152.32,67.66,2.01,1784935677866.4807
1.321,-0.513,-0.183,161.81,68.3,-3.57,1784935677872.144
1.489,0.063,-0.123,164.98,66.65,-5.83,1784935677882.903
1.466,0.448,-0.194,169.77,61.95,-1.25,1784935677894.1272
1.308,0.672,-0.376,169.35,52.03,2.08,1784935677906.799
1.054,0.957,-0.604,155.89,34.82,-5.62,1784935677913.0571
0.813,1.247,-0.829,130.28,14.31,-9.52,1784935677923.1929
0.676,1.206,-0.992,96.59,-1.07,8.7,1784935677933.717
0.666,0.816,-1.007,54.32,-7.39,37.35,1784935677947.165
0.788,0.355,-0.806,13.52,-3.72,56.61,1784935677952.657
0.891,-0.104,-0.516,-11.99,0.7,68.45,1784935677963.279
0.931,-0.525,-0.289,-27.1,2.96,70.62,1784935677973.663
0.878,-0.85,-0.207,-34.09,1.92,56.0,1784935677987.256
0.765,-1.095,-0.257,-28.02,0.98,36.93,1784935677993.549
0.704,-1.31,-0.352,-5.98,2.84,27.25,1784935678003.179
0.692,-1.367,-0.408,24.23,4.33,18.95,1784935678013.708
0.676,-1.204,-0.453,54.78,3.63,2.84,1784935678027.026
0.622,-0.929,-0.488,73.21,2.87,-14.07,1784935678032.949
0.554,-0.662,-0.506,72.51,1.13,-23.41,1784935678042.926
0.515,-0.449,-0.502,57.22,-1.65,-26.52,1784935678053.4668
0.485,-0.31,-0.488,36.41,-4.91,-26.64,1784935678066.7332
0.452,-0.239,-0.49,16.57,-8.91,-19.23,1784935678072.642
0.436,-0.234,-0.516,3.17,-12.97,-5.65,1784935678083.2053
0.422,-0.257,-0.553,-3.3,-15.35,6.68,1784935678093.688
0.422,-0.257,-0.553,-6.59,-15.47,17.7,1784935678106.625
0.425,-0.286,-0.549,-4.18,-14.98,28.63,1784935678112.5051
0.403,-0.301,-0.53,1.92,-15.53,42.27,1784935678123.245
0.369,-0.292,-0.527,11.93,-16.21,55.36,1784935678133.381
0.324,-0.31,-0.512,24.99,-18.28,68.33,1784935678146.89
0.29,-0.376,-0.481,24.99,-18.28,68.33,1784935678152.427
0.285,-0.41,-0.464,38.58,-21.91,81.18,1784935678163.115
0.296,-0.425,-0.46,53.99,-25.54,90.88,1784935678176.581
0.312,-0.418,-0.489,66.41,-28.72,98.27,1784935678182.1858
0.334,-0.385,-0.483,72.57,-29.36,106.2,1784935678193.456
0.335,-0.346,-0.444,74.83,-28.44,114.23,1784935678203.615
0.311,-0.34,-0.393,75.38,-27.01,122.84,1784935678217.084
0.273,-0.425,-0.309,78.98,-25.97,131.35,1784935678222.892
0.239,-0.574,-0.205,88.47,-27.07,139.13,1784935678233.7798
0.219,-0.681,-0.115,104.59,-31.19,144.99,1784935678246.832
0.221,-0.621,-0.054,121.59,-35.89,147.22,1784935678252.8052
0.242,-0.5,-0.051,141.33,-40.77,149.63,1784935678266.6318
0.263,-0.454,-0.057,155.86,-45.87,156.74,1784935678272.562
0.275,-0.523,-0.024,161.08,-47.36,166.33,1784935678283.154
0.273,-0.74,0.077,168.83,-47.18,173.77,1784935678296.48
0.219,-1.101,0.127,180.73,-49.23,174.93,1784935678302.315
0.133,-1.129,0.072,173.68,-49.78,168.65,1784935678313.6719
0.03,-0.92,-0.097,170.02,-48.34,163.03,1784935678326.8079
-0.061,-0.802,-0.373,173.71,-42.27,168.68,1784935678332.703
-0.154,-0.788,-0.51,162.36,-26.55,176.15,1784935678343.7559
-0.238,-0.895,-0.4,137.27,-8.21,181.22,1784935678357.118
-0.3,-1.066,-0.165,113.8,2.08,185.83,1784935678363.1658
-0.343,-1.184,0.047,97.29,3.81,186.99,1784935678373.538
-0.396,-1.061,0.145,78.01,-0.21,182.59,1784935678386.872
-0.467,-0.934,-0.07,66.59,-6.41,182.93,1784935678393.514
-0.523,-0.99,-0.361,58.29,-5.22,189.61,1784935678403.48
-0.6,-1.101,-0.376,41.14,-2.41,191.63,1784935678416.648
-0.649,-1.237,-0.285,26.28,-6.84,189.49,1784935678422.9
-0.621,-1.32,-0.181,25.21,-14.77,184.97,1784935678433.3298
-0.548,-1.353,-0.082,42.79,-21.79,179.75,1784935678446.7102
-0.466,-1.318,0.014,72.24,-26.98,177.22,1784935678452.445
-0.402,-1.071,0.054,104.4,-30.34,179.11,1784935678463.047
-0.385,-0.873,-0.013,137.27,-31.25,184.58,1784935678476.57
-0.401,-0.862,-0.18,148.78,-26.28,188.85,1784935678482.81
-0.481,-0.855,-0.246,127.2,-15.53,185.46,1784935678494.1619
-0.564,-0.796,-0.239,90.58,-6.01,182.13,1784935678506.835
-0.593,-0.826,-0.222,60.24,2.72,182.74,1784935678512.9302
-0.623,-0.909,-0.209,33.63,10.53,180.33,1784935678523.205
-0.683,-0.932,-0.169,8.51,15.84,172.73,1784935678536.744
-0.73,-0.95,0.011,-7.42,17.67,165.29,1784935678542.222
-0.743,-0.972,0.167,-10.16,15.53,159.46,1784935678553.162
-0.734,-0.96,0.146,-3.45,14.22,156.32,1784935678563.875
-0.764,-0.934,0.039,5.98,14.83,150.85,1784935678577.4841
-0.813,-0.892,-0.075,13.73,16.33,144.96,1784935678583.2163
-0.796,-0.751,-0.159,9.89,17.55,142.31,1784935678598.0798
-0.808,-0.494,-0.262,-11.23,17.98,143.47,1784935678606.611
-0.819,-0.394,-0.354,-39.83,19.14,148.38,1784935678612.323
-0.855,-0.362,-0.352,-76.14,22.13,149.91,1784935678623.303
-0.889,-0.329,-0.311,-108.22,24.57,153.66,1784935678636.843
-0.884,-0.342,-0.248,-120.55,26.4,165.01,1784935678642.494
-0.881,-0.334,-0.21,-112.52,27.44,180.79,1784935678653.833
-0.928,-0.351,-0.239,-85.24,30.0,196.57,1784935678667.1428
-1.024,-0.401,-0.227,-55.27,37.05,209.75,1784935678673.058
-1.123,-0.42,-0.196,-38.45,48.25,219.89,1784935678683.667
-1.222,-0.502,-0.193,-32.17,63.02,225.84,1784935678696.865
-1.335,-0.643,-0.165,-34.27,77.52,226.26,1784935678702.7468
-1.381,-0.852,-0.036,-31.43,89.63,220.53,1784935678713.797
-1.353,-1.139,0.297,-10.8,95.71,203.96,1784935678727.212
-1.295,-1.639,0.631,34.42,89.21,166.17,1784935678733.236
-1.177,-2.073,0.334,100.68,64.82,102.11,1784935678743.952
-1.102,-1.448,-0.077,182.44,31.83,46.69,1784935678757.025
-1.215,-0.381,-0.389,229.96,1.83,27.04,1784935678763.0789
-1.282,0.231,-0.418,152.2,-15.99,21.39,1784935678773.63
-1.184,0.179,-0.298,8.85,-17.46,32.38,1784935678787.128
-1.153,-0.265,-0.005,-105.11,-8.09,52.19,1784935678792.6973
-1.043,-0.762,0.297,-137.67,-3.08,51.67,1784935678803.125
-1.027,-0.989,0.3,-95.43,-3.27,26.52,1784935678813.814
-1.085,-0.822,0.222,-33.11,-6.62,14.47,1784935678827.24
-1.073,-0.54,-0.001,18.01,-14.37,17.7,1784935678833.102
-0.929,-0.383,-0.23,29.05,-20.08,22.89,1784935678843.715
-0.812,-0.403,-0.347,8.55,-21.36,22.22,1784935678856.467
-0.779,-0.476,-0.326,-19.44,-20.75,16.17,1784935678862.2488
-0.788,-0.53,-0.247,-39.64,-19.5,9.46,1784935678873.043
-0.82,-0.578,-0.211,-45.05,-16.39,5.55,1784935678893.5881
-0.857,-0.59,-0.188,-37.05,-12.36,3.66,1784935678896.388
-0.899,-0.573,-0.207,-21.85,-10.13,2.69,1784935678902.186
-0.875,-0.519,-0.274,-9.16,-9.19,2.2,1784935678912.543
-0.868,-0.428,-0.321,-3.63,-7.63,-1.83,1784935678923.073
-0.884,-0.403,-0.294,-5.55,-5.8,-4.15,1784935678933.482
-0.882,-0.4,-0.248,-11.54,-4.85,-4.7,1784935678946.635
-0.885,-0.385,-0.214,-14.16,-4.46,-5.16,1784935678952.641
-0.905,-0.375,-0.173,-11.38,-3.08,-5.58,1784935678962.465
-0.913,-0.366,-0.145,-4.85,-1.22,-5.8,1784935678973.033
-0.916,-0.359,-0.132,3.14,0.06,-6.44,1784935678983.8281
-0.909,-0.345,-0.132,10.41,1.16,-6.13,1784935678995.6511
-0.94,-0.319,-0.163,16.75,1.8,-7.84,1784935679007.083
-0.972,-0.287,-0.172,18.86,1.22,-6.81,1784935679012.854
-0.96,-0.259,-0.174,17.24,-0.21,-5.52,1784935679023.0479
-0.94,-0.258,-0.188,12.6,-0.49,-3.54,1784935679033.5842
-0.921,-0.279,-0.183,6.65,0.09,-2.38,1784935679047.0422
-0.933,-0.3,-0.161,1.07,0.37,-4.27,1784935679052.382
-0.958,-0.308,-0.143,-3.57,-0.67,-5.77,1784935679062.3638
-0.958,-0.323,-0.125,-4.03,-1.92,-5.04,1784935679072.593
-0.935,-0.325,-0.118,-2.08,-2.75,-5.43,1784935679083.3699
-0.918,-0.286,-0.132,-0.61,-2.69,-6.38,1784935679093.322
-0.912,-0.277,-0.157,1.59,-2.62,-5.31,1784935679106.946
-0.914,-0.259,-0.172,1.71,-2.17,-4.27,1784935679112.659
-0.916,-0.254,-0.182,1.4,-1.07,-2.35,1784935679122.33
-0.908,-0.269,-0.184,0.18,0.06,-0.89,1784935679132.707
-0.906,-0.289,-0.178,-1.56,0.61,-0.7,1784935679143.393
-0.908,-0.311,-0.167,-1.98,0.24,-1.01,1784935679153.8271
-0.911,-0.327,-0.167,0.06,-0.18,-2.5,1784935679167.0188
-0.921,-0.342,-0.167,3.85,0.37,-4.82,1784935679172.656
-0.923,-0.385,-0.169,8.51,1.19,-7.45,1784935679182.396
-0.922,-0.417,-0.162,13.12,2.14,-10.19,1784935679193.3708
-0.93,-0.423,-0.153,19.65,1.95,-13.09,1784935679203.798
-0.934,-0.422,-0.186,27.59,-0.67,-17.88,1784935679217.154
-0.932,-0.427,-0.185,26.64,-4.15,-23.87,1784935679223.542
-0.926,-0.476,-0.186,19.17,-9.46,-30.79,1784935679233.095
-0.93,-0.545,-0.178,9.03,-13.73,-38.21,1784935679243.9192
-0.938,-0.597,-0.132,1.92,-17.24,-45.11,1784935679257.059
-0.938,-0.631,-0.093,2.01,-22.31,-50.69,1784935679262.6519
-0.918,-0.638,-0.034,4.03,-25.57,-57.92,1784935679273.1577
-0.908,-0.641,0.009,11.47,-30.49,-67.23,1784935679283.704
-0.913,-0.618,0.037,21.85,-36.26,-77.0,1784935679297.109
-0.914,-0.554,0.075,29.88,-43.55,-85.42,1784935679303.2698
-0.914,-0.481,0.062,34.3,-51.42,-92.14,1784935679313.618
-0.924,-0.411,0.018,30.76,-58.44,-95.52,1784935679326.9272
-0.912,-0.336,0.007,20.57,-63.54,-96.38,1784935679332.729
-0.885,-0.302,0.007,7.48,-67.84,-96.68,1784935679343.148
-0.846,-0.317,-0.001,-7.02,-70.99,-96.9,1784935679353.6157
-0.803,-0.333,-0.012,-20.87,-73.12,-96.19,1784935679367.327
-0.771,-0.37,-0.037,-31.89,-73.34,-93.14,1784935679373.089
-0.768,-0.396,-0.053,-38.09,-71.2,-89.36,1784935679383.923
-0.759,-0.386,-0.044,-42.57,-67.2,-83.07,1784935679396.489
-0.759,-0.386,-0.044,-42.51,-61.77,-74.53,1784935679402.453
-0.731,-0.35,-0.047,-38.33,-54.78,-62.56,1784935679412.9731
-0.698,-0.311,-0.065,-31.77,-47.12,-48.22,1784935679423.667
-0.671,-0.302,-0.086,-25.64,-39.8,-33.88,1784935679437.497
-0.666,-0.331,-0.088,-25.64,-39.8,-33.88,1784935679443.309
-0.673,-0.387,-0.069,-23.01,-32.69,-21.55,1784935679453.32
-0.696,-0.451,-0.019,-23.77,-25.33,-11.81,1784935679466.799
-0.724,-0.511,0.009,-27.07,-19.53,-3.48,1784935679472.7502
-0.751,-0.568,0.033,-29.69,-13.82,3.66,1784935679483.0588
-0.777,-0.608,0.087,-28.69,-6.96,8.55,1784935679494.032
-0.811,-0.646,0.135,-22.74,-1.83,11.23,1784935679506.79
-0.84,-0.713,0.15,-11.69,1.56,11.81,1784935679512.4778
-0.86,-0.735,0.151,0.09,2.78,8.12,1784935679522.592
-0.887,-0.719,0.137,12.09,1.8,2.08,1784935679533.335
-0.902,-0.712,0.115,22.92,0.0,-2.32,1784935679543.6191
-0.906,-0.699,0.09,29.97,-1.92,-5.65,1784935679556.918
-0.897,-0.673,0.059,33.66,-3.94,-7.97,1784935679563.081
-0.883,-0.648,0.027,35.46,-6.41,-9.16,1784935679572.6772
-0.866,-0.627,-0.008,34.27,-8.79,-10.19,1784935679583.2378
-0.855,-0.602,-0.039,28.53,-10.59,-10.32,1784935679596.685
-0.835,-0.583,-0.052,19.84,-11.35,-8.7,1784935679602.721
-0.817,-0.56,-0.058,9.09,-11.93,-6.29,1784935679612.943
-0.802,-0.523,-0.058,-4.0,-12.39,-3.45,1784935679623.2
-0.778,-0.525,-0.045,-15.26,-11.93,0.09,1784935679634.022
-0.752,-0.56,-0.025,-21.55,-11.17,1.98,1784935679647.21
-0.738,-0.567,-0.017,-22.92,-9.46,2.29,1784935679652.79
-0.74,-0.562,-0.013,-21.15,-7.17,4.15,1784935679663.225
-0.734,-0.569,-0.016,-19.1,-4.52,6.71,1784935679673.6208
-0.733,-0.585,-0.008,-16.82,-1.16,7.78,1784935679686.788
-0.743,-0.596,0.003,-14.07,1.53,7.81,1784935679693.506
-0.753,-0.609,0.011,-10.16,3.94,8.18,1784935679702.658
-0.77,-0.626,0.008,-4.97,6.32,8.48,1784935679713.116
-0.783,-0.624,-0.001,-0.58,7.78,8.58,1784935679723.353
-0.794,-0.621,-0.011,3.2,8.94,8.48,1784935679736.8809
-0.806,-0.61,-0.025,4.76,9.55,7.84,1784935679742.573
-0.814,-0.59,-0.029,4.82,10.22,7.23,1784935679752.5981
-0.825,-0.585,-0.031,4.46,10.32,6.56,1784935679763.073
-0.833,-0.583,-0.028,2.9,9.98,5.95,1784935679773.4258
-0.842,-0.584,-0.02,1.62,9.61,6.04,1784935679783.662
-0.842,-0.582,-0.008,0.43,8.51,6.04,1784935679796.933
-0.84,-0.578,0.005,-1.19,7.17,5.37,1784935679802.5051
-0.837,-0.566,0.028,-3.02,5.43,4.79,1784935679812.828
-0.831,-0.556,0.042,-4.06,3.88,4.49,1784935679823.43
-0.826,-0.552,0.048,-5.71,2.53,3.91,1784935679833.432
-0.818,-0.547,0.046,-9.03,1.34,3.27,1784935679843.8762
-0.81,-0.555,0.031,-12.15,1.37,2.78,1784935679857.1821
-0.807,-0.576,0.011,-14.59,2.5,2.08,1784935679863.136
-0.803,-0.611,-0.009,-15.41,4.0,0.73,1784935679872.947
-0.823,-0.633,-0.026,-14.92,5.71,-1.22,1784935679883.368
-0.814,-0.656,-0.037,-10.99,7.75,-1.59,1784935679896.658
-0.838,-0.661,-0.048,-5.86,8.85,-1.65,1784935679902.281
-0.805,-0.681,-0.061,0.98,9.61,0.24,1784935679912.561
-0.783,-0.648,-0.075,5.13,11.72,-2.23,1784935679922.8389
-0.792,-0.619,-0.063,3.51,12.97,-3.72,1784935679933.438
-0.824,-0.613,-0.052,0.06,13.18,-2.53,1784935679946.708
-0.827,-0.624,-0.042,-2.9,12.79,0.31,1784935679952.4622
-0.816,-0.622,-0.039,-3.51,12.39,0.37,1784935679962.843
-0.822,-0.602,-0.041,-3.78,11.78,-0.79,1784935679973.1882
-0.823,-0.585,-0.04,-4.85,10.96,-0.85,1784935679983.928
-0.817,-0.577,-0.039,-6.93,10.41,-0.92,1784935679996.8782
-0.81,-0.568,-0.031,-9.09,9.7,-0.79,1784935680002.697
-0.802,-0.564,-0.026,-10.19,9.31,-0.73,1784935680012.407
-0.802,-0.565,-0.022,-10.71,9.22,-0.98,1784935680023.077
-0.803,-0.57,-0.017,-10.68,9.4,-1.37,1784935680033.708
-0.803,-0.568,-0.015,-10.47,9.52,-1.83,1784935680046.836
-0.802,-0.56,-0.02,-10.32,9.7,-2.62,1784935680052.411
-0.799,-0.556,-0.016,-9.83,10.38,-3.14,1784935680062.8171
-0.794,-0.558,-0.013,-8.36,11.02,-3.2,1784935680073.259
-0.789,-0.559,-0.007,-5.55,11.51,-3.33,1784935680083.96
-0.789,-0.556,-0.004,-2.04,11.84,-3.39,1784935680096.8242
-0.791,-0.546,-0.009,1.5,11.96,-2.9,1784935680102.649
-0.789,-0.538,-0.016,3.91,11.87,-2.35,1784935680113.013
-0.797,-0.528,-0.019,5.31,11.75,-1.71,1784935680123.5771
-0.796,-0.531,-0.029,6.35,11.9,-0.21,1784935680133.881
-0.797,-0.527,-0.035,6.71,11.81,1.1,1784935680147.0
-0.798,-0.526,-0.042,6.59,11.75,2.41,1784935680152.7942
-0.806,-0.523,-0.049,5.07,11.51,3.57,1784935680163.057
-0.814,-0.512,-0.052,2.38,11.26,4.91,1784935680173.483
-0.825,-0.496,-0.062,0.31,11.02,6.71,1784935680186.556
-0.831,-0.462,-0.064,-1.22,10.65,9.34,1784935680192.5518
-0.831,-0.476,-0.077,-1.59,10.13,11.96,1784935680202.8108
-0.828,-0.512,-0.088,-3.81,9.86,11.9,1784935680213.2822
-0.823,-0.557,-0.076,-5.77,11.02,9.43,1784935680223.4658
-0.823,-0.59,-0.045,-5.13,12.48,6.32,1784935680237.1099
-0.819,-0.595,-0.019,-1.92,13.37,4.3,1784935680242.9531
-0.807,-0.62,-0.017,6.68,14.5,2.69,1784935680252.9468
-0.812,-0.625,-0.038,16.39,15.29,0.31,1784935680263.336
-0.814,-0.614,-0.071,24.17,15.53,-0.98,1784935680277.2268
-0.794,-0.611,-0.092,29.39,16.05,-1.68,1784935680282.378
-0.773,-0.609,-0.093,32.87,16.05,-3.14,1784935680292.9421
-0.766,-0.613,-0.094,35.86,15.35,-4.15,1784935680303.398
-0.773,-0.615,-0.102,37.93,14.44,-4.64,1784935680316.775
-0.785,-0.607,-0.109,38.7,13.55,-5.28,1784935680323.116
-0.792,-0.589,-0.115,37.42,13.09,-6.04,1784935680332.803
-0.8,-0.559,-0.114,33.45,13.0,-6.23,1784935680343.6511
-0.801,-0.546,-0.103,28.47,13.09,-5.43,1784935680356.721
-0.799,-0.541,-0.089,22.22,12.91,-3.91,1784935680362.813
-0.794,-0.549,-0.082,15.29,12.79,-1.56,1784935680372.94
-0.792,-0.563,-0.073,8.58,12.91,0.09,1784935680383.915
-0.796,-0.573,-0.064,2.35,12.94,0.76,1784935680394.072
-0.798,-0.574,-0.054,-2.26,12.94,1.46,1784935680407.012
-0.797,-0.577,-0.042,-4.64,12.82,2.29,1784935680413.0627
-0.798,-0.581,-0.038,-5.52,12.54,2.81,1784935680422.8743
-0.801,-0.577,-0.035,-5.83,12.09,3.6,1784935680433.357
-0.803,-0.582,-0.029,-5.62,11.72,4.49,1784935680446.868
-0.801,-0.584,-0.025,-5.04,11.29,5.31,1784935680452.738
-0.796,-0.58,-0.02,-3.97,10.9,6.13,1784935680462.44
-0.794,-0.579,-0.019,-2.17,10.16,6.9,1784935680472.975
-0.793,-0.578,-0.018,-0.49,9.19,6.87,1784935680483.7607
-0.791,-0.568,-0.016,0.67,8.18,6.65,1784935680494.428
-0.791,-0.555,-0.021,1.92,7.11,6.81,1784935680506.915
-0.791,-0.558,-0.025,2.87,5.89,6.84,1784935680512.9512
-0.793,-0.57,-0.026,1.98,4.52,5.74,1784935680523.041
-0.798,-0.569,-0.023,-0.27,2.93,4.7,1784935680533.0989
-0.804,-0.571,-0.021,-1.92,1.65,4.33,1784935680543.5068
-0.809,-0.573,-0.025,-2.9,0.4,4.3,1784935680556.7842
-0.811,-0.576,-0.031,-3.97,-1.01,4.24,1784935680562.862
-0.815,-0.574,-0.037,-5.31,-2.23,4.09,1784935680572.5178
-0.82,-0.576,-0.043,-6.62,-3.27,4.06,1784935680582.9312
-0.82,-0.574,-0.047,-7.84,-4.24,3.69,1784935680593.567
-0.819,-0.574,-0.05,-8.24,-4.61,3.72,1784935680603.673
-0.816,-0.581,-0.057,-8.39,-5.13,3.69,1784935680617.064
-0.814,-0.586,-0.065,-9.0,-5.92,3.27,1784935680623.071
-0.814,-0.575,-0.071,-9.98,-6.41,2.75,1784935680632.696
-0.812,-0.574,-0.076,-10.13,-6.56,2.96,1784935680643.038
-0.812,-0.583,-0.087,-10.16,-6.99,2.96,1784935680653.437
