ax,ay,az,gx,gy,gz,timestamp_ms
-0.901,-0.263,-0.303,-8.27,-1.98,-1.77,1785102785313.032
-0.902,-0.26,-0.3,-9.64,-2.14,-2.01,1785102785313.445
-0.904,-0.257,-0.296,-10.86,-2.17,-2.35,1785102785313.8108
-0.908,-0.255,-0.296,-12.15,-2.29,-2.59,1785102785314.161
-0.908,-0.256,-0.295,-13.12,-2.23,-2.75,1785102785314.506
-0.91,-0.255,-0.293,-14.28,-1.98,-2.69,1785102785314.8743
-0.907,-0.255,-0.286,-15.41,-2.04,-2.47,1785102785315.223
-0.903,-0.257,-0.288,-15.93,-2.01,-2.29,1785102785315.568
-0.907,-0.257,-0.286,-16.54,-1.89,-2.53,1785102785315.9082
-0.907,-0.259,-0.282,-17.09,-1.86,-2.41,1785102785316.266
-0.907,-0.258,-0.285,-17.43,-1.89,-2.23,1785102785316.604
-0.912,-0.253,-0.285,-17.64,-1.98,-2.04,1785102785317.019
-0.91,-0.25,-0.285,-17.88,-2.04,-1.71,1785102785317.379
-0.904,-0.25,-0.284,-17.94,-2.04,-1.71,1785102785317.749
-0.906,-0.251,-0.285,-18.13,-2.08,-1.65,1785102785318.094
-0.906,-0.249,-0.284,-18.13,-2.01,-1.31,1785102785318.433
-0.905,-0.245,-0.283,-17.7,-1.98,-1.1,1785102785318.8027
-0.905,-0.245,-0.283,-16.94,-1.92,-0.89,1785102785319.1401
-0.904,-0.244,-0.283,-15.87,-1.74,-0.85,1785102785319.483
-0.906,-0.244,-0.284,-14.77,-1.59,-0.89,1785102785319.818
-0.904,-0.241,-0.282,-13.79,-1.4,-0.64,1785102785320.183
-0.902,-0.24,-0.281,-12.39,-1.16,-0.4,1785102785320.533
-0.904,-0.238,-0.282,-10.96,-0.85,0.0,1785102785320.8708
-0.905,-0.237,-0.287,-9.77,-0.46,0.21,1785102785321.166
-0.902,-0.237,-0.288,-8.73,-0.27,0.27,1785102785321.461
-0.907,-0.237,-0.287,-7.97,-0.09,0.4,1785102785321.76
-0.909,-0.237,-0.29,-7.2,0.09,0.49,1785102785322.043
-0.909,-0.238,-0.291,-6.41,0.37,0.49,1785102785322.331
-0.909,-0.239,-0.29,-5.68,0.52,0.73,1785102785322.627
-0.907,-0.236,-0.292,-5.13,0.79,0.79,1785102785322.941
-0.904,-0.235,-0.293,-4.73,1.01,1.01,1785102785323.227
-0.904,-0.237,-0.293,-4.73,1.25,1.16,1785102785323.526
-0.906,-0.235,-0.291,-4.7,1.34,1.25,1785102785323.832
-0.907,-0.235,-0.291,-4.55,1.4,1.25,1785102785324.164
-0.907,-0.235,-0.289,-4.09,1.4,1.28,1785102785324.476
-0.908,-0.237,-0.285,-3.39,1.56,1.16,1785102785324.7737
-0.908,-0.239,-0.284,-2.72,1.71,1.19,1785102785325.058
-0.912,-0.237,-0.285,-2.08,1.77,1.65,1785102785325.352
-0.912,-0.238,-0.288,-1.53,1.83,2.17,1785102785325.6462
-0.908,-0.238,-0.288,-1.04,1.77,2.59,1785102785325.9639
-0.906,-0.235,-0.292,-0.64,1.89,2.66,1785102785326.263
-0.907,-0.235,-0.29,-0.43,1.98,2.62,1785102785326.557
-0.912,-0.237,-0.29,-0.18,1.68,2.72,1785102785326.8682
-0.917,-0.238,-0.291,-0.03,1.37,2.75,1785102785327.1702
-0.918,-0.24,-0.291,0.12,1.31,2.99,1785102785327.496
-0.915,-0.24,-0.297,0.34,1.13,3.08,1785102785327.8699
-0.913,-0.239,-0.298,0.15,1.04,3.17,1785102785328.199
-0.912,-0.239,-0.299,-0.43,0.89,3.08,1785102785328.4932
-0.911,-0.239,-0.299,-1.13,0.43,2.81,1785102785328.7659
-0.908,-0.239,-0.302,-1.4,0.18,2.35,1785102785329.0242
-0.906,-0.233,-0.3,-2.04,0.03,2.29,1785102785329.2798
-0.901,-0.237,-0.296,-2.38,0.0,2.23,1785102785329.542
-0.899,-0.24,-0.303,-2.08,-0.37,1.59,1785102785329.803
-0.898,-0.241,-0.307,-2.11,-0.46,0.79,1785102785330.077
-0.895,-0.237,-0.304,-2.08,-0.55,0.34,1785102785330.334
-0.893,-0.234,-0.299,-1.86,-0.52,0.18,1785102785330.595
-0.892,-0.232,-0.295,-1.95,-0.46,0.09,1785102785330.844
-0.893,-0.237,-0.294,-1.86,-0.64,0.09,1785102785331.106
-0.894,-0.243,-0.293,-1.34,-0.92,0.0,1785102785331.389
-0.892,-0.245,-0.296,-0.55,-0.95,0.06,1785102785331.653
-0.889,-0.246,-0.297,0.43,-0.67,0.37,1785102785331.911
-0.889,-0.244,-0.297,1.5,-0.34,0.58,1785102785332.171
-0.891,-0.242,-0.297,2.72,-0.18,0.46,1785102785332.4338
-0.894,-0.243,-0.297,3.91,-0.12,0.24,1785102785332.691
-0.896,-0.244,-0.299,4.52,-0.06,-0.03,1785102785332.957
-0.899,-0.244,-0.304,4.73,0.15,-0.52,1785102785333.2239
-0.899,-0.244,-0.304,4.27,0.37,-0.55,1785102785333.48
-0.902,-0.243,-0.307,3.42,0.67,-0.58,1785102785333.7632
-0.901,-0.245,-0.303,2.99,1.1,-0.64,1785102785334.023
-0.9,-0.246,-0.301,2.62,1.25,-0.95,1785102785334.287
-0.902,-0.248,-0.3,2.62,1.25,-0.95,1785102785334.544
-0.905,-0.246,-0.298,2.26,1.19,-1.28,1785102785334.809
-0.905,-0.246,-0.295,1.77,1.07,-1.31,1785102785335.0762
-0.904,-0.24,-0.297,1.46,1.13,-1.25,1785102785335.337
-0.902,-0.237,-0.297,1.25,1.31,-1.37,1785102785335.621
-0.903,-0.235,-0.295,1.34,1.34,-1.31,1785102785335.8982
-0.905,-0.233,-0.297,1.59,1.22,-1.25,1785102785336.19
-0.906,-0.232,-0.3,1.77,1.16,-0.98,1785102785336.478
-0.906,-0.233,-0.301,2.32,1.16,-0.58,1785102785336.724
-0.907,-0.233,-0.304,3.05,1.25,-0.27,1785102785336.975
-0.906,-0.234,-0.303,3.78,1.13,0.27,1785102785337.207
-0.907,-0.236,-0.304,4.64,1.19,0.89,1785102785337.451
-0.907,-0.236,-0.305,5.43,1.28,1.28,1785102785337.698
-0.907,-0.231,-0.304,5.86,1.31,1.77,1785102785337.924
-0.908,-0.231,-0.305,6.29,1.28,2.2,1785102785338.1628
-0.905,-0.235,-0.306,6.53,1.25,2.59,1785102785338.405
-0.903,-0.237,-0.304,6.65,1.31,2.72,1785102785338.634
-0.903,-0.236,-0.304,6.62,1.34,2.84,1785102785338.873
-0.903,-0.236,-0.305,6.65,1.37,2.99,1785102785339.112
-0.904,-0.239,-0.305,6.56,1.43,3.05,1785102785339.3481
-0.905,-0.237,-0.302,6.44,1.4,3.05,1785102785339.576
-0.902,-0.238,-0.303,6.35,1.46,2.99,1785102785339.8188
-0.899,-0.238,-0.301,6.16,1.53,2.69,1785102785340.064
-0.898,-0.238,-0.3,5.98,1.5,2.41,1785102785340.307
-0.897,-0.239,-0.295,5.77,1.37,2.08,1785102785340.5461
-0.897,-0.24,-0.287,5.74,1.01,1.77,1785102785340.7942
-0.908,-0.241,-0.278,6.07,0.37,1.77,1785102785341.0198
-0.913,-0.243,-0.276,6.93,-0.12,2.04,1785102785341.268
-0.917,-0.243,-0.281,7.87,-0.58,2.41,1785102785341.516
-0.918,-0.243,-0.286,8.45,-1.1,3.2,1785102785341.752
-0.912,-0.243,-0.299,8.33,-1.59,3.85,1785102785341.9788
-0.909,-0.241,-0.308,7.84,-1.53,4.46,1785102785342.218
-0.905,-0.242,-0.31,7.14,-1.65,4.82,1785102785342.4639
-0.901,-0.246,-0.317,6.2,-1.71,4.88,1785102785342.678
-0.896,-0.246,-0.317,4.94,-1.68,4.61,1785102785342.899
-0.89,-0.247,-0.318,3.48,-1.62,4.33,1785102785343.132
-0.885,-0.247,-0.318,2.2,-1.25,3.81,1785102785343.342
-0.883,-0.248,-0.313,1.71,-1.07,3.17,1785102785343.561
-0.883,-0.247,-0.31,1.53,-0.89,2.35,1785102785343.786
-0.885,-0.248,-0.307,1.43,-0.7,1.34,1785102785344.0198
-0.888,-0.248,-0.308,1.37,-0.46,0.61,1785102785344.232
-0.892,-0.245,-0.307,1.34,-0.18,-0.03,1785102785344.449
-0.896,-0.244,-0.31,1.31,0.21,-0.34,1785102785344.668
-0.895,-0.244,-0.309,1.22,0.73,-0.43,1785102785344.8809
-0.895,-0.241,-0.307,1.46,0.98,-0.55,1785102785345.105
-0.899,-0.241,-0.304,1.74,1.13,-0.52,1785102785345.325
-0.903,-0.244,-0.297,2.2,1.34,-0.55,1785102785345.5369
-0.905,-0.245,-0.29,2.99,1.37,-0.58,1785102785345.752
-0.906,-0.245,-0.287,3.94,1.46,-0.52,1785102785345.973
-0.909,-0.244,-0.284,4.91,1.4,-0.21,1785102785346.189
-0.909,-0.242,-0.282,6.16,1.25,0.18,1785102785346.407
-0.908,-0.24,-0.284,7.54,1.04,0.61,1785102785346.6282
-0.907,-0.24,-0.287,8.61,0.82,0.92,1785102785346.8489
-0.905,-0.237,-0.292,9.16,0.64,0.82,1785102785347.063
-0.903,-0.237,-0.294,9.49,0.37,0.79,1785102785347.281
-0.903,-0.239,-0.295,9.7,0.03,0.79,1785102785347.501
-0.901,-0.239,-0.295,9.83,-0.09,0.79,1785102785347.75
-0.9,-0.238,-0.296,10.07,-0.31,0.89,1785102785347.9978
-0.897,-0.24,-0.297,10.25,-0.4,0.85,1785102785348.2207
-0.898,-0.24,-0.299,10.47,-0.67,0.76,1785102785348.438
-0.901,-0.239,-0.299,10.5,-1.1,0.89,1785102785348.64
-0.901,-0.24,-0.301,10.53,-1.5,1.01,1785102785348.8462
-0.903,-0.24,-0.302,10.44,-1.65,1.16,1785102785349.056
-0.905,-0.242,-0.307,10.16,-1.68,1.34,1785102785349.258
-0.909,-0.246,-0.31,9.61,-1.83,1.53,1785102785349.4668
-0.912,-0.251,-0.314,9.22,-1.74,1.95,1785102785349.678
-0.916,-0.25,-0.318,8.21,-1.62,2.66,1785102785349.8882
-0.913,-0.251,-0.321,6.56,-1.65,3.75,1785102785350.09
-0.908,-0.255,-0.326,4.85,-1.07,4.52,1785102785350.2969
-0.908,-0.256,-0.326,2.72,-0.67,5.07,1785102785350.503
-0.904,-0.258,-0.329,0.34,-0.27,5.8,1785102785350.7048
-0.9,-0.26,-0.328,-1.65,0.43,6.2,1785102785350.913
-0.899,-0.26,-0.323,-3.11,1.16,6.32,1785102785351.125
-0.892,-0.261,-0.318,-4.27,1.62,6.44,1785102785351.328
-0.885,-0.264,-0.317,-4.79,2.26,6.04,1785102785351.5352
-0.885,-0.263,-0.319,-5.28,2.72,5.07,1785102785351.7507
-0.883,-0.257,-0.319,-6.38,3.05,3.81,1785102785351.9602
-0.884,-0.25,-0.319,-7.57,3.6,2.47,1785102785352.161
-0.889,-0.247,-0.313,-8.58,3.94,1.04,1785102785352.3728
-0.893,-0.245,-0.308,-9.4,4.39,-0.18,1785102785352.581
-0.897,-0.242,-0.304,-10.38,5.07,-1.22,1785102785352.784
-0.896,-0.238,-0.298,-10.93,5.74,-1.95,1785102785352.994
-0.893,-0.234,-0.291,-11.02,6.01,-2.78,1785102785353.205
-0.901,-0.23,-0.284,-10.74,6.23,-3.88,1785102785353.407
-0.913,-0.229,-0.279,-10.38,5.86,-4.46,1785102785353.628
-0.919,-0.224,-0.276,-10.25,5.19,-4.85,1785102785353.84
-0.924,-0.217,-0.28,-10.38,4.73,-4.88,1785102785354.051
-0.921,-0.216,-0.281,-10.59,4.21,-4.58,1785102785354.2578
-0.909,-0.21,-0.277,-10.44,3.72,-3.78,1785102785354.488
-0.897,-0.208,-0.266,-9.28,3.11,-3.02,1785102785354.696
-0.904,-0.21,-0.25,-7.11,1.65,-2.14,1785102785354.898
-0.918,-0.205,-0.254,-4.94,-0.67,-1.8,1785102785355.1091
-0.917,-0.207,-0.273,-3.63,-2.93,-1.56,1785102785355.3213
-0.909,-0.209,-0.3,-2.04,-4.27,-1.31,1785102785355.5232
-0.905,-0.204,-0.327,-0.98,-4.43,-0.43,1785102785355.728
-0.9,-0.202,-0.33,-1.31,-3.88,0.46,1785102785355.936
-0.897,-0.213,-0.319,-1.53,-3.75,1.22,1785102785356.145
-0.902,-0.224,-0.3,-0.79,-3.69,1.65,1785102785356.343
-0.903,-0.233,-0.284,1.68,-3.81,1.98,1785102785356.544
-0.904,-0.241,-0.276,5.37,-4.43,2.69,1785102785356.7412
-0.906,-0.244,-0.278,9.34,-4.76,3.11,1785102785356.935
-0.908,-0.239,-0.285,12.85,-4.73,3.48,1785102785357.126
-0.906,-0.236,-0.299,15.14,-4.64,3.69,1785102785357.3398
-0.905,-0.243,-0.324,15.93,-3.85,3.17,1785102785357.7258
-0.903,-0.247,-0.329,14.47,-3.23,2.75,1785102785357.915
-0.894,-0.247,-0.306,1.4,3.97,3.3,1785102785358.266
-0.894,-0.255,-0.301,-1.86,4.03,2.59,1785102785358.4531
-0.89,-0.262,-0.293,-4.15,3.94,1.74,1785102785358.6401
-0.888,-0.275,-0.286,-4.52,3.66,1.4,1785102785367.838
-0.885,-0.284,-0.284,-2.29,3.14,1.28,1785102785381.1208
-0.894,-0.271,-0.282,-0.18,2.93,0.73,1785102785386.486
-0.901,-0.27,-0.274,1.04,2.78,1.01,1785102785396.776
-0.9,-0.273,-0.275,2.87,2.17,1.1,1785102785407.0881
-0.901,-0.256,-0.278,3.23,2.23,1.01,1785102785417.5789
-0.903,-0.262,-0.279,2.69,1.62,1.31,1785102785427.915
-0.898,-0.271,-0.278,2.56,1.13,1.19,1785102785441.211
-0.902,-0.269,-0.283,3.02,1.01,1.34,1785102785446.78
-0.906,-0.278,-0.281,3.08,0.67,1.37,1785102785456.9302
-0.903,-0.271,-0.286,3.75,-0.06,1.53,1785102785467.22
-0.902,-0.266,-0.286,3.36,-0.27,1.5,1785102785477.634
-0.898,-0.266,-0.288,2.69,-0.79,1.89,1785102785487.998
-0.898,-0.269,-0.286,2.08,-1.46,1.89,1785102785501.47
-0.895,-0.278,-0.291,2.41,-1.89,1.68,1785102785506.842
-0.894,-0.268,-0.304,3.27,-2.17,1.37,1785102785517.053
-0.895,-0.254,-0.307,2.14,-1.95,0.73,1785102785527.3171
-0.896,-0.262,-0.307,0.37,-2.08,0.64,1785102785537.853
-0.897,-0.263,-0.305,-0.64,-2.11,0.18,1785102785548.47
-0.9,-0.258,-0.305,-1.8,-1.95,-0.24,1785102785561.437
-0.896,-0.279,-0.301,-1.86,-2.11,-0.21,1785102785567.299
-0.895,-0.271,-0.307,-0.06,-2.38,0.03,1785102785577.2559
-0.898,-0.251,-0.312,0.03,-2.2,0.06,1785102785587.627
-0.895,-0.257,-0.309,-1.25,-2.2,0.06,1785102785598.0378
-0.891,-0.26,-0.312,-1.83,-1.98,-0.27,1785102785608.3572
-0.892,-0.255,-0.313,-2.59,-1.65,-0.46,1785102785621.5989
-0.889,-0.263,-0.308,-3.75,-1.56,-0.43,1785102785627.2632
-0.891,-0.265,-0.303,-4.15,-1.62,-0.92,1785102785637.301
-0.893,-0.274,-0.299,-3.51,-1.59,-0.7,1785102785647.773
-0.893,-0.264,-0.3,-2.56,-1.89,-0.15,1785102785658.05
-0.895,-0.259,-0.302,-2.66,-2.01,-0.24,1785102785671.3127
-0.898,-0.264,-0.299,-3.05,-2.14,-0.55,1785102785676.9111
-0.896,-0.265,-0.302,-3.08,-2.17,-0.64,1785102785687.0552
-0.898,-0.258,-0.302,-4.33,-1.86,-0.85,1785102785697.4512
-0.896,-0.261,-0.299,-5.86,-1.83,-0.7,1785102785707.767
-0.895,-0.263,-0.299,-7.14,-1.65,-0.98,1785102785718.204
-0.897,-0.272,-0.293,-7.97,-1.62,-1.34,1785102785731.452
-0.898,-0.277,-0.289,-7.11,-2.04,-1.68,1785102785737.062
-0.899,-0.271,-0.29,-5.74,-2.08,-1.89,1785102785747.167
-0.899,-0.26,-0.293,-5.22,-1.92,-1.83,1785102785757.4001
-0.897,-0.263,-0.29,-5.74,-1.68,-1.56,1785102785767.835
-0.9,-0.267,-0.289,-5.89,-1.74,-1.89,1785102785778.24
-0.897,-0.264,-0.29,-5.58,-1.86,-1.92,1785102785791.456
-0.895,-0.264,-0.295,-5.28,-1.68,-2.04,1785102785797.3088
-0.897,-0.262,-0.297,-5.22,-1.4,-2.14,1785102785807.148
-0.899,-0.259,-0.295,-5.25,-1.31,-2.08,1785102785817.504
-0.903,-0.261,-0.292,-5.22,-1.19,-1.92,1785102785828.0588
-0.903,-0.26,-0.292,-4.67,-1.22,-1.98,1785102785838.303
-0.901,-0.26,-0.296,-4.21,-0.98,-1.98,1785102785851.5552
-0.902,-0.26,-0.297,-4.03,-0.64,-1.98,1785102785857.1401
-0.901,-0.259,-0.297,-3.85,-0.37,-1.77,1785102785867.246
-0.901,-0.257,-0.295,-3.51,-0.09,-1.65,1785102785877.5461
-0.906,-0.257,-0.293,-3.05,0.12,-1.43,1785102785888.122
-0.909,-0.258,-0.29,-2.41,0.15,-1.4,1785102785898.428
-0.911,-0.258,-0.291,-1.71,0.34,-1.4,1785102785911.606
-0.91,-0.255,-0.296,-1.16,0.31,-1.68,1785102785917.351
-0.9,-0.247,-0.299,-1.1,0.4,-1.68,1785102785927.274
-0.895,-0.25,-0.297,-1.53,0.95,-1.5,1785102785937.622
-0.895,-0.249,-0.293,-1.83,1.01,-1.74,1785102785948.2341
-0.893,-0.242,-0.291,-1.95,1.07,-1.92,1785102785961.255
-0.89,-0.246,-0.281,-2.11,1.56,-1.74,1785102785966.9858
-0.895,-0.243,-0.278,-1.37,1.4,-2.5,1785102785976.892
-0.889,-0.24,-0.275,-0.34,1.59,-2.14,1785102785987.342
-0.897,-0.247,-0.273,0.58,1.86,-1.8,1785102785997.7632
-0.913,-0.246,-0.276,2.11,1.5,-2.59,1785102786008.228
-0.91,-0.243,-0.281,3.66,1.46,-2.41,1785102786021.3381
-0.914,-0.25,-0.282,4.55,1.95,-1.25,1785102786027.062
-0.932,-0.254,-0.282,5.86,1.8,-0.92,1785102786037.01
-0.932,-0.25,-0.285,7.45,1.56,-0.03,1785102786047.477
-0.927,-0.258,-0.286,9.03,1.83,1.34,1785102786057.619
-0.921,-0.256,-0.285,11.02,2.01,2.41,1785102786068.4868
-0.913,-0.254,-0.284,12.85,2.47,4.0,1785102786081.5889
-0.908,-0.256,-0.284,14.22,2.69,5.49,1785102786087.373
-0.905,-0.254,-0.284,15.47,2.72,6.5,1785102786097.676
-0.906,-0.254,-0.289,16.36,2.66,7.05,1785102786107.892
-0.904,-0.254,-0.294,16.79,2.78,7.14,1785102786118.448
-0.901,-0.252,-0.299,16.51,2.93,6.99,1785102786131.724
-0.899,-0.25,-0.303,15.63,3.11,7.17,1785102786137.475
-0.898,-0.25,-0.305,14.07,3.33,6.78,1785102786147.651
-0.898,-0.256,-0.304,12.63,3.54,6.23,1785102786158.02
-0.894,-0.255,-0.307,11.47,3.57,6.23,1785102786171.321
-0.894,-0.247,-0.308,9.25,3.78,5.95,1785102786176.981
-0.893,-0.255,-0.302,6.99,3.75,5.65,1785102786187.074
-0.889,-0.27,-0.297,6.26,3.81,5.49,1785102786197.4202
-0.892,-0.27,-0.298,7.11,3.97,5.28,1785102786207.819
-0.894,-0.263,-0.298,7.54,4.06,5.4,1785102786218.173
-0.893,-0.272,-0.292,8.0,4.15,5.77,1785102786231.51
-0.893,-0.277,-0.292,9.64,4.27,5.74,1785102786237.0989
-0.897,-0.265,-0.295,11.05,4.33,5.71,1785102786247.2397
-0.897,-0.271,-0.294,11.66,4.33,5.65,1785102786257.646
-0.895,-0.266,-0.296,12.36,4.39,5.28,1785102786268.321
-0.897,-0.269,-0.294,12.18,4.55,4.73,1785102786281.425
-0.896,-0.273,-0.294,12.54,4.24,4.52,1785102786287.2078
-0.897,-0.271,-0.296,12.82,4.12,4.33,1785102786297.3618
-0.897,-0.268,-0.297,12.88,4.12,4.21,1785102786307.7852
-0.897,-0.265,-0.296,12.54,3.97,3.91,1785102786318.2468
-0.897,-0.265,-0.297,11.9,3.78,3.75,1785102786331.5898
-0.897,-0.261,-0.301,11.66,3.51,3.81,1785102786337.466
-0.901,-0.26,-0.3,10.59,3.36,3.6,1785102786347.467
-0.897,-0.275,-0.297,10.38,3.2,3.66,1785102786357.918
-0.897,-0.265,-0.304,11.41,3.08,3.63,1785102786368.438
-0.9,-0.255,-0.306,10.47,2.93,3.88,1785102786381.6042
-0.899,-0.254,-0.305,8.85,2.41,3.94,1785102786387.103
-0.898,-0.264,-0.301,7.84,2.11,3.63,1785102786397.4011
-0.901,-0.257,-0.307,7.63,1.8,3.36,1785102786407.807
-0.904,-0.249,-0.312,5.86,1.5,3.42,1785102786418.133
-0.898,-0.263,-0.311,3.94,1.1,3.66,1785102786431.453
-0.896,-0.261,-0.315,3.23,0.79,3.54,1785102786437.074
-0.894,-0.26,-0.313,2.32,0.73,3.72,1785102786447.0789
-0.891,-0.265,-0.307,1.56,0.4,3.88,1785102786457.4412
-0.887,-0.265,-0.307,1.8,0.31,3.81,1785102786467.868
-0.89,-0.253,-0.306,1.22,0.09,3.72,1785102786478.2332
-0.88,-0.272,-0.302,0.95,0.06,4.03,1785102786491.508
-0.881,-0.274,-0.303,2.72,0.21,3.78,1785102786497.09
-0.883,-0.262,-0.305,3.42,0.46,3.3,1785102786507.2
-0.883,-0.262,-0.305,3.39,0.43,3.51,1785102786517.568
-0.88,-0.261,-0.303,3.17,0.37,2.99,1785102786528.095
-0.884,-0.261,-0.304,3.27,0.43,2.23,1785102786538.3042
-0.885,-0.259,-0.302,2.53,0.49,2.14,1785102786551.562
-0.887,-0.264,-0.301,2.72,0.58,1.65,1785102786557.167
-0.89,-0.275,-0.298,2.72,0.58,1.65,1785102786567.236
-0.895,-0.28,-0.296,3.69,0.73,1.71,1785102786577.606
-0.897,-0.277,-0.296,5.16,0.7,2.23,1785102786588.189
-0.897,-0.277,-0.3,6.01,0.61,2.59,1785102786598.415
-0.895,-0.273,-0.297,6.47,0.49,2.26,1785102786611.6018
-0.895,-0.283,-0.294,7.45,0.4,2.35,1785102786617.315
-0.898,-0.273,-0.3,8.36,0.09,2.23,1785102786627.23
-0.898,-0.267,-0.301,7.72,-0.09,1.98,1785102786637.6719
-0.898,-0.274,-0.302,6.9,-0.46,1.68,1785102786648.3208
-0.894,-0.278,-0.302,6.99,-0.61,1.37,1785102786661.282
-0.897,-0.271,-0.309,7.26,-0.85,1.13,1785102786667.0542
-0.896,-0.262,-0.311,6.35,-1.16,1.1,1785102786676.95
-0.897,-0.262,-0.312,4.76,-1.43,0.67,1785102786687.3547
-0.893,-0.276,-0.311,3.88,-1.68,0.64,1785102786697.8098
-0.891,-0.263,-0.317,3.81,-1.8,0.73,1785102786708.266
-0.891,-0.258,-0.32,2.2,-1.95,0.61,1785102786721.396
-0.888,-0.264,-0.322,0.18,-2.11,0.24,1785102786727.0159
-0.887,-0.271,-0.319,-0.95,-2.17,-0.06,1785102786737.049
-0.887,-0.272,-0.32,-1.01,-2.29,-0.4,1785102786747.539
-0.889,-0.261,-0.324,-1.92,-2.56,-0.67,1785102786757.804
-0.891,-0.257,-0.323,-4.58,-2.66,-1.25,1785102786768.295
-0.89,-0.26,-0.322,-7.42,-2.69,-1.8,1785102786781.512
-0.894,-0.261,-0.318,-9.98,-2.69,-2.14,1785102786787.093
-0.894,-0.262,-0.315,-12.12,-2.72,-2.56,1785102786797.291
-0.892,-0.265,-0.311,-13.76,-2.66,-2.75,1785102786807.688
-0.895,-0.267,-0.306,-15.05,-2.56,-2.93,1785102786818.2312
-0.894,-0.267,-0.298,-15.81,-2.44,-3.36,1785102786831.49
-0.896,-0.267,-0.292,-15.69,-2.32,-3.42,1785102786837.212
-0.899,-0.265,-0.288,-15.02,-2.23,-3.48,1785102786847.383
-0.9,-0.262,-0.286,-13.86,-2.38,-3.66,1785102786857.7761
-0.9,-0.261,-0.286,-12.85,-2.56,-3.63,1785102786868.3179
-0.901,-0.258,-0.284,-12.21,-2.56,-3.51,1785102786881.57
-0.902,-0.258,-0.284,-11.78,-2.69,-3.33,1785102786887.382
-0.902,-0.256,-0.282,-11.66,-2.99,-3.11,1785102786897.5151
-0.903,-0.256,-0.282,-11.2,-3.3,-2.99,1785102786908.047
-0.907,-0.256,-0.281,-10.62,-3.72,-2.75,1785102786918.432
-0.911,-0.256,-0.281,-10.16,-4.06,-2.38,1785102786931.7373
-0.913,-0.256,-0.28,-9.58,-4.46,-2.01,1785102786937.477
-0.907,-0.256,-0.283,-8.94,-4.79,-1.8,1785102786947.4648
-0.903,-0.256,-0.281,-8.27,-4.97,-1.65,1785102786957.757
-0.901,-0.255,-0.285,-7.48,-5.43,-1.53,1785102786968.3289
-0.902,-0.254,-0.287,-6.71,-5.83,-1.56,1785102786981.508
-0.903,-0.253,-0.292,-6.38,-5.98,-1.65,1785102786987.0798
-0.901,-0.251,-0.297,-6.32,-6.16,-1.83,1785102786997.247
-0.9,-0.25,-0.299,-6.62,-6.26,-2.17,1785102787007.482
-0.9,-0.252,-0.3,-7.29,-6.16,-2.35,1785102787017.879
-0.899,-0.254,-0.3,-7.66,-6.16,-2.26,1785102787028.354
-0.898,-0.254,-0.3,-7.69,-5.98,-2.23,1785102787041.462
-0.9,-0.252,-0.3,-7.6,-5.8,-2.17,1785102787047.128
-0.901,-0.252,-0.3,-7.69,-5.83,-1.98,1785102787057.145
-0.903,-0.25,-0.299,-7.81,-5.89,-1.83,1785102787067.5918
-0.905,-0.25,-0.301,-8.18,-5.89,-1.71,1785102787077.909
-0.905,-0.252,-0.301,-8.79,-5.68,-1.56,1785102787088.371
-0.902,-0.254,-0.298,-9.46,-5.62,-1.4,1785102787101.604
-0.901,-0.256,-0.297,-10.16,-5.62,-1.13,1785102787107.2969
-0.898,-0.254,-0.295,-10.53,-5.62,-0.92,1785102787117.4678
-0.9,-0.255,-0.29,-10.59,-5.58,-0.64,1785102787128.0188
-0.903,-0.256,-0.29,-10.56,-5.65,-0.73,1785102787138.3303
-0.902,-0.258,-0.29,-10.56,-5.71,-0.92,1785102787151.674
-0.901,-0.256,-0.288,-10.74,-5.43,-0.85,1785102787157.4258
-0.902,-0.256,-0.29,-11.26,-5.31,-0.73,1785102787167.564
-0.897,-0.256,-0.287,-11.9,-5.34,-0.82,1785102787178.018
-0.897,-0.255,-0.288,-12.54,-5.16,-1.28,1785102787191.231
-0.894,-0.253,-0.289,-13.28,-4.97,-1.5,1785102787197.186
-0.895,-0.256,-0.286,-14.01,-4.82,-1.8,1785102787207.1482
-0.897,-0.255,-0.286,-14.37,-4.73,-2.53,1785102787217.668
-0.89,-0.254,-0.282,-14.65,-4.58,-2.56,1785102787228.385
-0.894,-0.258,-0.279,-14.37,-4.15,-2.29,1785102787241.369
-0.897,-0.254,-0.281,-13.92,-4.21,-3.17,1785102787247.605
-0.892,-0.254,-0.281,-13.58,-4.09,-3.08,1785102787257.301
-0.889,-0.255,-0.282,-12.85,-3.72,-3.27,1785102787267.8171
-0.896,-0.254,-0.281,-11.81,-3.23,-3.27,1785102787278.245
-0.899,-0.248,-0.28,-11.23,-3.2,-3.78,1785102787291.518
-0.895,-0.247,-0.278,-10.83,-2.78,-4.0,1785102787297.422
-0.897,-0.253,-0.274,-10.13,-2.14,-3.94,1785102787307.4492
-0.906,-0.25,-0.274,-9.06,-1.8,-4.21,1785102787317.856
-0.908,-0.245,-0.273,-8.06,-1.28,-4.67,1785102787328.3389
-0.898,-0.248,-0.267,-6.9,-0.76,-4.7,1785102787341.439
-0.898,-0.248,-0.261,-4.67,-0.21,-4.61,1785102787347.471
-0.915,-0.237,-0.255,-2.53,-0.09,-5.04,1785102787357.104
-0.934,-0.228,-0.253,-1.28,-0.4,-5.28,1785102787367.538
-0.955,-0.227,-0.256,-0.37,-0.64,-4.91,1785102787377.9048
-0.962,-0.22,-0.26,-0.34,-1.04,-5.07,1785102787388.267
-0.963,-0.22,-0.266,-0.76,-1.19,-3.97,1785102787401.4358
-0.96,-0.219,-0.273,-1.28,-1.5,-2.53,1785102787407.385
-0.945,-0.219,-0.271,-1.83,-1.65,-0.4,1785102787417.779
-0.928,-0.227,-0.267,-1.31,-1.92,1.68,1785102787427.256
-0.918,-0.232,-0.264,0.4,-2.44,3.11,1785102787437.712
-0.915,-0.23,-0.265,3.02,-3.14,4.0,1785102787448.085
-0.907,-0.224,-0.266,5.86,-3.69,4.82,1785102787461.3472
-0.897,-0.225,-0.271,8.12,-4.09,5.22,1785102787466.9
-0.893,-0.225,-0.278,9.95,-4.46,5.22,1785102787477.069
-0.89,-0.229,-0.284,11.44,-4.73,4.85,1785102787487.531
-0.889,-0.235,-0.286,12.82,-4.97,4.64,1785102787498.092
-0.891,-0.238,-0.289,13.79,-5.19,4.24,1785102787511.282
-0.89,-0.242,-0.296,14.34,-5.4,3.97,1785102787517.001
-0.888,-0.243,-0.301,14.28,-5.28,3.23,1785102787527.1611
-0.888,-0.24,-0.308,13.61,-4.61,2.78,1785102787537.666
-0.885,-0.238,-0.309,12.21,-3.57,2.84,1785102787548.079
-0.881,-0.233,-0.308,9.86,-2.08,3.3,1785102787561.437
-0.874,-0.235,-0.303,6.74,-0.03,4.49,1785102787567.232
-0.88,-0.262,-0.287,3.81,1.83,5.86,1785102787577.222
-0.897,-0.279,-0.278,3.45,2.38,5.22,1785102787587.606
-0.898,-0.283,-0.276,5.22,3.02,4.94,1785102787598.1738
-0.9,-0.288,-0.28,7.39,3.69,4.58,1785102787608.3982
-0.906,-0.29,-0.281,9.34,4.39,3.66,1785102787621.6519
-0.915,-0.278,-0.278,10.71,4.79,2.81,1785102787627.412
-0.929,-0.283,-0.276,10.77,5.04,2.59,1785102787637.507
-0.928,-0.278,-0.273,10.25,5.07,1.74,1785102787648.227
-0.925,-0.283,-0.272,9.61,4.73,1.16,1785102787658.315
-0.918,-0.279,-0.277,8.58,4.33,-0.06,1785102787671.593
-0.92,-0.279,-0.274,6.68,4.18,-0.92,1785102787677.196
-0.922,-0.281,-0.272,5.34,3.51,-1.83,1785102787687.23
-0.923,-0.276,-0.27,3.97,3.02,-2.59,1785102787697.782
-0.912,-0.265,-0.27,2.35,2.53,-3.14,1785102787708.172
-0.903,-0.258,-0.268,0.37,2.32,-3.33,1785102787718.456
-0.903,-0.257,-0.266,-1.56,1.98,-3.63,1785102787731.801
-0.903,-0.257,-0.271,-3.2,1.5,-4.15,1785102787737.35
-0.902,-0.257,-0.283,-4.82,1.28,-4.67,1785102787747.638
-0.896,-0.255,-0.291,-6.07,1.37,-5.04,1785102787757.6858
-0.89,-0.255,-0.287,-6.87,1.31,-5.37,1785102787768.286
-0.89,-0.253,-0.282,-7.02,1.4,-5.62,1785102787781.4841
-0.892,-0.254,-0.273,-6.9,1.43,-5.74,1785102787787.009
-0.892,-0.254,-0.273,-6.23,1.62,-5.31,1785102787797.197
-0.894,-0.253,-0.27,-5.19,1.95,-4.85,1785102787807.39
-0.895,-0.252,-0.273,-4.39,2.35,-4.52,1785102787817.844
-0.899,-0.253,-0.279,-3.57,2.87,-4.52,1785102787828.379
-0.896,-0.25,-0.278,-1.98,3.63,-3.05,1785102787841.412
-0.894,-0.259,-0.277,-1.98,3.63,-3.05,1785102787847.541
-0.913,-0.266,-0.283,-0.06,3.91,-2.72,1785102787857.11
-0.906,-0.256,-0.284,0.98,4.33,-2.78,1785102787867.5
-0.896,-0.269,-0.272,2.93,5.62,-1.19,1785102787877.878
-0.908,-0.259,-0.27,5.28,5.71,-1.31,1785102787888.3462
-0.901,-0.256,-0.265,7.57,5.77,-1.19,1785102787901.6042
-0.9,-0.26,-0.258,10.25,6.29,-1.46,1785102787907.235
-0.898,-0.254,-0.261,12.15,6.23,-2.66,1785102787917.349
-0.906,-0.238,-0.264,13.15,6.07,-3.45,1785102787927.797
-0.906,-0.234,-0.268,11.9,5.46,-4.97,1785102787938.2898
-0.903,-0.244,-0.265,10.25,5.25,-5.89,1785102787951.585
-0.906,-0.242,-0.261,9.22,4.85,-7.02,1785102787957.251
-0.904,-0.245,-0.252,8.64,4.36,-7.29,1785102787967.319
-0.904,-0.256,-0.254,9.49,4.0,-5.83,1785102787977.6199
-0.914,-0.254,-0.254,11.29,3.66,-4.73,1785102787988.451
-0.926,-0.254,-0.253,13.06,2.9,-3.72,1785102788001.47
-0.924,-0.249,-0.257,14.28,2.11,-3.2,1785102788007.232
-0.918,-0.255,-0.255,15.44,1.83,-1.83,1785102788017.3599
-0.919,-0.26,-0.253,16.75,1.13,-1.62,1785102788027.848
-0.907,-0.257,-0.255,18.16,0.55,-0.67,1785102788038.239
-0.908,-0.266,-0.256,19.26,0.0,0.61,1785102788051.389
-0.906,-0.266,-0.261,20.51,-0.89,0.92,1785102788057.307
-0.902,-0.26,-0.266,21.3,-1.37,1.19,1785102788067.499
-0.893,-0.254,-0.273,21.42,-1.62,2.35,1785102788077.9788
-0.893,-0.257,-0.275,20.08,-0.95,4.0,1785102788088.429
-0.906,-0.275,-0.28,19.1,-1.22,4.36,1785102788101.773
-0.905,-0.275,-0.281,19.1,-1.22,4.46,1785102788107.5461
-0.91,-0.293,-0.276,19.81,-0.95,4.73,1785102788117.635
-0.913,-0.287,-0.28,20.97,-1.13,4.49,1785102788129.174
-0.921,-0.288,-0.279,21.42,-0.89,5.04,1785102788141.2979
-0.916,-0.29,-0.283,22.22,-0.95,5.19,1785102788148.775
-0.913,-0.287,-0.283,22.22,-0.4,5.46,1785102788157.2102
-0.912,-0.283,-0.291,21.55,-0.15,5.55,1785102788167.743
-0.913,-0.295,-0.287,20.45,0.0,5.55,1785102788178.2122
-0.91,-0.287,-0.29,20.08,-0.21,5.19,1785102788191.37
-0.913,-0.287,-0.297,18.52,-0.12,5.71,1785102788197.4678
-0.918,-0.297,-0.3,16.36,-0.12,5.62,1785102788207.316
-0.911,-0.283,-0.306,14.8,0.0,5.95,1785102788217.8472
-0.905,-0.276,-0.302,11.78,0.43,6.96,1785102788228.3882
-0.902,-0.295,-0.295,8.97,0.4,6.93,1785102788241.524
-0.902,-0.302,-0.291,8.36,0.0,6.47,1785102788247.6318
-0.898,-0.287,-0.293,7.57,0.03,6.9,1785102788257.17
-0.898,-0.285,-0.292,5.8,0.03,6.81,1785102788267.576
-0.895,-0.282,-0.293,3.51,-0.43,6.38,1785102788277.984
-0.893,-0.28,-0.29,0.37,-0.67,5.55,1785102788288.3342
-0.895,-0.284,-0.287,-2.75,-1.13,4.73,1785102788301.6372
-0.893,-0.292,-0.287,-5.25,-1.86,4.06,1785102788307.2278
-0.892,-0.292,-0.288,-6.84,-2.35,3.45,1785102788317.2732
-0.894,-0.294,-0.29,-7.87,-2.84,3.17,1785102788327.6658
-0.891,-0.296,-0.295,-8.67,-3.39,3.23,1785102788338.017
-0.891,-0.293,-0.292,-9.52,-3.54,2.87,1785102788348.4648
-0.893,-0.285,-0.292,-10.47,-3.88,2.99,1785102788361.64
-0.892,-0.291,-0.292,-12.05,-3.97,3.2,1785102788367.698
-0.893,-0.293,-0.291,-13.64,-3.85,2.78,1785102788377.5981
-0.89,-0.3,-0.292,-14.47,-3.72,2.62,1785102788388.223
-0.89,-0.306,-0.292,-14.71,-3.42,2.5,1785102788401.367
-0.893,-0.298,-0.296,-14.83,-2.96,2.32,1785102788407.171
-0.897,-0.286,-0.295,-16.51,-2.5,1.92,1785102788417.3381
-0.897,-0.285,-0.296,-18.83,-2.23,1.65,1785102788427.756
-0.896,-0.288,-0.298,-21.0,-1.71,1.1,1785102788438.1921
-0.9,-0.282,-0.297,-23.44,-1.07,0.4,1785102788451.494
-0.902,-0.279,-0.293,-25.79,-0.67,-0.03,1785102788457.278
-0.904,-0.278,-0.288,-27.92,-0.27,-0.49,1785102788467.4011
-0.905,-0.279,-0.283,-29.42,0.09,-1.07,1785102788477.8362
-0.906,-0.278,-0.281,-30.34,0.58,-1.83,1785102788488.368
-0.906,-0.272,-0.278,-30.85,0.98,-2.47,1785102788501.667
-0.904,-0.269,-0.275,-31.01,1.1,-2.84,1785102788507.4958
-0.901,-0.264,-0.273,-30.49,1.31,-3.3,1785102788517.571
-0.903,-0.264,-0.27,-29.63,1.53,-3.81,1785102788528.211
-0.908,-0.26,-0.268,-28.5,1.28,-4.27,1785102788538.4377
-0.913,-0.258,-0.267,-27.19,1.25,-4.49,1785102788551.753
-0.917,-0.252,-0.264,-25.82,1.22,-4.49,1785102788557.549
-0.914,-0.254,-0.265,-24.02,1.07,-4.36,1785102788567.6511
-0.907,-0.241,-0.268,-22.1,0.82,-4.18,1785102788578.105
-0.907,-0.239,-0.262,-21.0,0.76,-3.57,1785102788591.33
-0.903,-0.238,-0.262,-19.62,0.46,-3.78,1785102788597.456
-0.901,-0.23,-0.263,-18.19,0.43,-3.6,1785102788607.279
-0.907,-0.229,-0.262,-17.24,0.27,-3.02,1785102788617.789
-0.906,-0.229,-0.263,-15.87,-0.09,-2.41,1785102788628.33
-0.908,-0.23,-0.263,-14.53,-0.27,-2.14,1785102788641.48
-0.908,-0.237,-0.268,-12.24,-0.64,-1.83,1785102788647.89
-0.905,-0.223,-0.274,-10.25,-0.46,-1.43,1785102788657.383
-0.908,-0.224,-0.276,-9.77,-0.12,-0.34,1785102788667.832
-0.907,-0.239,-0.272,-8.94,-0.4,0.43,1785102788678.179
-0.908,-0.244,-0.274,-6.29,-0.73,0.73,1785102788691.367
-0.907,-0.238,-0.276,-3.54,-0.7,1.04,1785102788697.309
-0.907,-0.238,-0.279,-1.65,-0.46,1.34,1785102788707.189
-0.906,-0.239,-0.283,-0.03,-0.31,1.4,1785102788717.528
-0.902,-0.239,-0.285,1.1,-0.06,1.22,1785102788727.942
-0.902,-0.243,-0.285,1.95,0.15,1.22,1785102788738.2168
-0.905,-0.245,-0.284,2.93,0.34,0.89,1785102788751.502
-0.906,-0.244,-0.282,4.0,0.79,0.7,1785102788757.0933
-0.913,-0.248,-0.282,4.7,1.04,0.64,1785102788767.257
-0.913,-0.245,-0.283,5.52,1.22,0.18,1785102788777.5093
-0.91,-0.246,-0.281,6.1,1.62,0.34,1785102788788.079
-0.915,-0.247,-0.282,6.93,1.43,-0.27,1785102788798.441
-0.907,-0.242,-0.281,7.63,1.46,-0.49,1785102788811.5708
-0.905,-0.241,-0.283,7.57,1.8,-0.09,1785102788817.364
-0.913,-0.248,-0.284,7.14,1.62,-0.09,1785102788827.1912
-0.924,-0.251,-0.29,7.29,0.92,-1.04,1785102788837.598
-0.905,-0.238,-0.297,6.84,0.92,-1.1,1785102788848.215
-0.904,-0.247,-0.294,5.19,1.83,0.21,1785102788858.33
-0.913,-0.248,-0.293,4.43,1.16,-0.4,1785102788871.589
-0.901,-0.244,-0.291,3.66,0.92,-0.55,1785102788877.2622
-0.892,-0.244,-0.293,2.75,1.22,0.03,1785102788887.3447
-0.896,-0.246,-0.29,1.92,1.46,0.7,1785102788897.86
-0.907,-0.246,-0.29,1.65,1.25,0.34,1785102788908.174
-0.906,-0.246,-0.291,1.34,0.95,0.18,1785102788918.514
-0.917,-0.255,-0.293,1.16,0.58,-0.15,1785102788931.8508
-0.915,-0.246,-0.303,0.7,-0.06,-1.43,1785102788937.3179
-0.896,-0.247,-0.305,-0.46,0.49,-0.46,1785102788947.617
-0.899,-0.249,-0.31,-2.11,1.01,0.12,1785102788957.716
-0.901,-0.248,-0.314,-3.75,0.76,0.03,1785102788968.291
-0.895,-0.247,-0.313,-4.85,0.79,-0.43,1785102788981.5117
-0.89,-0.248,-0.308,-5.86,1.28,-0.73,1785102788987.0452
-0.884,-0.245,-0.301,-6.81,2.08,-0.95,1785102788997.299
-0.888,-0.241,-0.293,-7.54,2.47,-1.56,1785102789007.425
-0.887,-0.239,-0.285,-7.87,2.35,-2.66,1785102789017.7952
-0.89,-0.242,-0.283,-7.75,2.41,-3.66,1785102789028.363
-0.899,-0.244,-0.285,-7.29,2.53,-4.55,1785102789041.4897
-0.907,-0.241,-0.288,-6.78,2.81,-5.04,1785102789049.304
-0.912,-0.241,-0.287,-6.41,3.08,-5.13,1785102789057.138
-0.913,-0.239,-0.287,-6.04,3.39,-4.85,1785102789067.508
-0.911,-0.236,-0.287,-5.28,3.48,-4.0,1785102789077.976
-0.911,-0.236,-0.287,-4.52,3.48,-3.23,1785102789088.344
-0.915,-0.235,-0.281,-3.51,3.63,-2.29,1785102789101.7668
-0.919,-0.234,-0.277,-1.95,3.72,-1.19,1785102789107.2031
-0.919,-0.233,-0.271,-0.15,3.54,0.03,1785102789117.207
-0.919,-0.235,-0.272,1.92,3.48,1.1,1785102789127.5452
-0.92,-0.236,-0.273,1.92,3.48,1.1,1785102789137.956
-0.917,-0.236,-0.272,4.27,3.3,2.17,1785102789148.437
-0.913,-0.236,-0.274,6.56,2.75,3.11,1785102789161.647
-0.908,-0.233,-0.277,8.42,2.32,3.75,1785102789167.458
-0.905,-0.231,-0.281,9.64,1.83,4.18,1785102789177.257
-0.903,-0.231,-0.286,10.41,1.13,4.58,1785102789187.7483
-0.902,-0.234,-0.289,10.9,0.49,4.85,1785102789198.318
-0.901,-0.234,-0.292,11.14,0.09,4.79,1785102789211.447
-0.899,-0.234,-0.296,11.26,-0.43,4.64,1785102789217.3718
-0.898,-0.238,-0.295,11.26,-0.92,4.49,1785102789227.395
-0.896,-0.243,-0.294,11.35,-1.34,4.43,1785102789237.865
-0.899,-0.247,-0.295,11.69,-1.77,4.24,1785102789248.3572
-0.903,-0.246,-0.299,12.15,-2.2,4.0,1785102789261.534
-0.907,-0.246,-0.308,12.36,-2.66,3.88,1785102789267.5112
-0.903,-0.248,-0.312,12.09,-2.47,4.0,1785102789277.517
-0.903,-0.249,-0.315,11.17,-2.41,3.91,1785102789288.1
-0.899,-0.252,-0.312,10.07,-2.08,3.94,1785102789298.5288
-0.9,-0.259,-0.308,9.64,-1.65,4.33,1785102789311.702
-0.909,-0.26,-0.306,8.76,-1.59,4.12,1785102789317.4321
-0.908,-0.257,-0.307,7.26,-1.53,4.12,1785102789327.3752
-0.904,-0.26,-0.308,5.86,-1.28,4.15,1785102789337.7458
-0.905,-0.262,-0.308,4.67,-0.85,3.72,1785102789348.238
-0.908,-0.259,-0.311,3.42,-0.49,3.39,1785102789361.373
-0.91,-0.261,-0.312,2.01,-0.18,2.75,1785102789367.1191
-0.912,-0.258,-0.31,0.31,-0.06,1.56,1785102789377.07
-0.902,-0.258,-0.306,-1.22,0.34,1.28,1785102789387.432
-0.9,-0.268,-0.302,-1.59,0.85,1.95,1785102789397.877
-0.907,-0.254,-0.303,-1.86,0.61,0.7,1785102789408.258
-0.899,-0.256,-0.298,-2.29,0.55,0.73,1785102789421.471
-0.901,-0.252,-0.3,-2.17,0.37,0.12,1785102789427.1099
-0.893,-0.25,-0.297,-2.29,0.37,0.34,1785102789437.148
-0.898,-0.251,-0.292,-1.74,0.37,0.61,1785102789447.747
-0.903,-0.253,-0.292,-0.85,-0.31,0.43,1785102789457.8518
-0.897,-0.244,-0.299,0.27,-1.22,-0.61,1785102789468.2769
-0.884,-0.246,-0.297,0.89,-0.95,0.4,1785102789481.652
-0.903,-0.251,-0.301,1.37,-1.07,0.52,1785102789487.2
-0.893,-0.243,-0.309,1.68,-1.65,0.09,1785102789497.4458
-0.885,-0.251,-0.31,1.74,-1.22,0.85,1785102789507.554
-0.891,-0.25,-0.313,1.19,-1.01,1.43,1785102789517.98
-0.911,-0.248,-0.314,0.03,-1.4,1.43,1785102789528.3499
-0.897,-0.242,-0.319,-2.04,-1.74,0.55,1785102789541.573
-0.895,-0.249,-0.308,-3.57,-1.07,1.8,1785102789547.7349
-0.901,-0.246,-0.31,-4.55,-1.34,1.8,1785102789557.239
-0.897,-0.249,-0.308,-5.52,-1.25,1.95,1785102789567.677
-0.901,-0.257,-0.302,-6.44,-1.16,1.8,1785102789578.046
-0.906,-0.24,-0.296,-7.17,-1.8,0.61,1785102789588.413
-0.891,-0.235,-0.287,-6.93,-1.31,1.83,1785102789601.789
-0.905,-0.245,-0.29,-6.1,-1.22,2.11,1785102789607.35
-0.894,-0.244,-0.293,-4.94,-1.34,1.07,1785102789617.389
-0.897,-0.249,-0.299,-3.78,-0.21,0.98,1785102789627.691
-0.9,-0.249,-0.305,-3.51,0.12,0.46,1785102789638.155
-0.894,-0.254,-0.306,-3.94,0.21,0.09,1785102789651.408
-0.896,-0.256,-0.308,-4.52,0.49,-0.79,1785102789656.926
-0.897,-0.251,-0.303,-5.4,0.85,-0.61,1785102789667.223
-0.908,-0.254,-0.298,-6.07,0.89,-0.34,1785102789677.3892
-0.91,-0.252,-0.299,-5.68,0.73,-0.89,1785102789687.925
-0.909,-0.248,-0.305,-4.7,0.79,-1.19,1785102789698.313
-0.906,-0.243,-0.306,-4.36,0.85,-1.25,1785102789711.458
-0.902,-0.242,-0.303,-4.55,0.85,-1.5,1785102789717.22
-0.897,-0.243,-0.3,-5.46,0.76,-1.5,1785102789727.133
-0.902,-0.24,-0.291,-6.41,0.55,-1.65,1785102789737.4639
-0.899,-0.233,-0.287,-6.26,0.4,-1.53,1785102789747.93
-0.893,-0.225,-0.285,-5.8,0.0,-1.19,1785102789758.199
-0.889,-0.231,-0.28,-5.65,0.09,-0.61,1785102789771.468
-0.896,-0.239,-0.276,-5.58,-0.15,-0.79,1785102789777.1467
-0.898,-0.246,-0.277,-4.55,-0.55,-1.1,1785102789787.2332
-0.904,-0.243,-0.28,-2.9,-0.85,-1.16,1785102789797.714
-0.901,-0.238,-0.28,-1.1,-0.95,-0.46,1785102789808.055
-0.901,-0.238,-0.286,1.1,-0.73,0.06,1785102789818.306
-0.9,-0.239,-0.292,2.56,-0.55,0.49,1785102789831.695
-0.897,-0.241,-0.289,3.66,-0.73,0.85,1785102789837.258
-0.896,-0.245,-0.295,5.25,-1.07,0.79,1785102789847.533
-0.896,-0.246,-0.302,6.71,-1.22,0.52,1785102789857.568
-0.899,-0.244,-0.303,7.57,-1.37,0.73,1785102789868.149
-0.901,-0.246,-0.304,8.09,-1.74,0.79,1785102789878.391
-0.901,-0.246,-0.308,8.45,-2.01,0.55,1785102789891.614
-0.898,-0.247,-0.309,8.24,-1.83,0.61,1785102789897.449
-0.898,-0.25,-0.308,7.35,-1.68,1.1,1785102789907.3027
-0.896,-0.25,-0.305,6.41,-1.71,1.28,1785102789917.701
-0.899,-0.25,-0.302,5.58,-1.74,1.19,1785102789928.267
-0.898,-0.249,-0.3,4.58,-1.8,0.98,1785102789938.438
-0.898,-0.248,-0.299,3.69,-2.01,0.76,1785102789951.594
-0.898,-0.25,-0.297,2.69,-2.2,0.21,1785102789957.1353
-0.896,-0.253,-0.296,1.77,-2.29,-0.43,1785102789967.407
-0.893,-0.253,-0.297,1.43,-2.2,-0.61,1785102789977.744
-0.896,-0.251,-0.299,1.04,-1.95,-0.7,1785102789988.2358
-0.901,-0.248,-0.301,0.06,-1.89,-0.92,1785102790001.507
-0.901,-0.248,-0.303,-0.92,-2.17,-1.04,1785102790007.019
-0.902,-0.25,-0.301,-1.98,-2.59,-1.37,1785102790017.11
-0.903,-0.252,-0.299,-2.81,-3.02,-1.71,1785102790027.549
-0.902,-0.253,-0.3,-3.39,-3.17,-2.08,1785102790037.895
-0.901,-0.253,-0.298,-3.88,-2.96,-1.98,1785102790048.4878
-0.899,-0.255,-0.299,-4.18,-2.81,-1.83,1785102790061.537
-0.901,-0.255,-0.3,-4.67,-2.53,-1.86,1785102790067.373
-0.904,-0.247,-0.299,-5.31,-2.29,-1.74,1785102790077.748
-0.9,-0.24,-0.299,-5.49,-2.08,-1.59,1785102790087.5552
-0.9,-0.241,-0.3,-5.68,-1.8,-2.01,1785102790099.618
-0.904,-0.247,-0.298,-6.44,-1.74,-2.69,1785102790108.137
-0.907,-0.248,-0.296,-6.71,-1.77,-3.3,1785102790121.512
-0.909,-0.247,-0.296,-6.68,-1.71,-3.6,1785102790127.2012
-0.908,-0.243,-0.298,-6.9,-1.56,-3.42,1785102790137.2327
-0.907,-0.24,-0.295,-7.35,-1.13,-3.08,1785102790148.161
-0.908,-0.24,-0.293,-7.66,-0.73,-2.66,1785102790157.9268
-0.907,-0.242,-0.291,-7.87,-0.49,-2.23,1785102790168.3782
-0.907,-0.242,-0.288,-7.54,-0.21,-1.83,1785102790181.7332
-0.908,-0.241,-0.283,-6.81,0.03,-1.4,1785102790187.24
-0.908,-0.241,-0.282,-5.83,-0.12,-1.16,1785102790197.445
-0.908,-0.242,-0.28,-4.67,-0.52,-1.22,1785102790207.658
-0.907,-0.241,-0.281,-3.27,-0.61,-1.4,1785102790218.028
-0.911,-0.239,-0.284,-2.14,-0.55,-1.62,1785102790228.363
-0.918,-0.238,-0.283,-1.83,-0.79,-1.28,1785102790241.613
-0.915,-0.241,-0.283,-2.08,-1.13,-0.43,1785102790247.663
-0.91,-0.244,-0.284,-2.11,-1.04,0.21,1785102790257.2969
-0.909,-0.245,-0.285,-1.68,-1.13,0.82,1785102790267.7498
-0.904,-0.248,-0.286,-1.04,-1.43,1.43,1785102790277.993
-0.899,-0.25,-0.287,-0.09,-1.53,1.4,1785102790291.366
