ax,ay,az,gx,gy,gz,timestamp_ms
-0.943,-0.228,-0.28,-22.92,-2.62,-12.48,1785102687538.508
-0.942,-0.226,-0.279,-21.18,-2.56,-9.37,1785102687538.797
-0.939,-0.225,-0.278,-18.89,-2.56,-6.01,1785102687539.073
-0.936,-0.224,-0.275,-16.05,-2.66,-3.08,1785102687539.361
-0.928,-0.223,-0.275,-12.63,-2.99,-0.43,1785102687539.652
-0.922,-0.221,-0.273,-9.13,-3.66,1.28,1785102687539.9412
-0.916,-0.218,-0.274,-5.58,-4.61,2.23,1785102687540.237
-0.916,-0.218,-0.276,-2.08,-5.31,2.69,1785102687540.5222
-0.915,-0.219,-0.282,1.19,-5.74,3.14,1785102687540.7988
-0.914,-0.221,-0.286,4.39,-6.1,3.97,1785102687541.0718
-0.91,-0.226,-0.292,6.99,-6.47,5.1,1785102687541.344
-0.906,-0.231,-0.304,8.94,-6.84,5.98,1785102687541.6
-0.903,-0.236,-0.311,10.41,-7.14,6.84,1785102687541.882
-0.898,-0.244,-0.317,11.72,-7.32,7.57,1785102687542.156
-0.893,-0.25,-0.319,13.06,-7.29,8.15,1785102687542.4211
-0.89,-0.255,-0.324,14.19,-6.96,8.73,1785102687542.6921
-0.887,-0.255,-0.324,15.23,-6.13,9.0,1785102687542.9592
-0.884,-0.252,-0.327,15.84,-5.04,9.49,1785102687543.2163
-0.886,-0.255,-0.328,15.41,-3.85,9.46,1785102687543.463
-0.889,-0.257,-0.327,14.44,-2.72,9.31,1785102687543.7063
-0.891,-0.261,-0.325,13.34,-1.53,8.51,1785102687543.957
-0.894,-0.263,-0.318,12.27,-0.4,7.48,1785102687544.194
-0.891,-0.266,-0.314,11.6,0.82,6.44,1785102687544.4521
-0.893,-0.261,-0.312,11.26,2.14,5.07,1785102687544.698
-0.897,-0.26,-0.308,10.59,3.39,3.81,1785102687544.933
-0.898,-0.265,-0.304,10.01,4.43,2.35,1785102687545.175
-0.894,-0.267,-0.301,10.07,5.49,1.37,1785102687545.419
-0.903,-0.268,-0.294,9.8,6.47,0.7,1785102687545.6572
-0.911,-0.285,-0.284,9.89,6.56,0.46,1785102687545.892
-0.918,-0.281,-0.286,11.9,6.29,0.03,1785102687546.13
-0.925,-0.269,-0.286,12.33,6.29,0.61,1785102687546.367
-0.926,-0.27,-0.29,12.12,5.95,1.01,1785102687546.6052
-0.926,-0.27,-0.29,11.44,5.16,1.46,1785102687546.862
-0.926,-0.268,-0.293,10.32,4.73,2.26,1785102687547.125
-0.926,-0.265,-0.296,8.48,4.12,2.69,1785102687547.3862
-0.927,-0.257,-0.302,5.43,3.33,3.39,1785102687547.6401
-0.924,-0.258,-0.303,2.44,2.29,4.15,1785102687547.8962
-0.918,-0.263,-0.302,2.44,2.29,4.15,1785102687548.137
-0.91,-0.264,-0.301,0.12,1.22,4.88,1785102687548.373
-0.908,-0.266,-0.306,-2.17,0.37,6.01,1785102687548.611
-0.904,-0.262,-0.31,-4.67,-0.61,6.59,1785102687548.863
-0.895,-0.264,-0.309,-7.08,-1.19,7.35,1785102687549.088
-0.891,-0.268,-0.307,-8.42,-1.46,8.21,1785102687549.304
-0.89,-0.263,-0.307,-9.13,-1.65,8.64,1785102687549.528
-0.891,-0.259,-0.31,-9.67,-1.83,9.09,1785102687549.7542
-0.896,-0.261,-0.313,-10.44,-1.77,9.28,1785102687549.979
-0.898,-0.261,-0.32,-10.9,-1.53,8.97,1785102687550.206
-0.903,-0.261,-0.324,-11.66,-0.98,8.33,1785102687550.435
-0.901,-0.263,-0.328,-12.45,-0.52,7.6,1785102687550.658
-0.896,-0.265,-0.329,-12.94,0.15,6.81,1785102687550.8962
-0.891,-0.262,-0.329,-13.4,0.92,6.29,1785102687551.1182
-0.887,-0.261,-0.332,-13.4,1.62,6.01,1785102687551.3699
-0.885,-0.259,-0.326,-13.06,2.32,5.22,1785102687551.6218
-0.877,-0.249,-0.325,-12.76,2.96,3.63,1785102687551.894
-0.867,-0.252,-0.318,-11.84,4.27,3.14,1785102687552.126
-0.868,-0.244,-0.316,-10.56,4.76,2.23,1785102687552.3489
-0.858,-0.235,-0.314,-9.52,5.34,1.74,1785102687552.59
-0.861,-0.24,-0.308,-8.33,6.26,1.65,1785102687552.8162
-0.867,-0.237,-0.31,-6.47,6.38,0.34,1785102687553.036
-0.865,-0.228,-0.312,-4.97,6.71,-0.64,1785102687553.272
-0.869,-0.227,-0.309,-4.43,7.05,-1.07,1785102687553.494
-0.873,-0.232,-0.305,-3.88,6.99,-1.53,1785102687553.7168
-0.877,-0.234,-0.297,-2.53,6.99,-2.11,1785102687553.937
-0.878,-0.236,-0.294,-0.37,6.99,-2.47,1785102687554.1648
-0.881,-0.235,-0.291,2.53,6.81,-2.62,1785102687554.398
-0.886,-0.237,-0.29,5.65,6.65,-2.62,1785102687554.625
-0.889,-0.239,-0.288,9.0,6.59,-2.5,1785102687554.839
-0.891,-0.237,-0.286,12.39,6.41,-2.29,1785102687555.0562
-0.895,-0.236,-0.288,15.53,6.13,-2.04,1785102687555.267
-0.899,-0.236,-0.29,18.28,5.71,-1.62,1785102687555.4922
-0.9,-0.237,-0.294,20.78,5.4,-1.46,1785102687555.718
-0.901,-0.237,-0.296,23.07,5.13,-1.37,1785102687555.938
-0.903,-0.238,-0.298,25.12,4.58,-1.31,1785102687556.162
-0.903,-0.237,-0.3,26.98,4.21,-1.1,1785102687556.376
-0.907,-0.241,-0.303,28.78,3.91,-0.61,1785102687556.589
-0.907,-0.241,-0.309,30.73,3.51,-0.15,1785102687556.806
-0.906,-0.241,-0.314,32.62,3.17,0.61,1785102687557.02
-0.903,-0.245,-0.321,33.72,2.87,1.46,1785102687557.233
-0.9,-0.247,-0.325,34.21,2.84,2.14,1785102687557.452
-0.902,-0.256,-0.329,34.76,2.62,2.69,1785102687557.657
-0.903,-0.256,-0.33,34.88,2.11,2.99,1785102687557.876
-0.904,-0.259,-0.333,35.49,1.77,3.45,1785102687558.09
-0.902,-0.264,-0.339,35.74,1.74,3.69,1785102687558.3
-0.897,-0.26,-0.345,34.58,2.04,3.51,1785102687558.513
-0.894,-0.258,-0.346,33.33,2.99,3.42,1785102687558.739
-0.896,-0.265,-0.34,31.65,2.93,3.54,1785102687558.951
-0.895,-0.264,-0.346,29.15,2.78,3.85,1785102687559.155
-0.891,-0.244,-0.345,25.51,3.14,4.67,1785102687559.37
-0.889,-0.229,-0.332,18.77,3.48,4.46,1785102687559.5881
-0.894,-0.217,-0.337,11.81,3.27,2.81,1785102687559.795
-0.893,-0.224,-0.333,3.27,3.08,1.62,1785102687560.009
-0.887,-0.254,-0.323,-3.91,2.47,-0.03,1785102687560.224
-0.879,-0.277,-0.316,-7.29,2.2,-1.16,1785102687560.4438
-0.883,-0.292,-0.308,-6.68,2.17,-1.46,1785102687560.653
-0.875,-0.299,-0.306,-3.75,1.43,-0.58,1785102687560.8708
-0.877,-0.291,-0.312,1.22,0.98,0.55,1785102687561.085
-0.886,-0.271,-0.317,4.21,0.67,1.28,1785102687561.302
-0.886,-0.265,-0.321,5.25,0.27,1.86,1785102687561.528
-0.88,-0.257,-0.325,4.73,0.03,2.08,1785102687561.76
-0.872,-0.275,-0.321,3.72,-0.09,1.71,1785102687561.966
-0.867,-0.283,-0.322,4.82,-0.18,1.13,1785102687562.1782
-0.864,-0.289,-0.325,6.04,-0.4,1.4,1785102687562.3848
-0.863,-0.291,-0.325,6.93,-0.76,1.13,1785102687562.5852
-0.861,-0.291,-0.323,8.09,-1.07,0.92,1785102687562.7798
-0.858,-0.28,-0.329,8.61,-1.28,0.31,1785102687562.9749
-0.854,-0.265,-0.33,6.93,-0.85,-0.79,1785102687563.173
-0.848,-0.259,-0.329,3.75,-0.52,-1.22,1785102687563.367
-0.845,-0.274,-0.321,0.49,-0.27,-1.5,1785102687563.57
-0.85,-0.275,-0.316,-1.62,0.18,-2.84,1785102687563.781
-0.855,-0.277,-0.315,-3.14,0.67,-3.08,1785102687563.976
-0.863,-0.283,-0.315,-4.43,0.79,-3.17,1785102687564.193
-0.867,-0.279,-0.314,-5.49,1.37,-3.08,1785102687564.39
-0.887,-0.292,-0.31,-6.07,2.08,-3.2,1785102687564.589
-0.895,-0.283,-0.321,-5.13,1.98,-4.36,1785102687564.806
-0.896,-0.288,-0.314,-5.83,3.08,-3.36,1785102687565.0088
-0.919,-0.299,-0.313,-5.16,2.9,-4.55,1785102687565.206
-0.912,-0.283,-0.315,-3.88,2.9,-5.19,1785102687565.4001
-0.919,-0.292,-0.307,-2.96,3.11,-4.76,1785102687565.5989
-0.92,-0.29,-0.305,-0.79,2.59,-5.68,1785102687565.805
-0.927,-0.283,-0.302,1.92,2.14,-7.05,1785102687566.019
-0.901,-0.265,-0.306,4.27,2.35,-7.32,1785102687566.219
-0.913,-0.273,-0.295,4.94,3.05,-6.13,1785102687566.426
-0.926,-0.266,-0.303,7.17,1.56,-7.78,1785102687566.6208
-0.907,-0.259,-0.306,8.79,1.22,-7.87,1785102687566.823
-0.904,-0.265,-0.307,9.86,1.53,-7.39,1785102687567.026
-0.903,-0.267,-0.308,11.23,1.19,-6.93,1785102687567.216
-0.901,-0.267,-0.307,12.91,0.89,-5.95,1785102687567.414
-0.896,-0.269,-0.307,14.95,0.85,-4.82,1785102687567.615
-0.891,-0.269,-0.304,16.75,0.61,-4.06,1785102687567.816
-0.889,-0.268,-0.304,18.65,0.43,-3.63,1785102687568.0088
-0.889,-0.269,-0.307,20.69,-0.03,-3.3,1785102687568.209
-0.891,-0.271,-0.303,22.31,-0.46,-3.11,1785102687568.405
-0.893,-0.274,-0.302,23.59,-0.98,-2.78,1785102687568.591
-0.895,-0.275,-0.304,24.51,-1.71,-1.83,1785102687568.786
-0.892,-0.273,-0.306,24.78,-2.29,-0.95,1785102687568.981
-0.886,-0.275,-0.308,24.57,-2.66,-0.34,1785102687569.1663
-0.885,-0.279,-0.313,23.65,-3.17,0.43,1785102687569.354
-0.884,-0.266,-0.316,21.18,-3.69,1.65,1785102687569.545
-0.879,-0.265,-0.314,17.12,-3.88,3.51,1785102687569.7349
-0.877,-0.274,-0.316,12.21,-4.12,4.46,1785102687569.917
-0.88,-0.285,-0.314,7.08,-4.3,4.43,1785102687570.106
-0.881,-0.277,-0.32,2.5,-4.18,5.31,1785102687570.2998
-0.88,-0.288,-0.315,-2.99,-4.21,6.29,1785102687570.482
-0.883,-0.287,-0.311,-7.32,-4.58,6.26,1785102687570.6921
-0.884,-0.32,-0.302,-10.07,-4.82,6.29,1785102687570.886
-0.89,-0.326,-0.3,-9.55,-5.43,4.97,1785102687571.0652
-0.886,-0.318,-0.305,-8.24,-5.58,5.22,1785102687571.274
-0.897,-0.317,-0.304,-7.57,-5.89,5.16,1785102687571.4978
-0.897,-0.317,-0.306,-6.68,-6.23,4.97,1785102687571.733
-0.894,-0.303,-0.311,-6.74,-5.95,4.49,1785102687571.948
-0.89,-0.321,-0.31,-8.3,-5.71,3.88,1785102687572.142
-0.893,-0.316,-0.312,-8.42,-5.37,2.17,1785102687572.333
-0.898,-0.325,-0.309,-8.06,-5.28,1.13,1785102687572.516
-0.898,-0.321,-0.308,-7.32,-5.37,-0.21,1785102687572.716
-0.896,-0.302,-0.311,-7.78,-4.61,-1.01,1785102687572.9028
-0.896,-0.3,-0.306,-10.25,-4.18,-1.28,1785102687573.086
-0.896,-0.3,-0.303,-12.7,-4.21,-1.43,1785102687573.2742
-0.894,-0.299,-0.304,-14.19,-3.94,-1.56,1785102687573.468
-0.899,-0.298,-0.303,-15.32,-3.63,-1.25,1785102687573.677
-0.898,-0.301,-0.303,-15.69,-3.45,-1.1,1785102687573.87
-0.898,-0.302,-0.308,-15.96,-3.54,-1.56,1785102687574.06
-0.898,-0.302,-0.308,-17.24,-3.51,-1.71,1785102687574.255
-0.897,-0.298,-0.316,-19.04,-3.27,-1.68,1785102687574.44
-0.901,-0.295,-0.315,-21.21,-4.0,-1.65,1785102687574.625
-0.9,-0.297,-0.302,-23.19,-4.76,-1.56,1785102687574.813
-0.894,-0.295,-0.301,-23.19,-4.76,-1.56,1785102687574.992
-0.897,-0.288,-0.301,-24.14,-4.43,-0.92,1785102687575.1738
-0.897,-0.281,-0.297,-24.11,-4.3,-0.09,1785102687575.361
-0.895,-0.283,-0.296,-23.53,-4.39,0.18,1785102687575.5479
-0.892,-0.286,-0.302,-22.83,-4.46,-0.58,1785102687575.723
-0.889,-0.285,-0.302,-22.64,-4.27,-1.25,1785102687575.9092
-0.889,-0.282,-0.298,-22.74,-4.52,-1.59,1785102687576.087
-0.891,-0.271,-0.295,-23.41,-4.82,-1.62,1785102687576.438
-0.888,-0.271,-0.292,-23.16,-4.91,-1.5,1785102687576.6147
-0.903,-0.24,-0.301,-9.49,-3.69,-8.55,1785102687577.023
-0.903,-0.24,-0.301,-9.28,-3.2,-8.12,1785102687577.201
-0.902,-0.239,-0.299,-9.16,-2.53,-7.66,1785102687579.406
-0.9,-0.241,-0.295,-8.42,-2.23,-7.42,1785102687584.806
-0.901,-0.24,-0.291,-7.57,-1.98,-7.32,1785102687595.0642
-0.903,-0.238,-0.293,-7.42,-1.5,-7.32,1785102687605.47
-0.906,-0.235,-0.297,-7.42,-1.5,-7.32,1785102687615.836
-0.905,-0.236,-0.296,-7.78,-0.89,-7.29,1785102687626.2222
-0.902,-0.241,-0.292,-8.03,-0.43,-7.35,1785102687639.482
-0.904,-0.243,-0.29,-7.69,-0.09,-7.48,1785102687644.875
-0.905,-0.244,-0.293,-7.23,0.15,-7.78,1785102687655.1628
-0.905,-0.242,-0.293,-7.05,0.55,-7.81,1785102687665.653
-0.902,-0.242,-0.289,-7.17,0.92,-8.0,1785102687675.921
-0.901,-0.242,-0.283,-6.9,1.37,-8.15,1785102687686.408
-0.905,-0.241,-0.28,-6.47,1.62,-8.39,1785102687699.6392
-0.907,-0.237,-0.277,-6.2,1.71,-8.58,1785102687705.019
-0.91,-0.238,-0.277,-5.58,1.98,-8.7,1785102687715.2908
-0.914,-0.238,-0.279,-4.85,2.41,-8.88,1785102687725.646
-0.917,-0.244,-0.276,-4.15,2.62,-8.94,1785102687736.0762
-0.923,-0.241,-0.274,-3.57,2.78,-9.0,1785102687746.466
-0.926,-0.24,-0.272,-2.72,2.96,-8.51,1785102687759.8562
-0.924,-0.239,-0.275,-2.01,3.02,-8.0,1785102687765.398
-0.922,-0.237,-0.277,-1.68,3.2,-7.48,1785102687775.575
-0.915,-0.241,-0.277,-1.43,3.39,-6.84,1785102687785.9631
-0.907,-0.243,-0.274,-0.82,3.66,-6.16,1785102687796.299
-0.901,-0.242,-0.27,0.03,3.88,-5.37,1785102687806.6912
-0.901,-0.241,-0.267,1.13,3.85,-4.49,1785102687819.9802
-0.901,-0.239,-0.264,1.74,3.81,-3.85,1785102687825.57
-0.9,-0.238,-0.262,2.11,3.6,-3.36,1785102687835.5432
-0.901,-0.237,-0.262,2.35,3.3,-2.87,1785102687846.0159
-0.904,-0.232,-0.265,2.17,2.99,-2.38,1785102687856.3608
-0.907,-0.228,-0.266,1.4,2.72,-2.04,1785102687866.772
-0.906,-0.231,-0.269,0.46,2.53,-1.77,1785102687880.071
-0.906,-0.239,-0.269,-0.24,2.47,-1.59,1785102687885.7888
-0.911,-0.247,-0.265,-0.06,2.29,-1.37,1785102687895.678
-0.911,-0.25,-0.263,1.1,2.01,-0.7,1785102687906.1838
-0.914,-0.251,-0.259,2.78,1.59,0.15,1785102687916.495
-0.916,-0.251,-0.26,4.3,0.92,0.98,1785102687929.667
-0.919,-0.251,-0.264,5.37,0.27,1.77,1785102687935.368
-0.919,-0.252,-0.272,5.95,-0.34,2.5,1785102687945.343
-0.919,-0.251,-0.278,5.92,-0.98,3.02,1785102687955.56
-0.916,-0.25,-0.281,5.46,-1.68,3.48,1785102687966.2239
-0.918,-0.254,-0.286,5.16,-2.59,4.09,1785102687976.4722
-0.92,-0.255,-0.285,4.76,-3.27,4.33,1785102687989.77
-0.915,-0.254,-0.285,3.94,-3.66,4.55,1785102687995.411
-0.907,-0.255,-0.287,2.87,-4.27,4.7,1785102688005.476
-0.899,-0.256,-0.287,2.14,-4.76,4.85,1785102688015.877
-0.892,-0.253,-0.287,1.68,-5.1,4.85,1785102688026.1929
-0.885,-0.25,-0.291,0.89,-5.31,4.82,1785102688036.596
-0.882,-0.246,-0.291,-0.55,-5.37,4.82,1785102688049.844
-0.886,-0.247,-0.289,-2.41,-5.55,4.64,1785102688055.49
-0.889,-0.252,-0.288,-4.43,-5.58,4.55,1785102688065.542
-0.893,-0.265,-0.287,-5.25,-6.01,4.33,1785102688075.844
-0.892,-0.263,-0.296,-4.64,-6.44,4.33,1785102688086.2952
-0.894,-0.25,-0.306,-5.43,-6.13,4.39,1785102688096.6357
-0.897,-0.252,-0.308,-7.63,-5.8,4.64,1785102688109.865
-0.894,-0.255,-0.301,-10.07,-5.62,4.64,1785102688115.7861
-0.887,-0.272,-0.293,-10.62,-5.49,5.37,1785102688125.76
-0.892,-0.281,-0.291,-8.79,-5.62,6.07,1785102688136.126
-0.9,-0.266,-0.299,-7.48,-5.89,6.13,1785102688146.477
-0.897,-0.264,-0.301,-7.78,-5.65,6.68,1785102688159.897
-0.897,-0.271,-0.298,-8.09,-5.46,6.99,1785102688165.525
-0.902,-0.272,-0.297,-7.72,-5.28,6.78,1785102688175.437
-0.904,-0.276,-0.3,-7.05,-5.07,6.81,1785102688185.8562
-0.905,-0.276,-0.303,-6.71,-4.76,6.71,1785102688196.198
-0.906,-0.276,-0.303,-6.93,-4.33,6.26,1785102688207.494
-0.903,-0.279,-0.301,-6.96,-3.94,5.77,1785102688219.8027
-0.901,-0.282,-0.299,-6.38,-3.39,5.04,1785102688225.445
-0.901,-0.283,-0.296,-5.4,-2.81,4.24,1785102688235.469
-0.905,-0.285,-0.294,-4.06,-2.35,3.3,1785102688245.855
-0.906,-0.279,-0.296,-3.05,-1.83,2.2,1785102688256.257
-0.906,-0.279,-0.295,-2.41,-1.22,1.31,1785102688266.6409
-0.908,-0.281,-0.294,-1.77,-0.58,0.09,1785102688279.861
-0.908,-0.277,-0.295,-1.22,-0.06,-0.98,1785102688285.4988
-0.907,-0.277,-0.294,-0.64,0.7,-1.86,1785102688295.6172
-0.907,-0.277,-0.295,0.12,1.25,-2.75,1785102688305.97
-0.907,-0.274,-0.292,0.95,1.86,-3.66,1785102688316.299
-0.903,-0.27,-0.29,1.71,2.56,-4.61,1785102688326.7178
-0.901,-0.27,-0.286,2.5,3.11,-5.01,1785102688339.9072
-0.901,-0.266,-0.285,3.42,3.51,-5.37,1785102688345.551
-0.902,-0.264,-0.282,3.78,3.85,-5.83,1785102688355.5898
-0.902,-0.262,-0.28,4.24,4.09,-5.95,1785102688365.9949
-0.902,-0.259,-0.281,4.61,4.36,-6.16,1785102688376.394
-0.904,-0.256,-0.279,4.64,4.67,-6.32,1785102688389.7112
-0.905,-0.255,-0.278,4.58,4.91,-6.5,1785102688395.347
-0.905,-0.255,-0.277,4.58,5.1,-6.59,1785102688405.335
-0.909,-0.255,-0.274,5.04,5.1,-6.65,1785102688415.679
-0.913,-0.251,-0.274,5.13,4.91,-7.2,1785102688426.038
-0.912,-0.25,-0.272,5.16,4.91,-6.84,1785102688436.503
-0.914,-0.247,-0.272,5.16,4.94,-6.26,1785102688449.84
-0.92,-0.253,-0.271,4.76,4.67,-5.68,1785102688455.384
-0.919,-0.27,-0.267,5.8,4.46,-4.58,1785102688465.3772
-0.919,-0.266,-0.268,8.55,4.18,-3.66,1785102688475.806
-0.921,-0.243,-0.277,10.5,4.03,-3.36,1785102688486.161
-0.92,-0.22,-0.283,9.43,3.94,-3.6,1785102688496.652
-0.916,-0.223,-0.28,6.32,3.85,-3.91,1785102688509.8892
-0.911,-0.24,-0.274,4.33,3.51,-4.06,1785102688515.6438
-0.915,-0.247,-0.269,4.55,3.02,-4.18,1785102688525.556
-0.914,-0.246,-0.271,5.68,2.41,-3.75,1785102688535.9958
-0.912,-0.233,-0.282,6.1,2.29,-3.45,1785102688546.336
-0.919,-0.22,-0.286,4.52,2.23,-3.3,1785102688556.6677
-0.919,-0.217,-0.287,2.5,1.95,-2.84,1785102688569.952
-0.917,-0.216,-0.286,0.82,1.56,-2.93,1785102688575.5852
-0.911,-0.222,-0.285,0.06,1.43,-2.47,1785102688585.654
-0.917,-0.222,-0.284,-0.18,1.34,-1.86,1785102688596.0378
-0.922,-0.225,-0.289,0.15,0.95,-1.1,1785102688606.451
-0.92,-0.221,-0.288,0.4,0.85,0.06,1785102688619.634
-0.916,-0.218,-0.291,0.76,0.98,1.4,1785102688625.262
-0.916,-0.214,-0.292,0.92,1.19,2.87,1785102688635.309
-0.912,-0.223,-0.295,1.46,1.04,4.21,1785102688645.65
-0.911,-0.233,-0.297,2.81,1.13,5.52,1785102688656.0562
-0.914,-0.237,-0.3,4.94,1.07,6.65,1785102688666.495
-0.912,-0.236,-0.302,7.02,1.1,8.09,1785102688679.538
-0.91,-0.236,-0.301,8.64,1.13,9.4,1785102688685.271
-0.911,-0.24,-0.302,9.92,1.16,10.56,1785102688695.489
-0.907,-0.237,-0.305,11.05,1.28,11.38,1785102688706.071
-0.906,-0.239,-0.303,11.96,1.62,11.87,1785102688716.6492
-0.907,-0.24,-0.307,12.79,1.68,11.75,1785102688729.829
-0.901,-0.243,-0.309,13.06,2.11,11.69,1785102688735.8123
-0.907,-0.252,-0.308,12.79,2.78,11.17,1785102688746.077
-0.903,-0.251,-0.31,12.57,2.84,10.38,1785102688756.585
-0.896,-0.249,-0.307,11.84,3.54,10.22,1785102688769.855
-0.894,-0.247,-0.308,10.38,4.39,9.61,1785102688775.795
-0.897,-0.25,-0.304,8.82,4.94,9.16,1785102688785.771
-0.901,-0.254,-0.299,7.6,5.07,8.03,1785102688796.17
-0.893,-0.263,-0.294,7.39,5.71,7.72,1785102688806.5972
-0.898,-0.267,-0.291,7.72,6.01,7.08,1785102688819.777
-0.897,-0.267,-0.287,8.36,6.29,6.93,1785102688825.438
-0.902,-0.264,-0.288,9.19,6.32,6.26,1785102688835.499
-0.901,-0.259,-0.288,9.52,6.38,5.46,1785102688845.9521
-0.901,-0.259,-0.288,9.77,6.68,5.34,1785102688856.217
-0.898,-0.262,-0.285,10.13,6.81,5.01,1785102688866.7048
-0.897,-0.263,-0.284,10.59,6.71,4.7,1785102688879.916
-0.899,-0.261,-0.283,10.86,6.68,4.76,1785102688885.843
-0.895,-0.262,-0.281,10.86,6.68,4.76,1785102688895.862
-0.895,-0.26,-0.281,11.2,6.38,4.64,1785102688906.403
-0.892,-0.258,-0.282,11.84,6.35,4.73,1785102688919.73
-0.897,-0.253,-0.281,12.09,5.86,4.24,1785102688925.431
-0.893,-0.255,-0.278,12.05,5.55,4.18,1785102688935.57
-0.894,-0.257,-0.279,12.48,5.1,4.12,1785102688945.948
-0.896,-0.257,-0.282,12.91,4.7,4.03,1785102688956.27
-0.895,-0.255,-0.285,12.91,4.27,4.24,1785102688969.847
-0.891,-0.253,-0.286,12.7,3.94,4.24,1785102688975.542
-0.887,-0.253,-0.287,12.6,3.78,4.61,1785102688985.676
-0.887,-0.25,-0.288,12.57,3.36,4.49,1785102688996.115
-0.885,-0.254,-0.287,12.67,2.99,4.79,1785102689006.592
-0.886,-0.256,-0.288,13.28,2.44,5.04,1785102689019.853
-0.889,-0.253,-0.292,13.76,1.98,5.07,1785102689025.7102
-0.889,-0.253,-0.295,13.86,1.65,5.16,1785102689035.7812
-0.894,-0.254,-0.299,13.73,1.34,5.07,1785102689046.2231
-0.894,-0.259,-0.302,13.7,1.16,5.46,1785102689056.712
-0.902,-0.251,-0.309,13.31,0.95,5.58,1785102689069.923
-0.903,-0.254,-0.308,12.09,0.82,5.86,1785102689075.809
-0.904,-0.257,-0.312,11.11,0.85,6.26,1785102689085.8782
-0.91,-0.253,-0.315,9.31,0.95,6.1,1785102689096.267
-0.911,-0.257,-0.315,7.66,0.92,6.47,1785102689106.623
-0.909,-0.261,-0.315,6.1,0.95,6.26,1785102689119.931
-0.907,-0.256,-0.317,5.07,1.01,5.95,1785102689125.511
-0.904,-0.262,-0.317,3.94,1.1,5.92,1785102689135.566
-0.907,-0.267,-0.312,3.45,1.31,5.83,1785102689145.945
-0.913,-0.265,-0.313,3.66,1.25,6.23,1785102689156.1191
-0.916,-0.258,-0.313,2.62,1.19,5.8,1785102689166.72
-0.907,-0.259,-0.317,1.8,1.01,5.89,1785102689180.007
-0.901,-0.256,-0.317,0.82,1.16,5.4,1785102689185.661
-0.89,-0.265,-0.316,0.58,1.28,5.77,1785102689195.6128
-0.889,-0.259,-0.316,0.67,1.31,5.4,1785102689206.033
-0.886,-0.252,-0.315,0.12,1.22,4.52,1785102689216.365
-0.88,-0.25,-0.312,-0.61,1.1,4.0,1785102689229.654
-0.878,-0.244,-0.311,-1.65,1.31,3.23,1785102689235.359
-0.879,-0.239,-0.31,-3.23,1.22,2.38,1785102689245.3052
-0.879,-0.239,-0.308,-4.97,1.07,1.59,1785102689255.7
-0.879,-0.245,-0.306,-6.04,0.82,0.67,1785102689266.051
-0.882,-0.247,-0.301,-6.56,0.7,-0.4,1785102689276.491
-0.884,-0.248,-0.298,-6.68,0.4,-1.22,1785102689289.7139
-0.885,-0.246,-0.298,-6.2,0.0,-1.8,1785102689295.499
-0.887,-0.245,-0.3,-5.77,-0.15,-1.98,1785102689305.3708
-0.89,-0.243,-0.301,-5.68,-0.12,-1.95,1785102689316.0269
-0.893,-0.24,-0.304,-5.65,-0.06,-1.98,1785102689326.138
-0.893,-0.245,-0.301,-5.4,0.21,-1.71,1785102689336.58
-0.897,-0.244,-0.293,-4.85,0.37,-1.68,1785102689349.7898
-0.903,-0.247,-0.29,-3.66,0.34,-1.56,1785102689355.4348
-0.905,-0.246,-0.288,-2.2,0.37,-1.34,1785102689365.454
-0.906,-0.241,-0.288,-0.67,0.37,-1.28,1785102689375.8281
-0.908,-0.235,-0.289,0.37,0.18,-1.53,1785102689386.209
-0.911,-0.233,-0.291,1.28,0.34,-1.83,1785102689396.611
-0.91,-0.236,-0.29,1.83,0.4,-1.89,1785102689409.681
-0.911,-0.236,-0.294,2.59,0.18,-1.89,1785102689415.5898
-0.908,-0.232,-0.293,2.99,0.09,-1.83,1785102689425.594
-0.906,-0.233,-0.292,3.11,-0.15,-1.46,1785102689435.8962
-0.904,-0.234,-0.293,3.57,-0.67,-1.28,1785102689446.32
-0.902,-0.227,-0.294,4.0,-1.22,-1.16,1785102689456.653
-0.902,-0.225,-0.296,4.24,-1.62,-1.28,1785102689469.899
-0.902,-0.226,-0.296,4.67,-2.01,-1.71,1785102689475.5571
-0.901,-0.232,-0.296,5.46,-2.47,-1.77,1785102689485.6162
-0.898,-0.234,-0.298,6.5,-2.69,-1.46,1785102689497.953
-0.9,-0.235,-0.298,7.57,-2.84,-1.04,1785102689506.3428
-0.9,-0.237,-0.302,8.73,-3.05,-0.43,1785102689516.8052
-0.9,-0.237,-0.306,9.77,-3.08,0.09,1785102689530.04
-0.9,-0.236,-0.309,10.41,-2.87,0.7,1785102689535.79
-0.9,-0.236,-0.312,10.53,-2.69,1.25,1785102689545.8528
-0.897,-0.238,-0.313,10.22,-2.35,1.59,1785102689556.332
-0.894,-0.243,-0.314,9.8,-1.98,1.8,1785102689566.7178
-0.89,-0.244,-0.311,9.61,-1.65,1.37,1785102689579.9402
-0.881,-0.242,-0.307,9.19,-1.01,1.5,1785102689585.639
-0.88,-0.244,-0.302,8.48,-0.46,1.98,1785102689595.603
-0.881,-0.246,-0.3,7.81,0.0,2.11,1785102689606.017
-0.893,-0.252,-0.298,7.57,0.18,1.46,1785102689616.159
-0.89,-0.249,-0.3,7.54,0.09,0.79,1785102689629.63
-0.892,-0.257,-0.3,7.42,0.4,0.55,1785102689635.314
-0.891,-0.255,-0.303,7.42,0.34,0.09,1785102689645.325
-0.884,-0.249,-0.303,7.02,0.85,0.61,1785102689655.743
-0.897,-0.257,-0.297,6.29,1.22,1.25,1785102689666.12
-0.908,-0.258,-0.296,5.89,0.79,1.04,1785102689676.461
-0.912,-0.258,-0.291,5.25,0.73,1.34,1785102689689.7422
-0.927,-0.261,-0.296,4.79,0.0,1.13,1785102689695.4849
-0.921,-0.259,-0.295,4.15,-0.27,1.59,1785102689705.417
-0.923,-0.255,-0.299,2.84,-0.58,1.37,1785102689715.807
-0.92,-0.256,-0.298,1.19,-0.64,1.28,1785102689726.1372
-0.918,-0.255,-0.294,-0.79,-1.07,0.92,1785102689736.554
-0.92,-0.258,-0.291,-2.9,-1.4,0.73,1785102689749.856
-0.92,-0.262,-0.289,-4.55,-1.74,0.73,1785102689755.444
-0.918,-0.263,-0.292,-5.68,-1.98,0.64,1785102689765.495
-0.918,-0.257,-0.295,-6.68,-2.5,0.09,1785102689775.813
-0.909,-0.262,-0.295,-7.02,-2.38,0.55,1785102689786.2642
-0.904,-0.267,-0.294,-6.68,-2.17,0.85,1785102689796.609
-0.905,-0.265,-0.292,-5.55,-2.04,1.19,1785102689809.845
-0.903,-0.252,-0.292,-4.94,-2.2,0.46,1785102689815.625
-0.896,-0.253,-0.29,-4.79,-2.26,0.31,1785102689825.5479
-0.892,-0.257,-0.292,-4.27,-2.2,0.03,1785102689835.895
-0.889,-0.26,-0.292,-2.99,-1.98,-0.27,1785102689846.341
-0.881,-0.258,-0.293,-1.13,-1.65,-0.31,1785102689856.66
-0.878,-0.252,-0.297,0.46,-1.19,-0.43,1785102689869.933
-0.878,-0.247,-0.296,1.43,-0.61,-0.64,1785102689875.963
-0.878,-0.245,-0.293,2.04,-0.15,-0.79,1785102689885.619
-0.881,-0.246,-0.29,2.62,0.55,-0.79,1785102689896.029
-0.887,-0.244,-0.294,3.3,1.1,-0.95,1785102689906.371
-0.889,-0.238,-0.294,3.6,1.68,-1.43,1785102689916.7822
-0.891,-0.238,-0.293,3.72,2.35,-2.11,1785102689932.4329
-0.896,-0.251,-0.284,4.21,2.9,-2.38,1785102689935.477
-0.904,-0.263,-0.28,6.32,2.84,-2.9,1785102689945.717
-0.915,-0.261,-0.278,9.34,2.5,-3.42,1785102689955.9512
-0.92,-0.266,-0.278,12.18,2.17,-3.51,1785102689966.6382
-0.925,-0.264,-0.28,15.23,2.11,-3.17,1785102689979.767
-0.932,-0.256,-0.286,17.67,2.38,-2.2,1785102689985.709
-0.937,-0.248,-0.292,18.49,2.66,-1.07,1785102689995.75
-0.932,-0.241,-0.295,17.76,3.05,-0.03,1785102690006.229
-0.922,-0.245,-0.292,16.17,3.54,0.82,1785102690016.7097
-0.917,-0.249,-0.288,14.74,3.81,1.31,1785102690029.902
-0.914,-0.252,-0.285,14.07,3.63,1.56,1785102690035.7703
-0.906,-0.254,-0.284,13.79,2.99,1.65,1785102690045.8528
-0.906,-0.253,-0.284,13.34,2.35,1.46,1785102690056.323
-0.904,-0.25,-0.285,12.88,1.34,1.22,1785102690066.789
-0.901,-0.248,-0.29,12.18,0.27,0.89,1785102690080.029
-0.898,-0.25,-0.294,11.32,-0.55,0.49,1785102690085.888
-0.893,-0.248,-0.298,10.22,-1.28,0.31,1785102690096.8298
-0.893,-0.248,-0.299,8.73,-1.95,0.27,1785102690106.39
-0.891,-0.249,-0.302,7.2,-2.38,0.18,1785102690116.717
-0.89,-0.25,-0.302,5.28,-2.59,0.0,1785102690129.936
-0.89,-0.25,-0.302,3.08,-2.75,-0.03,1785102690135.696
-0.89,-0.25,-0.302,0.46,-2.53,0.03,1785102690145.5933
-0.889,-0.25,-0.303,-2.56,-2.32,-0.27,1785102690155.998
-0.891,-0.248,-0.303,-5.98,-2.11,-0.85,1785102690166.413
-0.894,-0.248,-0.302,-9.28,-1.8,-1.89,1785102690176.737
-0.897,-0.252,-0.298,-9.28,-1.8,-1.89,1785102690190.075
-0.903,-0.258,-0.29,-11.75,-1.56,-2.69,1785102690195.8132
-0.91,-0.26,-0.284,-13.25,-1.34,-3.33,1785102690205.874
-0.914,-0.263,-0.284,-14.4,-1.07,-3.72,1785102690216.466
-0.911,-0.264,-0.284,-14.68,-0.73,-3.91,1785102690229.622
-0.907,-0.263,-0.285,-14.59,-0.03,-3.78,1785102690235.439
-0.9,-0.27,-0.281,-13.95,0.79,-2.53,1785102690245.555
-0.903,-0.279,-0.274,-12.05,1.53,-1.43,1785102690256.2969
-0.908,-0.27,-0.273,-8.97,1.46,-1.83,1785102690266.3538
-0.902,-0.266,-0.274,-5.77,1.59,-1.43,1785102690276.7283
-0.904,-0.257,-0.276,-3.51,1.53,-2.14,1785102690289.984
-0.903,-0.252,-0.275,-2.04,2.01,-2.38,1785102690295.6318
-0.902,-0.253,-0.274,-0.52,1.89,-2.44,1785102690305.711
-0.902,-0.248,-0.274,0.89,1.89,-2.75,1785102690316.0378
-0.901,-0.245,-0.276,2.04,1.98,-2.96,1785102690326.463
-0.897,-0.252,-0.276,3.6,2.11,-2.62,1785102690339.684
-0.896,-0.25,-0.276,5.37,2.35,-2.26,1785102690345.325
-0.909,-0.236,-0.279,6.84,2.53,-1.92,1785102690355.3313
-0.915,-0.228,-0.281,6.35,2.23,-2.75,1785102690365.75
-0.905,-0.243,-0.278,6.59,2.56,-2.17,1785102690376.12
-0.91,-0.244,-0.278,7.87,3.02,-2.23,1785102690386.6128
-0.911,-0.241,-0.28,9.46,2.81,-1.74,1785102690399.729
-0.91,-0.235,-0.281,10.28,2.72,-1.71,1785102690405.501
-0.905,-0.243,-0.276,11.14,2.96,-1.37,1785102690415.6558
-0.908,-0.245,-0.277,12.73,3.3,-0.24,1785102690426.066
-0.92,-0.235,-0.28,13.49,3.11,-0.43,1785102690436.5662
-0.918,-0.242,-0.278,14.19,2.96,0.15,1785102690449.818
-0.914,-0.246,-0.281,15.38,3.08,0.4,1785102690455.62
-0.915,-0.245,-0.282,16.54,3.45,0.76,1785102690465.7869
-0.915,-0.249,-0.281,17.55,3.48,1.43,1785102690476.175
-0.914,-0.256,-0.279,19.29,3.45,1.71,1785102690486.4531
-0.907,-0.259,-0.277,21.64,3.42,2.35,1785102690500.0151
-0.905,-0.26,-0.278,24.35,3.42,3.57,1785102690505.823
-0.905,-0.259,-0.28,26.86,3.6,4.85,1785102690516.002
-0.903,-0.261,-0.279,28.78,3.78,6.07,1785102690526.376
-0.903,-0.263,-0.279,30.0,4.03,7.26,1785102690539.6062
-0.9,-0.269,-0.277,30.95,4.24,8.39,1785102690545.481
-0.902,-0.271,-0.277,31.8,4.12,9.19,1785102690555.589
-0.899,-0.272,-0.281,32.35,4.03,9.74,1785102690566.036
-0.898,-0.268,-0.282,31.68,3.91,10.38,1785102690576.62
-0.896,-0.271,-0.282,30.92,3.63,10.5,1785102690589.844
-0.89,-0.277,-0.277,30.09,3.6,10.62,1785102690595.855
-0.894,-0.279,-0.284,29.18,3.2,10.22,1785102690606.0002
-0.889,-0.27,-0.286,26.92,2.93,10.13,1785102690616.59
-0.887,-0.272,-0.282,24.08,2.9,9.61,1785102690629.818
-0.885,-0.276,-0.283,21.03,2.38,9.06,1785102690635.6428
-0.882,-0.272,-0.285,17.09,2.11,8.21,1785102690645.71
-0.89,-0.279,-0.282,12.39,1.5,7.02,1785102690656.164
-0.886,-0.288,-0.282,8.79,0.58,6.68,1785102690666.6
-0.891,-0.297,-0.276,6.13,-0.03,5.8,1785102690679.8232
-0.891,-0.304,-0.276,5.25,-0.7,5.71,1785102690685.476
-0.89,-0.302,-0.281,5.22,-1.19,5.34,1785102690695.55
-0.896,-0.304,-0.278,5.19,-1.4,5.19,1785102690705.894
-0.893,-0.303,-0.28,6.07,-2.11,5.28,1785102690716.2722
-0.896,-0.298,-0.278,6.53,-2.14,4.82,1785102690726.65
-0.901,-0.303,-0.278,6.53,-2.17,4.58,1785102690739.897
-0.896,-0.299,-0.282,6.56,-2.44,4.27,1785102690745.6
-0.897,-0.296,-0.283,5.71,-2.32,3.48,1785102690755.6091
-0.895,-0.319,-0.28,5.49,-2.66,2.87,1785102690765.996
-0.893,-0.314,-0.281,6.9,-3.02,2.47,1785102690776.291
-0.892,-0.293,-0.289,7.08,-3.11,2.2,1785102690786.794
-0.897,-0.293,-0.288,5.01,-3.11,1.53,1785102690800.0159
-0.894,-0.301,-0.286,3.6,-3.08,0.76,1785102690805.622
-0.896,-0.312,-0.286,3.39,-3.36,-0.06,1785102690815.715
-0.897,-0.3,-0.29,3.6,-3.36,-1.04,1785102690826.036
-0.898,-0.292,-0.292,2.32,-3.27,-1.71,1785102690836.468
-0.893,-0.293,-0.291,0.0,-3.39,-2.35,1785102690846.807
-0.892,-0.29,-0.29,-2.2,-3.17,-3.08,1785102690860.0378
-0.894,-0.288,-0.287,-4.18,-2.69,-3.54,1785102690865.8472
-0.891,-0.288,-0.288,-5.95,-2.66,-4.24,1785102690875.7178
-0.888,-0.275,-0.286,-8.09,-1.95,-4.61,1785102690886.121
-0.896,-0.279,-0.288,-10.68,-1.25,-4.79,1785102690896.6082
-0.891,-0.281,-0.282,-12.76,-0.95,-5.22,1785102690909.858
-0.898,-0.288,-0.277,-13.4,-0.79,-5.52,1785102690915.841
-0.89,-0.277,-0.277,-12.94,-0.58,-5.8,1785102690925.7678
-0.896,-0.277,-0.273,-12.85,0.34,-4.97,1785102690936.216
-0.908,-0.281,-0.272,-11.96,0.34,-5.1,1785102690946.7039
-0.91,-0.277,-0.27,-10.65,0.4,-4.97,1785102690959.8247
-0.906,-0.273,-0.273,-9.25,0.7,-4.55,1785102690965.92
-0.911,-0.279,-0.272,-7.75,1.22,-3.63,1785102690975.698
-0.916,-0.275,-0.273,-5.65,1.22,-3.63,1785102690986.1272
-0.904,-0.262,-0.275,-3.85,1.53,-3.33,1785102690996.459
-0.9,-0.272,-0.269,-2.44,2.53,-1.59,1785102691009.7432
-0.905,-0.267,-0.268,-1.04,2.56,-1.59,1785102691015.517
-0.895,-0.264,-0.259,-0.06,2.84,-0.52,1785102691025.3958
-0.902,-0.257,-0.261,1.1,2.69,-0.46,1785102691035.765
-0.904,-0.252,-0.265,1.59,2.26,-0.49,1785102691046.16
-0.903,-0.259,-0.263,1.92,2.23,-0.61,1785102691056.577
-0.919,-0.259,-0.263,2.84,1.89,-1.1,1785102691069.792
-0.914,-0.258,-0.265,3.2,1.4,-0.98,1785102691075.4248
-0.912,-0.265,-0.266,3.97,1.5,0.06,1785102691085.464
-0.923,-0.261,-0.265,4.64,1.13,0.27,1785102691095.835
-0.927,-0.265,-0.263,4.97,0.95,1.5,1785102691106.2678
-0.934,-0.26,-0.267,4.85,0.03,0.64,1785102691116.6357
-0.917,-0.267,-0.263,4.88,-0.4,0.64,1785102691129.892
-0.911,-0.274,-0.263,6.23,-0.52,1.13,1785102691135.725
-0.907,-0.271,-0.266,7.63,-0.61,2.41,1785102691145.639
-0.911,-0.271,-0.27,8.24,-0.82,3.2,1785102691155.9182
-0.908,-0.267,-0.272,8.15,-1.07,2.96,1785102691166.3252
-0.91,-0.267,-0.271,7.97,-1.77,2.14,1785102691176.646
-0.901,-0.268,-0.267,7.63,-1.86,2.01,1785102691189.9143
-0.903,-0.273,-0.267,7.84,-1.83,2.35,1785102691195.23
-0.901,-0.271,-0.27,8.06,-1.89,2.41,1785102691205.564
-0.899,-0.277,-0.271,8.42,-1.74,2.84,1785102691215.9849
-0.898,-0.28,-0.275,8.97,-1.74,2.78,1785102691226.339
-0.895,-0.277,-0.275,9.74,-1.83,2.69,1785102691236.782
-0.892,-0.269,-0.277,10.5,-1.59,3.11,1785102691250.0059
-0.904,-0.28,-0.269,10.38,-1.19,4.12,1785102691255.8123
-0.914,-0.291,-0.271,10.86,-1.68,3.78,1785102691265.898
-0.905,-0.287,-0.274,11.96,-1.5,3.69,1785102691276.3699
-0.903,-0.288,-0.279,12.48,-1.07,4.24,1785102691289.675
-0.902,-0.287,-0.283,12.42,-0.82,4.67,1785102691295.4968
-0.897,-0.289,-0.281,12.45,-0.61,5.04,1785102691305.5771
-0.896,-0.288,-0.283,12.6,-0.31,4.79,1785102691316.062
-0.897,-0.29,-0.284,12.33,-0.18,4.67,1785102691326.614
-0.899,-0.291,-0.284,11.87,0.03,4.0,1785102691339.7961
-0.902,-0.29,-0.284,10.83,0.09,3.27,1785102691345.611
-0.899,-0.291,-0.287,8.67,0.31,2.93,1785102691355.6008
-0.898,-0.29,-0.287,6.16,0.67,3.05,1785102691365.9429
-0.898,-0.291,-0.284,3.85,1.13,3.6,1785102691376.3862
-0.898,-0.293,-0.287,1.89,1.46,3.36,1785102691386.75
-0.9,-0.288,-0.288,-0.12,1.46,2.81,1785102691400.068
-0.896,-0.293,-0.283,-2.14,1.53,2.44,1785102691405.7002
-0.898,-0.297,-0.278,-3.6,1.22,1.68,1785102691416.8389
-0.898,-0.297,-0.278,-4.58,1.04,0.89,1785102691426.131
-0.898,-0.293,-0.28,-6.16,1.28,0.09,1785102691436.4329
-0.899,-0.287,-0.281,-8.39,1.04,-0.18,1785102691449.685
-0.897,-0.281,-0.281,-10.71,0.92,-0.37,1785102691455.42
-0.896,-0.277,-0.277,-10.71,0.92,-0.37,1785102691465.58
-0.894,-0.278,-0.271,-12.7,0.73,-0.58,1785102691476.0142
-0.895,-0.281,-0.266,-13.79,0.49,-0.7,1785102691486.2988
-0.895,-0.28,-0.265,-13.73,0.43,-0.85,1785102691499.834
-0.899,-0.28,-0.268,-13.12,0.27,-1.31,1785102691505.581
-0.906,-0.278,-0.27,-12.63,0.12,-1.92,1785102691515.782
-0.908,-0.274,-0.272,-12.51,-0.12,-2.35,1785102691526.1362
-0.907,-0.27,-0.274,-12.54,-0.31,-2.56,1785102691536.606
-0.907,-0.269,-0.273,-12.67,-0.49,-2.53,1785102691549.903
-0.904,-0.272,-0.274,-12.91,-0.64,-1.92,1785102691555.699
-0.904,-0.273,-0.275,-12.7,-0.46,-1.34,1785102691565.908
-0.9,-0.27,-0.275,-12.24,-0.31,-0.82,1785102691576.273
-0.899,-0.266,-0.275,-11.63,-0.21,-0.64,1785102691586.7642
-0.901,-0.263,-0.274,-11.11,-0.21,-0.79,1785102691600.053
-0.902,-0.258,-0.276,-10.77,-0.27,-1.19,1785102691605.823
-0.904,-0.256,-0.279,-10.53,-0.4,-1.56,1785102691615.978
-0.906,-0.257,-0.28,-10.01,-0.37,-1.89,1785102691626.411
-0.905,-0.26,-0.281,-9.37,-0.21,-2.2,1785102691636.774
-0.902,-0.259,-0.277,-8.97,0.24,-1.83,1785102691650.073
-0.901,-0.258,-0.275,-8.76,0.76,-1.07,1785102691655.61
-0.902,-0.265,-0.272,-7.9,0.89,-0.55,1785102691665.7222
-0.903,-0.268,-0.269,-5.95,0.89,-0.06,1785102691676.0588
-0.907,-0.262,-0.274,-3.05,0.82,0.21,1785102691686.521
-0.912,-0.256,-0.281,-0.58,0.76,0.15,1785102691699.736
-0.911,-0.254,-0.284,0.92,0.73,-0.06,1785102691705.3572
-0.909,-0.252,-0.287,1.37,0.82,-0.03,1785102691715.467
-0.908,-0.249,-0.286,0.82,1.07,0.12,1785102691725.7358
-0.905,-0.25,-0.285,-0.09,1.28,0.24,1785102691736.1392
-0.902,-0.253,-0.286,-0.89,1.46,0.52,1785102691746.56
-0.904,-0.255,-0.285,-1.28,1.46,0.73,1785102691759.7617
-0.903,-0.255,-0.287,-1.07,1.53,1.1,1785102691765.5198
-0.904,-0.252,-0.293,-0.7,1.68,1.28,1785102691775.455
-0.904,-0.247,-0.296,-1.31,2.08,1.43,1785102691785.865
-0.899,-0.247,-0.296,-2.17,2.72,1.62,1785102691796.234
-0.895,-0.245,-0.289,-2.78,3.02,1.65,1785102691806.571
-0.89,-0.247,-0.283,-3.02,2.9,1.59,1785102691819.858
-0.891,-0.25,-0.276,-2.38,2.66,1.46,1785102691825.476
-0.891,-0.25,-0.278,-1.65,2.41,1.62,1785102691835.577
-0.892,-0.252,-0.279,-0.73,2.23,1.8,1785102691845.87
-0.899,-0.252,-0.284,0.4,2.11,2.04,1785102691856.2678
-0.91,-0.251,-0.285,1.22,1.95,2.44,1785102691866.7332
-0.917,-0.253,-0.285,1.28,1.74,2.99,1785102691880.0168
-0.922,-0.259,-0.286,1.22,1.53,3.72,1785102691885.602
-0.922,-0.265,-0.288,1.28,1.19,4.46,1785102691895.604
-0.919,-0.264,-0.29,1.25,0.76,5.43,1785102691905.946
-0.915,-0.264,-0.291,1.07,0.37,6.41,1785102691916.457
-0.914,-0.265,-0.291,1.07,0.03,7.17,1785102691926.7998
-0.913,-0.265,-0.292,1.22,-0.49,7.57,1785102691939.866
-0.908,-0.265,-0.29,1.04,-0.98,7.81,1785102691945.708
-0.905,-0.266,-0.292,0.67,-1.34,7.69,1785102691955.6812
-0.9,-0.268,-0.29,0.06,-1.8,7.23,1785102691966.096
-0.898,-0.269,-0.293,-0.76,-2.26,6.68,1785102691976.398
-0.896,-0.272,-0.295,-1.74,-2.62,6.35,1785102691986.882
-0.893,-0.277,-0.297,-2.11,-2.72,5.58,1785102692000.125
-0.89,-0.273,-0.297,-2.29,-2.69,4.39,1785102692005.7048
-0.887,-0.274,-0.297,-2.41,-2.75,3.66,1785102692015.742
-0.891,-0.274,-0.301,-2.69,-2.66,2.62,1785102692026.061
-0.888,-0.273,-0.298,-3.45,-2.53,1.89,1785102692036.594
-0.889,-0.277,-0.296,-4.43,-2.2,1.28,1785102692049.9148
-0.89,-0.276,-0.297,-5.34,-2.11,0.24,1785102692055.404
-0.887,-0.273,-0.296,-6.16,-1.89,-0.67,1785102692065.5
-0.883,-0.273,-0.296,-6.81,-1.37,-1.19,1785102692075.788
-0.886,-0.275,-0.294,-7.05,-0.82,-1.59,1785102692086.196
-0.893,-0.27,-0.296,-7.66,-0.49,-2.32,1785102692096.58
-0.894,-0.269,-0.292,-8.33,-0.24,-2.93,1785102692109.8462
-0.889,-0.266,-0.288,-8.82,0.18,-3.48,1785102692115.628
-0.892,-0.265,-0.29,-9.52,0.4,-3.88,1785102692125.465
-0.895,-0.269,-0.285,-10.04,0.46,-4.46,1785102692135.9502
-0.894,-0.267,-0.282,-10.22,0.46,-5.16,1785102692146.41
-0.901,-0.269,-0.282,-10.1,0.21,-5.89,1785102692159.677
-0.898,-0.259,-0.286,-9.83,-0.15,-6.56,1785102692165.492
-0.897,-0.257,-0.287,-10.44,-0.12,-6.38,1785102692175.615
-0.897,-0.252,-0.287,-11.17,-0.21,-6.38,1785102692186.021
-0.901,-0.244,-0.285,-12.33,-0.21,-6.5,1785102692196.46
-0.903,-0.258,-0.28,-13.06,-0.61,-6.53,1785102692209.654
-0.9,-0.255,-0.281,-12.21,-0.98,-6.68,1785102692215.674
-0.909,-0.253,-0.274,-11.99,-1.1,-6.32,1785102692225.485
-0.906,-0.235,-0.271,-12.05,-1.92,-5.55,1785102692236.044
-0.908,-0.218,-0.273,-13.4,-2.26,-4.97,1785102692246.5989
-0.901,-0.24,-0.279,-13.34,-2.53,-4.88,1785102692259.798
-0.903,-0.247,-0.285,-12.79,-2.59,-6.07,1785102692265.666
-0.908,-0.255,-0.297,-12.42,-2.35,-6.41,1785102692275.502
-0.907,-0.26,-0.298,-11.6,-1.56,-5.62,1785102692285.945
-0.906,-0.264,-0.292,-9.89,-0.82,-5.13,1785102692296.648
-0.91,-0.257,-0.285,-7.57,-0.64,-4.67,1785102692310.329
-0.909,-0.257,-0.287,-5.92,-1.19,-3.57,1785102692317.16
-0.908,-0.249,-0.285,-4.61,-1.1,-2.99,1785102692325.3472
-0.907,-0.242,-0.286,-3.2,-0.76,-2.35,1785102692335.638
-0.906,-0.244,-0.285,-2.04,-0.46,-2.44,1785102692346.282
-0.907,-0.238,-0.284,-1.01,-0.27,-2.44,1785102692356.6667
-0.91,-0.236,-0.282,-1.1,0.0,-2.56,1785102692369.884
-0.904,-0.253,-0.281,-0.98,0.0,-2.47,1785102692375.6357
-0.909,-0.234,-0.28,-0.58,-0.03,-2.84,1785102692385.5723
-0.907,-0.233,-0.278,-1.25,-0.12,-2.14,1785102692395.9492
-0.905,-0.243,-0.273,-1.46,0.0,-1.92,1785102692406.38
-0.904,-0.24,-0.273,-0.27,0.12,-2.11,1785102692416.7358
-0.903,-0.233,-0.274,0.49,0.18,-1.86,1785102692430.082
-0.904,-0.237,-0.274,0.73,0.06,-1.95,1785102692435.6638
-0.905,-0.239,-0.272,1.22,0.34,-2.5,1785102692445.729
-0.906,-0.242,-0.272,1.83,0.27,-2.44,1785102692456.0708
-0.91,-0.247,-0.272,2.29,0.09,-2.29,1785102692466.42
-0.913,-0.242,-0.277,2.99,-0.06,-1.95,1785102692479.674
-0.912,-0.239,-0.282,2.66,0.0,-1.89,1785102692485.096
-0.91,-0.241,-0.283,2.29,-0.12,-1.43,1785102692495.361
