ax,ay,az,gx,gy,gz,timestamp_ms
-0.911,-0.159,-0.297,12.33,3.39,-1.5,1785113204105.7322
-0.918,-0.158,-0.304,9.83,2.69,-1.13,1785113204127.267
-0.922,-0.16,-0.309,6.38,2.26,-0.64,1785113204127.836
-0.922,-0.166,-0.314,2.53,1.83,-0.21,1785113204128.382
-0.921,-0.173,-0.318,-1.07,1.62,0.12,1785113204128.8608
-0.915,-0.174,-0.323,-4.39,1.62,0.21,1785113204129.343
-0.909,-0.176,-0.321,-7.26,1.74,0.31,1785113204129.817
-0.903,-0.181,-0.312,-9.28,1.86,0.21,1785113204130.29
-0.899,-0.183,-0.303,-10.16,1.95,-0.15,1785113204130.707
-0.894,-0.182,-0.299,-9.64,2.01,-0.55,1785113204131.124
-0.889,-0.18,-0.295,-8.24,2.04,-1.13,1785113204131.522
-0.889,-0.177,-0.298,-6.35,1.83,-1.59,1785113204131.921
-0.888,-0.174,-0.3,-3.91,1.59,-1.95,1785113204132.327
-0.89,-0.172,-0.305,-1.37,1.5,-2.14,1785113204132.719
-0.889,-0.175,-0.314,1.1,1.65,-2.47,1785113204133.118
-0.89,-0.177,-0.318,3.33,1.92,-2.66,1785113204133.513
-0.893,-0.18,-0.317,5.31,2.32,-2.69,1785113204133.913
-0.893,-0.181,-0.309,7.6,2.9,-2.41,1785113204134.3
-0.897,-0.18,-0.301,10.47,3.14,-1.92,1785113204134.691
-0.901,-0.177,-0.298,13.4,3.2,-1.19,1785113204135.081
-0.903,-0.177,-0.295,15.78,3.39,-0.4,1785113204135.466
-0.903,-0.176,-0.298,17.61,3.33,0.27,1785113204135.862
-0.906,-0.174,-0.302,18.59,3.08,1.19,1785113204136.249
-0.91,-0.176,-0.31,18.74,2.81,2.08,1785113204136.775
-0.91,-0.181,-0.312,18.22,2.66,2.75,1785113204137.2852
-0.908,-0.184,-0.314,17.18,2.59,3.36,1785113204137.6938
-0.904,-0.187,-0.31,15.93,2.44,3.75,1785113204138.0962
-0.902,-0.187,-0.309,14.95,2.29,4.03,1785113204138.441
-0.906,-0.187,-0.307,13.64,2.04,4.36,1785113204138.789
-0.911,-0.186,-0.311,11.9,1.71,4.49,1785113204139.137
-0.911,-0.186,-0.32,10.1,1.5,4.58,1785113204139.482
-0.91,-0.187,-0.327,8.18,1.5,4.36,1785113204139.8389
-0.91,-0.188,-0.331,6.29,1.28,4.09,1785113204140.1821
-0.911,-0.192,-0.331,4.73,1.22,3.88,1785113204140.5283
-0.915,-0.196,-0.326,3.94,1.28,3.54,1785113204140.897
-0.922,-0.197,-0.319,4.27,1.01,3.3,1785113204141.2559
-0.923,-0.197,-0.321,5.19,0.7,3.11,1785113204141.6362
-0.926,-0.193,-0.326,6.16,0.43,2.93,1785113204141.9749
-0.931,-0.194,-0.335,6.9,0.0,2.87,1785113204142.3071
-0.933,-0.193,-0.347,6.99,-0.03,2.69,1785113204142.647
-0.935,-0.191,-0.36,6.53,0.03,2.66,1785113204142.9902
-0.934,-0.193,-0.369,5.68,0.4,2.47,1785113204143.326
-0.933,-0.196,-0.375,4.85,0.92,2.53,1785113204143.678
-0.94,-0.198,-0.39,4.03,1.68,2.84,1785113204144.017
-0.942,-0.2,-0.4,3.27,2.66,3.17,1785113204144.354
-0.94,-0.205,-0.403,2.87,4.0,3.39,1785113204144.694
-0.936,-0.21,-0.402,3.54,5.77,3.36,1785113204145.033
-0.922,-0.212,-0.39,5.46,7.05,3.14,1785113204145.375
-0.908,-0.21,-0.373,8.24,8.03,2.87,1785113204145.7068
-0.896,-0.205,-0.359,11.66,8.7,2.47,1785113204146.052
-0.884,-0.195,-0.355,14.74,9.0,1.8,1785113204146.369
-0.872,-0.187,-0.355,16.88,9.16,1.07,1785113204146.678
-0.862,-0.18,-0.353,17.94,9.19,0.21,1785113204147.022
-0.864,-0.176,-0.348,18.31,9.13,-0.73,1785113204147.327
-0.869,-0.175,-0.35,18.04,9.06,-1.43,1785113204147.66
-0.869,-0.178,-0.346,17.33,9.22,-1.46,1785113204147.959
-0.871,-0.18,-0.339,16.6,9.28,-1.25,1785113204148.265
-0.872,-0.181,-0.328,15.69,9.09,-0.89,1785113204148.568
-0.872,-0.181,-0.32,14.53,8.61,-0.06,1785113204148.864
-0.873,-0.179,-0.308,13.31,8.18,0.89,1785113204149.168
-0.873,-0.181,-0.305,12.48,7.17,1.83,1785113204149.468
-0.872,-0.172,-0.312,10.25,6.41,3.05,1785113204149.7778
-0.872,-0.166,-0.313,6.01,5.86,4.06,1785113204150.072
-0.872,-0.165,-0.314,0.52,5.46,4.58,1785113204150.3757
-0.878,-0.172,-0.321,-4.58,5.04,4.94,1785113204150.677
-0.884,-0.188,-0.334,-7.9,5.13,5.46,1785113204151.0222
-0.887,-0.203,-0.359,-8.61,5.77,6.26,1785113204151.3547
-0.896,-0.206,-0.366,-6.41,7.26,7.6,1785113204151.655
-0.898,-0.207,-0.354,-1.46,8.82,9.13,1785113204151.9749
-0.908,-0.212,-0.341,7.2,10.68,10.32,1785113204152.2761
-0.916,-0.207,-0.322,18.37,12.27,11.96,1785113204152.5881
-0.911,-0.203,-0.304,31.34,13.21,13.73,1785113204152.916
-0.908,-0.201,-0.296,44.92,13.46,15.47,1785113204153.233
-0.906,-0.196,-0.303,58.08,13.49,16.94,1785113204153.562
-0.904,-0.187,-0.321,68.94,13.28,17.85,1785113204153.8901
-0.901,-0.173,-0.34,75.96,12.88,18.25,1785113204154.1782
-0.894,-0.168,-0.351,79.13,12.67,17.67,1785113204154.46
-0.887,-0.173,-0.353,79.59,12.73,16.54,1785113204154.7498
-0.888,-0.179,-0.354,78.74,12.51,15.63,1785113204155.036
-0.89,-0.177,-0.357,75.84,11.75,15.47,1785113204155.3481
-0.889,-0.177,-0.361,71.32,11.23,15.44,1785113204155.647
-0.887,-0.178,-0.367,64.88,10.8,15.29,1785113204155.94
-0.888,-0.175,-0.37,56.86,10.35,14.86,1785113204156.258
-0.883,-0.174,-0.37,47.82,9.83,14.31,1785113204156.605
-0.881,-0.172,-0.366,38.18,9.31,13.89,1785113204156.94
-0.882,-0.174,-0.358,28.47,8.85,13.64,1785113204157.232
-0.88,-0.177,-0.352,19.44,8.03,13.4,1785113204157.5269
-0.881,-0.184,-0.35,11.69,7.2,13.12,1785113204157.8071
-0.882,-0.19,-0.346,5.22,6.68,13.21,1785113204158.087
-0.887,-0.198,-0.341,0.27,6.01,13.34,1785113204158.384
-0.892,-0.202,-0.336,-3.23,5.49,13.82,1785113204158.6711
-0.896,-0.21,-0.338,-5.34,5.22,14.53,1785113204158.966
-0.897,-0.221,-0.338,-6.68,5.19,14.92,1785113204159.2488
-0.89,-0.235,-0.341,-7.63,5.46,15.05,1785113204159.561
-0.876,-0.245,-0.339,-7.9,5.92,14.86,1785113204159.848
-0.866,-0.247,-0.329,-7.26,6.5,14.31,1785113204160.1138
-0.869,-0.243,-0.314,-5.49,6.87,13.52,1785113204160.376
-0.882,-0.238,-0.302,-3.08,6.53,12.48,1785113204160.634
-0.899,-0.233,-0.292,-0.64,5.92,11.51,1785113204160.9111
-0.915,-0.23,-0.294,2.01,5.31,10.5,1785113204161.174
-0.927,-0.23,-0.303,4.94,4.52,9.46,1785113204161.437
-0.933,-0.233,-0.31,8.06,3.72,8.58,1785113204161.6929
-0.934,-0.24,-0.319,11.26,2.84,7.93,1785113204161.958
-0.929,-0.245,-0.325,14.53,2.01,7.29,1785113204162.225
-0.917,-0.245,-0.326,17.64,1.4,6.59,1785113204162.482
-0.901,-0.24,-0.33,19.9,0.73,5.74,1785113204162.745
-0.889,-0.232,-0.33,21.09,0.24,4.7,1785113204163.005
-0.88,-0.223,-0.331,21.09,-0.12,3.36,1785113204163.273
-0.877,-0.216,-0.331,20.14,-0.61,2.17,1785113204163.536
-0.879,-0.208,-0.334,18.25,-1.19,0.98,1785113204163.828
-0.878,-0.202,-0.338,15.26,-1.77,-0.31,1785113204164.105
-0.873,-0.2,-0.34,11.47,-2.23,-1.37,1785113204164.385
-0.868,-0.201,-0.344,7.35,-2.87,-2.38,1785113204164.6477
-0.863,-0.205,-0.351,3.42,-3.39,-3.08,1785113204164.9092
-0.858,-0.21,-0.353,-0.27,-3.94,-3.57,1785113204165.1663
-0.851,-0.213,-0.356,-3.33,-4.33,-3.91,1785113204165.417
-0.847,-0.218,-0.36,-5.77,-4.67,-4.33,1785113204165.674
-0.848,-0.218,-0.365,-7.48,-4.73,-4.58,1785113204165.925
-0.854,-0.217,-0.366,-8.88,-4.7,-4.76,1785113204166.167
-0.859,-0.208,-0.369,-10.8,-4.49,-4.85,1785113204166.4153
-0.859,-0.208,-0.369,-12.7,-4.33,-4.85,1785113204166.689
-0.86,-0.205,-0.369,-14.22,-3.88,-5.04,1785113204166.932
-0.862,-0.204,-0.364,-14.92,-3.3,-5.58,1785113204167.178
-0.867,-0.205,-0.363,-14.71,-2.81,-5.95,1785113204167.443
-0.873,-0.208,-0.36,-14.71,-2.81,-5.95,1785113204167.688
-0.882,-0.214,-0.358,-13.09,-2.47,-6.23,1785113204167.9292
-0.89,-0.214,-0.356,-10.86,-2.23,-6.41,1785113204168.179
-0.897,-0.213,-0.359,-8.18,-1.92,-6.5,1785113204168.427
-0.903,-0.212,-0.363,-4.39,-1.65,-6.44,1785113204168.6677
-0.904,-0.216,-0.361,0.52,-1.31,-6.44,1785113204168.915
-0.909,-0.225,-0.358,7.05,-1.37,-6.5,1785113204169.16
-0.912,-0.23,-0.358,15.47,-1.62,-6.53,1785113204169.4111
-0.912,-0.217,-0.369,23.29,-2.11,-5.89,1785113204169.656
-0.918,-0.206,-0.376,29.05,-2.04,-5.22,1785113204169.9487
-0.917,-0.198,-0.383,32.17,-2.04,-4.82,1785113204170.2012
-0.918,-0.198,-0.384,33.42,-1.74,-4.52,1785113204170.441
-0.918,-0.199,-0.385,33.33,-1.37,-3.88,1785113204170.6948
-0.916,-0.196,-0.385,31.77,-1.16,-3.33,1785113204170.948
-0.913,-0.195,-0.385,28.44,-1.04,-2.59,1785113204171.184
-0.908,-0.196,-0.387,23.8,-1.04,-1.8,1785113204171.4338
-0.904,-0.196,-0.392,17.91,-0.98,-1.43,1785113204171.705
-0.896,-0.194,-0.396,11.08,-1.13,-1.01,1785113204171.956
-0.885,-0.196,-0.398,4.0,-1.22,-0.58,1785113204172.199
-0.881,-0.204,-0.394,-2.62,-1.25,-0.18,1785113204172.447
-0.876,-0.211,-0.388,-7.87,-1.34,0.4,1785113204172.6938
-0.87,-0.216,-0.383,-11.84,-1.37,1.19,1785113204172.935
-0.868,-0.218,-0.377,-14.59,-1.37,1.8,1785113204173.185
-0.867,-0.219,-0.373,-16.6,-1.31,2.38,1785113204173.435
-0.866,-0.219,-0.369,-18.01,-1.19,2.99,1785113204173.6802
-0.868,-0.22,-0.364,-18.86,-0.79,3.51,1785113204173.9111
-0.869,-0.222,-0.36,-19.14,-0.24,3.78,1785113204174.151
-0.874,-0.223,-0.356,-18.62,0.34,4.0,1785113204174.393
-0.879,-0.225,-0.355,-17.7,0.89,4.18,1785113204174.6292
-0.884,-0.229,-0.351,-16.63,1.5,4.27,1785113204174.863
-0.887,-0.231,-0.347,-14.98,2.01,4.15,1785113204175.0999
-0.89,-0.235,-0.344,-12.45,2.41,3.94,1785113204175.332
-0.891,-0.237,-0.341,-9.13,2.75,3.63,1785113204175.583
-0.892,-0.237,-0.344,-5.71,2.96,3.27,1785113204175.815
-0.893,-0.234,-0.344,-2.62,3.08,2.59,1785113204176.0508
-0.893,-0.231,-0.343,-0.27,3.3,1.74,1785113204176.3232
-0.894,-0.229,-0.34,1.65,3.42,0.52,1785113204176.5872
-0.896,-0.225,-0.335,3.3,3.45,-0.46,1785113204176.827
-0.897,-0.222,-0.334,4.61,3.36,-1.4,1785113204177.0579
-0.898,-0.218,-0.334,5.52,3.23,-2.47,1785113204177.301
-0.897,-0.215,-0.332,6.16,3.05,-3.39,1785113204177.551
-0.898,-0.215,-0.334,6.29,2.78,-4.21,1785113204177.779
-0.902,-0.212,-0.334,6.07,2.38,-5.04,1785113204178.017
-0.9,-0.212,-0.333,5.77,2.08,-5.52,1785113204178.2598
-0.901,-0.21,-0.334,5.52,1.68,-5.83,1785113204178.494
-0.901,-0.209,-0.335,5.43,1.25,-5.83,1785113204178.73
-0.897,-0.21,-0.338,5.22,0.92,-5.68,1785113204178.9607
-0.894,-0.206,-0.339,4.85,0.46,-5.46,1785113204179.1921
-0.886,-0.202,-0.341,3.72,-0.34,-4.76,1785113204179.6511
-0.884,-0.202,-0.345,2.69,-0.76,-4.12,1785113204179.873
-0.895,-0.222,-0.332,-4.15,0.95,1.13,1785113204180.342
-0.892,-0.223,-0.329,-3.6,0.92,0.55,1785113204180.5662
-0.89,-0.22,-0.324,-2.78,0.7,0.03,1785113204180.792
-0.891,-0.218,-0.326,-1.89,0.49,-0.49,1785113204181.0242
-0.892,-0.214,-0.326,-1.22,0.27,-1.1,1785113204193.602
-0.895,-0.212,-0.325,-0.7,0.15,-1.65,1785113204198.97
-0.896,-0.212,-0.325,-0.46,-0.06,-1.86,1785113204209.285
-0.895,-0.214,-0.324,-0.31,-0.12,-2.14,1785113204219.657
-0.89,-0.213,-0.32,0.27,-0.27,-2.32,1785113204230.023
-0.892,-0.21,-0.323,0.64,-0.58,-2.29,1785113204240.4192
-0.892,-0.208,-0.328,0.58,-0.89,-2.26,1785113204253.799
-0.892,-0.204,-0.329,0.24,-1.13,-2.29,1785113204259.1272
-0.894,-0.204,-0.331,-0.03,-1.31,-2.11,1785113204269.403
-0.895,-0.204,-0.331,-0.24,-1.62,-1.98,1785113204279.768
-0.893,-0.201,-0.335,-0.49,-1.95,-1.89,1785113204290.139
-0.891,-0.195,-0.335,-0.98,-2.35,-1.5,1785113204303.5168
-0.888,-0.195,-0.341,-1.53,-2.5,-1.31,1785113204308.9001
-0.887,-0.199,-0.342,-1.83,-2.44,-1.19,1785113204319.1372
-0.889,-0.207,-0.348,-1.16,-2.56,-1.19,1785113204329.527
-0.89,-0.21,-0.356,-0.4,-2.56,-1.22,1785113204339.9292
-0.89,-0.208,-0.361,0.09,-2.11,-1.07,1785113204350.483
-0.894,-0.203,-0.365,0.06,-1.65,-1.04,1785113204363.606
-0.896,-0.199,-0.358,-1.16,-1.43,-1.04,1785113204369.617
-0.895,-0.205,-0.359,-2.66,-0.98,-1.59,1785113204379.3699
-0.901,-0.209,-0.363,-3.97,-0.67,-2.2,1785113204389.8188
-0.904,-0.217,-0.358,-4.55,-0.52,-2.72,1785113204400.383
-0.899,-0.22,-0.352,-4.27,-0.58,-2.96,1785113204410.5222
-0.897,-0.222,-0.349,-3.45,-0.58,-2.69,1785113204423.7969
-0.897,-0.224,-0.349,-2.5,-0.64,-2.5,1785113204429.492
-0.898,-0.224,-0.348,-1.4,-0.73,-2.29,1785113204439.584
-0.897,-0.221,-0.348,-0.55,-0.79,-1.74,1785113204450.009
-0.891,-0.216,-0.347,-0.27,-0.64,-1.01,1785113204460.202
-0.889,-0.212,-0.345,-0.31,-0.46,-0.21,1785113204470.668
-0.887,-0.211,-0.342,-0.95,-0.64,0.24,1785113204484.333
-0.888,-0.209,-0.347,-2.29,-0.82,0.55,1785113204489.624
-0.889,-0.214,-0.351,-4.24,-0.61,0.61,1785113204499.561
-0.887,-0.219,-0.349,-6.1,-0.21,0.52,1785113204509.896
-0.886,-0.22,-0.335,-6.59,0.12,0.58,1785113204520.301
-0.886,-0.217,-0.323,-5.8,0.24,0.79,1785113204530.7463
-0.884,-0.211,-0.316,-4.27,0.24,1.25,1785113204543.9092
-0.883,-0.201,-0.318,-3.75,0.21,1.31,1785113204549.408
-0.876,-0.2,-0.328,-4.36,0.67,0.55,1785113204559.636
-0.885,-0.198,-0.338,-5.43,1.53,-0.49,1785113204570.028
-0.892,-0.199,-0.346,-6.26,2.23,-1.34,1785113204580.401
-0.899,-0.199,-0.342,-5.65,2.59,-1.37,1785113204590.7449
-0.899,-0.209,-0.337,-2.35,2.41,-1.13,1785113204604.0498
-0.9,-0.216,-0.341,2.47,1.68,-1.22,1785113204609.705
-0.9,-0.209,-0.348,6.71,1.01,-1.31,1785113204619.534
-0.9,-0.201,-0.357,9.06,0.73,-1.01,1785113204629.934
-0.901,-0.195,-0.36,9.09,0.79,-0.76,1785113204640.418
-0.901,-0.193,-0.355,7.78,0.85,-0.76,1785113204653.7988
-0.898,-0.194,-0.348,6.04,1.01,-0.61,1785113204659.4219
-0.894,-0.194,-0.346,4.7,0.82,-0.37,1785113204669.412
-0.896,-0.192,-0.347,3.72,0.85,-0.21,1785113204679.719
-0.896,-0.188,-0.346,2.84,0.76,0.0,1785113204690.128
-0.894,-0.187,-0.346,2.01,0.7,0.4,1785113204700.696
-0.896,-0.191,-0.343,1.43,0.89,0.64,1785113204713.76
-0.895,-0.192,-0.34,1.65,0.95,0.98,1785113204719.5442
-0.893,-0.189,-0.336,2.59,0.67,1.53,1785113204729.434
-0.889,-0.184,-0.335,3.42,0.27,2.26,1785113204739.878
-0.887,-0.181,-0.341,3.75,-0.06,2.72,1785113204750.4412
-0.887,-0.181,-0.341,3.33,-0.24,2.93,1785113204760.56
-0.887,-0.185,-0.345,2.41,-0.58,2.96,1785113204773.8938
-0.891,-0.193,-0.348,1.53,-0.61,3.11,1785113204779.563
-0.888,-0.199,-0.354,0.92,-0.61,3.48,1785113204789.508
-0.89,-0.208,-0.353,0.92,-0.61,3.48,1785113204799.989
-0.896,-0.212,-0.351,0.67,-0.67,3.75,1785113204810.246
-0.897,-0.21,-0.351,0.61,-0.79,4.33,1785113204820.6611
-0.897,-0.211,-0.35,0.52,-0.7,4.73,1785113204834.003
-0.898,-0.209,-0.345,0.24,-0.67,4.61,1785113204839.6401
-0.9,-0.21,-0.343,0.09,-0.61,4.52,1785113204849.691
-0.903,-0.209,-0.342,0.46,-0.52,4.43,1785113204859.972
-0.906,-0.208,-0.341,0.82,-0.52,4.12,1785113204870.341
-0.908,-0.209,-0.341,1.04,-0.46,3.72,1785113204880.711
-0.907,-0.209,-0.343,1.43,-0.31,3.39,1785113204893.7158
-0.908,-0.21,-0.346,1.8,-0.37,3.08,1785113204899.738
-0.905,-0.211,-0.347,2.14,-0.37,2.75,1785113204909.7012
-0.904,-0.213,-0.35,2.84,-0.31,2.5,1785113204919.9778
-0.904,-0.213,-0.352,3.78,-0.49,2.2,1785113204930.5378
-0.9,-0.21,-0.354,4.46,-0.67,1.98,1785113204943.647
-0.896,-0.207,-0.351,4.61,-0.64,1.71,1785113204949.3928
-0.895,-0.202,-0.346,4.46,-0.64,1.56,1785113204959.348
-0.886,-0.2,-0.343,4.21,-0.7,1.37,1785113204969.7668
-0.876,-0.198,-0.351,3.42,-0.85,1.16,1785113204980.0398
-0.87,-0.196,-0.36,1.8,-0.55,0.61,1785113204990.557
-0.868,-0.199,-0.365,-0.46,0.4,-0.09,1785113205003.9028
-0.866,-0.21,-0.363,-1.95,0.95,-0.52,1785113205009.486
-0.866,-0.215,-0.359,-1.8,1.04,-0.85,1785113205019.282
-0.87,-0.219,-0.359,-0.21,0.92,-0.92,1785113205029.784
-0.871,-0.219,-0.359,2.08,1.07,-0.64,1785113205040.16
-0.873,-0.214,-0.354,4.3,0.95,0.06,1785113205050.729
-0.873,-0.207,-0.354,5.74,0.61,0.85,1785113205063.905
-0.873,-0.2,-0.353,6.16,0.49,1.13,1785113205069.71
-0.876,-0.199,-0.354,5.01,0.67,1.22,1785113205079.4392
-0.881,-0.2,-0.344,2.99,0.58,1.31,1785113205089.96
-0.88,-0.205,-0.341,1.07,0.52,1.25,1785113205100.653
-0.883,-0.206,-0.335,-0.27,0.43,0.85,1785113205110.609
-0.889,-0.209,-0.332,-1.31,0.18,0.73,1785113205123.8853
-0.891,-0.209,-0.329,-1.62,0.06,0.37,1785113205129.544
-0.892,-0.208,-0.325,-1.13,-0.27,0.0,1785113205139.621
-0.891,-0.206,-0.322,-0.21,-0.98,-0.21,1785113205149.9487
-0.89,-0.206,-0.329,0.7,-1.59,-0.52,1785113205160.372
-0.889,-0.208,-0.335,1.5,-2.08,-0.92,1785113205170.7258
-0.891,-0.209,-0.336,2.2,-2.32,-1.65,1785113205184.206
-0.889,-0.206,-0.335,2.41,-2.62,-2.2,1785113205189.7312
-0.886,-0.206,-0.331,2.38,-2.84,-2.38,1785113205199.6968
-0.886,-0.205,-0.327,2.29,-3.02,-2.53,1785113205209.996
-0.884,-0.201,-0.322,2.08,-3.27,-2.62,1785113205220.235
-0.885,-0.2,-0.324,1.31,-3.6,-2.75,1785113205230.6611
-0.887,-0.197,-0.323,0.43,-3.75,-2.93,1785113205243.984
-0.888,-0.198,-0.322,-0.49,-3.94,-3.02,1785113205249.9622
-0.889,-0.2,-0.319,-0.98,-4.24,-3.11,1785113205259.695
-0.887,-0.2,-0.316,-1.01,-4.7,-2.9,1785113205270.1362
-0.883,-0.201,-0.316,-0.67,-5.1,-2.72,1785113205280.4812
-0.883,-0.2,-0.316,-0.37,-5.37,-2.59,1785113205293.666
-0.883,-0.199,-0.313,-0.15,-5.77,-2.44,1785113205299.5022
-0.881,-0.198,-0.315,0.4,-6.16,-2.17,1785113205309.3992
-0.881,-0.198,-0.312,0.73,-6.41,-1.89,1785113205319.6218
-0.885,-0.2,-0.309,1.22,-6.56,-1.68,1785113205330.088
-0.89,-0.203,-0.311,2.14,-6.81,-1.5,1785113205340.492
-0.901,-0.203,-0.315,2.75,-6.99,-1.19,1785113205353.948
-0.912,-0.201,-0.311,2.69,-7.29,-0.98,1785113205359.484
-0.919,-0.208,-0.314,2.2,-7.51,-0.55,1785113205369.495
-0.924,-0.214,-0.321,1.43,-7.54,-0.12,1785113205379.857
-0.931,-0.22,-0.326,0.06,-7.51,0.12,1785113205390.277
-0.935,-0.224,-0.329,-1.19,-7.42,0.24,1785113205400.8
-0.933,-0.227,-0.336,-1.89,-7.48,0.52,1785113205413.9011
-0.926,-0.228,-0.34,-2.08,-7.51,0.82,1785113205419.652
-0.918,-0.229,-0.343,-1.98,-7.54,0.82,1785113205429.534
-0.912,-0.228,-0.345,-1.8,-7.69,0.61,1785113205439.877
-0.907,-0.222,-0.349,-1.83,-7.54,0.31,1785113205450.6199
-0.902,-0.217,-0.353,-2.04,-7.29,-0.18,1785113205460.668
-0.899,-0.214,-0.353,-2.53,-6.9,-0.67,1785113205473.898
-0.895,-0.212,-0.353,-3.14,-6.35,-1.04,1785113205479.6072
-0.891,-0.214,-0.351,-3.63,-5.62,-1.1,1785113205489.625
-0.89,-0.216,-0.353,-3.91,-4.91,-1.43,1785113205500.0908
-0.888,-0.218,-0.354,-3.94,-4.18,-1.5,1785113205510.3318
-0.889,-0.219,-0.353,-3.81,-3.39,-1.37,1785113205520.753
-0.889,-0.219,-0.349,-3.23,-2.5,-0.95,1785113205534.1812
-0.887,-0.223,-0.348,-2.38,-1.65,-0.4,1785113205539.745
-0.889,-0.222,-0.348,-1.19,-0.76,0.09,1785113205549.784
-0.891,-0.223,-0.346,-0.06,-0.03,0.49,1785113205560.003
-0.896,-0.224,-0.345,0.85,0.61,1.04,1785113205570.4583
-0.901,-0.224,-0.343,1.56,1.19,1.31,1785113205583.916
-0.903,-0.226,-0.338,2.32,1.65,1.53,1785113205589.4011
-0.907,-0.227,-0.339,2.9,1.98,1.8,1785113205599.367
-0.908,-0.226,-0.34,2.96,2.17,1.86,1785113205609.7158
-0.909,-0.226,-0.34,2.53,2.53,1.71,1785113205619.972
-0.909,-0.226,-0.34,2.08,2.69,1.59,1785113205630.368
-0.91,-0.229,-0.338,1.5,2.81,1.46,1785113205643.7322
-0.911,-0.232,-0.335,1.31,3.05,1.25,1785113205649.4082
-0.908,-0.231,-0.331,1.25,3.27,1.04,1785113205659.4492
-0.907,-0.231,-0.331,1.25,3.39,0.92,1785113205669.816
-0.907,-0.227,-0.329,1.22,3.57,0.67,1785113205680.163
-0.906,-0.228,-0.324,0.85,3.66,0.31,1785113205690.555
-0.902,-0.228,-0.323,0.55,3.78,0.03,1785113205703.9712
-0.904,-0.229,-0.322,0.58,3.78,-0.37,1785113205709.485
-0.903,-0.229,-0.322,0.67,3.85,-0.67,1785113205719.5608
-0.9,-0.229,-0.319,0.95,3.78,-0.79,1785113205729.822
-0.897,-0.23,-0.317,1.37,3.78,-1.16,1785113205740.217
-0.896,-0.229,-0.316,1.98,3.81,-1.22,1785113205750.7783
-0.894,-0.228,-0.315,2.35,3.63,-1.37,1785113205763.9658
-0.894,-0.228,-0.315,2.47,3.54,-1.4,1785113205769.7222
-0.895,-0.227,-0.312,2.44,3.6,-1.34,1785113205779.522
-0.895,-0.227,-0.311,2.41,3.48,-1.37,1785113205789.956
-0.897,-0.225,-0.312,2.29,3.23,-1.43,1785113205800.394
-0.899,-0.224,-0.311,1.98,3.11,-1.5,1785113205810.6848
-0.902,-0.223,-0.311,1.59,3.02,-1.43,1785113205823.9282
-0.905,-0.225,-0.314,1.16,2.84,-1.25,1785113205829.6199
-0.905,-0.224,-0.313,0.73,2.62,-1.19,1785113205839.6658
-0.905,-0.224,-0.313,0.4,2.47,-1.13,1785113205850.0723
-0.903,-0.224,-0.314,0.24,2.2,-0.98,1785113205860.3562
-0.902,-0.224,-0.319,-0.24,1.98,-0.98,1785113205870.77
-0.902,-0.224,-0.321,-0.67,1.86,-1.07,1785113205884.1018
-0.901,-0.223,-0.317,-1.04,1.68,-1.1,1785113205889.7458
-0.899,-0.224,-0.32,-1.1,1.46,-1.1,1785113205899.7021
-0.899,-0.223,-0.322,-1.01,1.31,-1.19,1785113205910.09
-0.897,-0.222,-0.324,-1.22,1.34,-1.22,1785113205920.353
-0.898,-0.22,-0.328,-1.46,1.37,-1.16,1785113205933.8481
-0.897,-0.221,-0.33,-1.68,1.53,-1.07,1785113205939.5198
-0.896,-0.223,-0.327,-1.68,1.5,-1.1,1785113205949.357
-0.896,-0.223,-0.328,-1.5,1.5,-1.04,1785113205959.76
-0.896,-0.223,-0.329,-1.28,1.68,-0.92,1785113205970.208
-0.895,-0.221,-0.331,-0.98,1.68,-0.61,1785113205980.528
-0.894,-0.221,-0.334,-0.76,1.71,-0.31,1785113205993.8718
-0.89,-0.221,-0.33,-0.67,1.98,-0.15,1785113205999.5662
-0.891,-0.222,-0.33,-0.27,2.11,0.0,1785113206009.486
-0.894,-0.219,-0.33,-0.09,2.14,0.24,1785113206019.723
-0.898,-0.218,-0.329,-0.21,2.32,0.31,1785113206030.2742
-0.898,-0.218,-0.329,-0.4,2.44,0.37,1785113206040.4702
-0.901,-0.219,-0.33,-0.58,2.62,0.4,1785113206053.933
-0.901,-0.219,-0.329,-0.61,2.53,0.52,1785113206059.1272
-0.901,-0.219,-0.33,-0.64,2.47,0.61,1785113206069.723
-0.899,-0.218,-0.33,-0.58,2.53,0.64,1785113206079.769
-0.899,-0.219,-0.33,-0.58,2.53,0.64,1785113206090.057
-0.897,-0.219,-0.328,-0.55,2.62,0.7,1785113206100.46
-0.898,-0.22,-0.326,-0.49,2.59,0.67,1785113206113.913
-0.895,-0.219,-0.325,-0.21,2.56,0.79,1785113206119.7668
-0.893,-0.218,-0.325,0.12,2.44,0.98,1785113206129.603
-0.894,-0.219,-0.326,0.34,2.44,1.1,1785113206140.007
-0.893,-0.217,-0.326,0.58,2.44,1.34,1785113206150.65
-0.894,-0.218,-0.324,0.82,2.38,1.62,1785113206160.72
-0.894,-0.22,-0.327,1.1,2.35,1.89,1785113206174.0051
-0.892,-0.219,-0.327,1.34,2.41,2.2,1785113206179.71
-0.893,-0.222,-0.325,1.83,2.41,2.56,1785113206189.706
-0.892,-0.224,-0.326,2.26,2.44,2.9,1785113206199.986
-0.893,-0.222,-0.325,2.53,2.47,3.2,1785113206210.433
-0.892,-0.226,-0.326,2.66,2.56,3.45,1785113206223.739
-0.893,-0.227,-0.326,2.81,2.5,3.75,1785113206229.393
-0.892,-0.229,-0.326,2.9,2.56,4.09,1785113206239.361
-0.892,-0.231,-0.327,3.11,2.56,4.18,1785113206249.9058
-0.895,-0.23,-0.326,3.05,2.66,4.33,1785113206260.0962
-0.897,-0.23,-0.328,2.66,2.53,4.46,1785113206270.5532
-0.896,-0.23,-0.33,2.11,2.5,4.36,1785113206283.999
-0.899,-0.232,-0.329,1.46,2.59,4.12,1785113206289.4631
-0.902,-0.233,-0.332,0.79,2.62,4.0,1785113206299.423
-0.903,-0.236,-0.335,0.52,2.56,3.78,1785113206309.8901
-0.903,-0.236,-0.337,0.27,2.5,3.63,1785113206320.0781
-0.903,-0.236,-0.34,0.24,2.62,3.33,1785113206330.572
-0.907,-0.235,-0.34,0.24,2.72,3.08,1785113206343.779
-0.908,-0.236,-0.341,0.49,2.75,2.78,1785113206349.625
-0.907,-0.234,-0.344,0.58,2.69,2.59,1785113206359.494
-0.905,-0.232,-0.348,0.73,2.87,2.32,1785113206369.949
-0.902,-0.232,-0.352,0.85,3.14,1.92,1785113206380.248
-0.898,-0.23,-0.35,1.01,3.45,1.65,1785113206390.6719
-0.896,-0.229,-0.349,1.16,3.66,1.43,1785113206403.8643
-0.894,-0.226,-0.35,1.59,3.88,1.22,1785113206409.052
-0.893,-0.223,-0.35,1.86,4.09,1.07,1785113206419.321
-0.895,-0.22,-0.351,1.89,4.24,1.13,1785113206429.719
-0.898,-0.218,-0.355,1.62,4.58,0.95,1785113206440.083
-0.899,-0.218,-0.356,1.37,4.91,0.98,1785113206450.66
-0.9,-0.217,-0.354,1.37,5.1,1.07,1785113206463.8137
-0.9,-0.215,-0.354,1.46,5.28,1.25,1785113206469.3591
-0.898,-0.214,-0.353,1.4,5.34,1.59,1785113206479.517
-0.902,-0.212,-0.355,1.4,5.65,1.77,1785113206489.87
-0.906,-0.209,-0.353,1.4,5.89,1.92,1785113206500.37
-0.908,-0.208,-0.349,1.95,5.98,2.08,1785113206510.571
-0.908,-0.204,-0.345,2.93,6.41,2.2,1785113206523.978
-0.907,-0.199,-0.344,3.94,6.44,2.23,1785113206529.7
-0.908,-0.193,-0.345,4.61,6.41,2.35,1785113206539.708
-0.908,-0.189,-0.347,4.88,6.47,2.47,1785113206550.418
-0.904,-0.189,-0.347,5.04,6.53,2.69,1785113206560.446
-0.902,-0.19,-0.347,5.31,6.65,3.05,1785113206573.7432
-0.903,-0.188,-0.346,5.77,6.68,3.63,1785113206579.389
-0.905,-0.186,-0.348,6.2,6.71,4.64,1785113206589.45
-0.906,-0.183,-0.351,6.13,6.74,5.49,1785113206599.811
-0.904,-0.183,-0.35,6.04,6.93,6.16,1785113206610.1648
-0.901,-0.181,-0.349,6.2,7.2,6.68,1785113206620.5771
-0.898,-0.182,-0.349,6.81,7.23,7.14,1785113206633.847
-0.893,-0.18,-0.352,7.63,7.11,7.66,1785113206639.576
-0.886,-0.179,-0.356,8.79,7.02,8.18,1785113206649.489
-0.877,-0.18,-0.362,9.89,7.11,8.51,1785113206659.859
-0.874,-0.179,-0.369,11.05,7.2,8.67,1785113206670.369
-0.876,-0.178,-0.387,12.36,7.39,8.91,1785113206680.762
-0.894,-0.178,-0.417,13.98,7.84,9.0,1785113206694.013
-0.92,-0.167,-0.454,14.71,8.7,9.49,1785113206700.279
-0.937,-0.152,-0.487,13.55,10.38,10.68,1785113206710.155
-0.947,-0.131,-0.511,9.4,13.55,11.75,1785113206720.709
-0.925,-0.141,-0.503,4.58,16.72,12.15,1785113206734.126
-0.885,-0.167,-0.488,2.62,19.26,11.84,1785113206739.964
-0.85,-0.179,-0.471,3.57,21.03,11.14,1785113206750.304
-0.822,-0.181,-0.446,6.35,22.0,10.9,1785113206760.719
-0.804,-0.173,-0.427,10.13,22.1,11.08,1785113206773.97
-0.794,-0.165,-0.415,14.92,21.55,11.54,1785113206779.9822
-0.792,-0.157,-0.408,20.23,20.97,12.15,1785113206790.413
-0.795,-0.154,-0.409,25.15,20.23,13.25,1785113206803.8171
-0.805,-0.152,-0.411,28.41,19.75,14.47,1785113206809.69
-0.817,-0.151,-0.413,29.39,19.35,15.87,1785113206819.9749
-0.829,-0.159,-0.405,28.87,19.2,17.09,1785113206830.6548
-0.839,-0.171,-0.399,27.83,19.1,18.19,1785113206844.0308
-0.846,-0.179,-0.389,26.76,18.86,19.29,1785113206850.57
-0.852,-0.186,-0.378,25.7,18.34,20.36,1785113206860.476
-0.85,-0.188,-0.379,24.08,17.43,21.0,1785113206873.7468
-0.847,-0.185,-0.375,21.52,16.6,21.09,1785113206879.763
-0.845,-0.187,-0.373,18.37,15.23,20.91,1785113206890.1948
-0.85,-0.191,-0.372,14.83,14.01,20.29,1785113206901.2961
-0.85,-0.196,-0.371,11.35,12.91,19.65,1785113206914.1409
-0.85,-0.199,-0.373,7.72,11.78,18.8,1785113206920.111
-0.851,-0.195,-0.373,4.36,10.86,17.15,1785113206930.42
-0.853,-0.189,-0.373,1.92,10.19,14.47,1785113206943.605
-0.861,-0.184,-0.382,0.82,9.22,11.38,1785113206949.656
-0.871,-0.189,-0.391,0.67,8.51,9.34,1785113206959.337
-0.879,-0.196,-0.391,1.74,8.45,8.51,1785113206969.9897
-0.883,-0.198,-0.386,4.61,8.24,8.0,1785113206980.337
-0.886,-0.196,-0.382,9.28,7.57,7.14,1785113206990.643
-0.886,-0.191,-0.386,14.31,6.71,6.35,1785113207004.0742
-0.885,-0.185,-0.398,17.98,5.98,6.07,1785113207009.811
-0.88,-0.181,-0.411,20.14,5.37,5.71,1785113207019.732
-0.874,-0.18,-0.416,21.3,4.88,5.01,1785113207030.333
-0.869,-0.177,-0.416,21.55,4.33,4.24,1785113207040.758
-0.865,-0.174,-0.415,21.18,3.6,3.54,1785113207054.2021
-0.861,-0.172,-0.419,19.93,2.62,3.08,1785113207059.9128
-0.857,-0.171,-0.422,17.94,1.59,2.62,1785113207070.0522
-0.855,-0.17,-0.424,15.63,0.61,1.95,1785113207080.457
-0.852,-0.166,-0.431,13.4,-0.4,1.5,1785113207093.6792
-0.847,-0.164,-0.437,11.08,-1.34,1.13,1785113207099.639
-0.841,-0.165,-0.442,8.88,-2.26,0.79,1785113207109.536
