ax,ay,az,gx,gy,gz,timestamp_ms
0.243,-0.669,-0.526,8.45,83.47,83.07,1785098218682.069
0.255,-0.732,-0.486,14.4,83.13,87.98,1785098218682.4949
0.267,-0.81,-0.451,19.56,82.95,91.01,1785098218682.852
0.265,-0.903,-0.423,21.45,83.47,92.75,1785098218683.235
0.253,-0.986,-0.375,18.13,84.9,93.66,1785098218683.5872
0.244,-1.053,-0.306,12.09,85.94,94.18,1785098218683.8982
0.239,-1.094,-0.224,4.76,85.97,93.14,1785098218684.196
0.246,-1.126,-0.142,-0.98,84.93,92.23,1785098218684.4941
0.264,-1.157,-0.06,-3.23,84.72,90.03,1785098218684.778
0.3,-1.185,0.025,-3.08,84.32,85.06,1785098218685.072
0.337,-1.185,0.11,-3.85,82.06,76.42,1785098218685.3672
0.37,-1.173,0.201,-8.24,78.52,69.34,1785098218685.659
0.417,-1.176,0.3,-14.68,73.58,64.55,1785098218685.945
0.469,-1.178,0.384,-20.26,67.2,58.99,1785098218686.2368
0.512,-1.185,0.473,-23.74,59.42,51.36,1785098218686.534
0.549,-1.19,0.564,-26.06,49.29,41.26,1785098218686.83
0.574,-1.19,0.641,-27.07,38.06,30.7,1785098218687.1328
0.584,-1.19,0.697,-26.61,25.03,19.62,1785098218687.483
0.588,-1.188,0.737,-25.54,10.13,7.42,1785098218687.7708
0.575,-1.206,0.734,-21.79,-6.01,-5.65,1785098218688.055
0.551,-1.222,0.696,-15.96,-23.62,-18.46,1785098218688.3462
0.527,-1.225,0.628,-8.21,-41.96,-29.85,1785098218688.637
0.499,-1.22,0.543,1.46,-60.49,-39.7,1785098218688.926
0.466,-1.207,0.446,12.09,-79.26,-48.01,1785098218689.2131
0.426,-1.171,0.35,22.83,-97.14,-54.11,1785098218689.502
0.385,-1.124,0.26,33.88,-114.35,-57.62,1785098218689.7988
0.343,-1.085,0.173,45.84,-131.05,-59.79,1785098218690.086
0.297,-1.053,0.068,59.02,-146.67,-61.25,1785098218690.3833
0.244,-1.023,-0.079,72.94,-160.41,-62.11,1785098218690.691
0.186,-0.975,-0.264,84.63,-171.15,-62.84,1785098218691.0022
0.127,-0.921,-0.48,91.46,-178.35,-63.33,1785098218691.2861
0.074,-0.882,-0.668,93.3,-181.89,-64.0,1785098218691.5579
0.045,-0.851,-0.831,91.77,-182.04,-64.79,1785098218691.8381
0.052,-0.839,-0.986,87.62,-176.95,-65.37,1785098218692.1348
0.083,-0.861,-1.122,78.49,-165.56,-62.35,1785098218692.3918
0.16,-0.841,-1.256,61.25,-147.74,-65.95,1785098218692.652
0.122,-0.758,-1.372,32.87,-126.07,-77.15,1785098218692.916
0.17,-0.764,-1.45,-0.92,-96.01,-62.78,1785098218693.1729
0.219,-0.727,-1.494,-34.73,-65.55,-48.13,1785098218693.4268
0.204,-0.609,-1.495,-61.1,-36.26,-40.68,1785098218693.687
0.197,-0.547,-1.459,-77.55,-5.83,-28.2,1785098218693.944
0.218,-0.533,-1.392,-87.31,21.42,-15.23,1785098218694.232
0.167,-0.48,-1.319,-91.46,45.14,-11.9,1785098218694.546
0.133,-0.488,-1.223,-91.95,65.28,-4.49,1785098218694.845
0.134,-0.541,-1.104,-89.45,81.94,5.43,1785098218695.1099
0.107,-0.567,-0.996,-82.06,94.7,11.81,1785098218695.441
0.083,-0.606,-0.9,-70.56,102.85,19.87,1785098218695.7432
0.081,-0.66,-0.79,-56.58,108.37,29.24,1785098218696.0142
0.093,-0.704,-0.682,-39.64,112.46,36.99,1785098218696.2812
0.101,-0.746,-0.597,-19.81,114.78,42.42,1785098218696.5408
0.105,-0.786,-0.522,-1.28,114.69,47.98,1785098218696.809
0.12,-0.794,-0.437,11.87,112.58,54.63,1785098218697.071
0.157,-0.769,-0.339,19.04,109.29,62.07,1785098218697.3318
0.223,-0.774,-0.219,21.21,104.5,69.43,1785098218697.567
0.311,-0.825,-0.079,17.0,98.12,74.07,1785098218697.815
0.396,-0.854,0.093,3.17,91.77,75.32,1785098218698.059
0.47,-0.892,0.364,-16.69,83.77,76.57,1785098218698.294
0.542,-1.013,0.573,-35.89,71.32,75.47,1785098218698.539
0.561,-1.16,0.692,-49.62,57.16,69.67,1785098218698.7952
0.507,-1.325,0.745,-48.28,38.73,58.63,1785098218699.035
0.442,-1.42,0.704,-34.79,17.52,41.78,1785098218699.2698
0.432,-1.42,0.63,-20.39,-4.3,24.6,1785098218699.512
0.473,-1.382,0.556,-10.35,-26.52,8.82,1785098218699.752
0.473,-1.382,0.556,-2.23,-47.0,-6.01,1785098218700.0261
0.516,-1.344,0.486,6.84,-64.58,-20.05,1785098218700.319
0.531,-1.296,0.408,15.5,-78.46,-31.92,1785098218700.5972
0.513,-1.24,0.319,25.06,-88.84,-40.74,1785098218700.859
0.481,-1.195,0.229,37.54,-98.45,-47.98,1785098218701.118
0.444,-1.143,0.133,37.54,-98.45,-47.98,1785098218701.36
0.411,-1.055,0.025,52.55,-108.19,-53.1,1785098218701.6042
0.38,-0.952,-0.11,67.6,-116.09,-55.33,1785098218701.8408
0.348,-0.854,-0.255,79.13,-121.4,-55.36,1785098218702.078
0.312,-0.755,-0.389,82.89,-123.11,-53.29,1785098218702.328
0.274,-0.704,-0.545,76.94,-120.85,-49.01,1785098218702.569
0.286,-0.699,-0.702,58.96,-113.53,-43.58,1785098218702.802
0.255,-0.658,-0.839,29.11,-102.3,-47.52,1785098218703.0469
0.23,-0.677,-0.966,-6.5,-84.66,-45.08,1785098218703.294
0.232,-0.734,-1.092,-41.44,-62.38,-37.81,1785098218703.5461
0.193,-0.706,-1.189,-70.19,-40.65,-30.85,1785098218703.778
0.165,-0.638,-1.253,-85.33,-19.1,-19.68,1785098218704.0188
0.15,-0.579,-1.281,-84.99,2.29,-9.52,1785098218704.261
0.123,-0.545,-1.289,-71.63,20.81,-4.73,1785098218704.495
0.112,-0.559,-1.289,-52.16,36.65,-0.34,1785098218704.743
0.097,-0.563,-1.261,-35.74,49.38,5.19,1785098218704.985
0.077,-0.541,-1.168,-25.48,59.91,13.31,1785098218705.2268
0.077,-0.539,-1.053,-18.49,70.31,24.45,1785098218705.446
0.098,-0.561,-0.951,-12.48,77.43,36.04,1785098218705.6682
0.106,-0.57,-0.861,-6.13,79.2,43.46,1785098218705.887
0.124,-0.599,-0.779,0.82,80.02,49.38,1785098218706.102
0.159,-0.651,-0.686,8.51,81.36,54.38,1785098218706.319
0.189,-0.712,-0.6,17.94,82.03,59.11,1785098218706.542
0.211,-0.75,-0.525,26.52,81.79,64.52,1785098218706.7651
0.239,-0.748,-0.45,29.79,80.87,70.53,1785098218706.9868
0.286,-0.749,-0.383,26.98,79.96,75.56,1785098218707.212
0.332,-0.771,-0.319,18.01,79.1,78.92,1785098218707.436
0.37,-0.818,-0.259,4.55,78.07,81.73,1785098218707.656
0.397,-0.892,-0.203,-9.83,77.73,84.38,1785098218707.894
0.411,-0.983,-0.142,-21.03,77.76,85.18,1785098218708.122
0.418,-1.077,-0.08,-25.7,77.3,82.98,1785098218708.3499
0.421,-1.143,-0.028,-22.06,75.69,78.07,1785098218708.565
0.427,-1.179,0.014,-10.28,73.76,72.91,1785098218708.7861
0.436,-1.175,0.043,7.9,71.78,68.06,1785098218709.0151
0.453,-1.161,0.045,29.08,69.83,62.17,1785098218709.2422
0.451,-1.156,0.038,47.73,68.21,53.71,1785098218709.46
0.421,-1.133,0.049,59.3,66.26,44.77,1785098218709.687
0.411,-1.122,0.083,65.98,63.26,38.67,1785098218709.923
0.408,-1.12,0.112,70.68,59.45,31.43,1785098218710.14
0.402,-1.126,0.146,74.1,54.96,23.87,1785098218710.367
0.391,-1.13,0.178,76.94,49.04,16.6,1785098218710.5962
0.391,-1.138,0.197,81.3,42.51,11.23,1785098218710.831
0.386,-1.125,0.189,85.85,35.65,4.06,1785098218711.0432
0.356,-1.078,0.167,84.81,28.17,-3.2,1785098218711.272
0.347,-1.052,0.148,77.61,19.32,-7.39,1785098218711.489
0.353,-1.033,0.136,67.63,10.9,-12.48,1785098218711.6968
0.36,-1.023,0.111,58.23,2.99,-18.89,1785098218711.9072
0.363,-1.009,0.08,49.65,-5.34,-24.93,1785098218712.1223
0.367,-1.01,0.056,42.12,-14.44,-29.33,1785098218712.3342
0.368,-1.029,0.04,36.99,-23.83,-31.37,1785098218712.544
0.388,-1.049,0.022,36.1,-31.8,-31.16,1785098218712.759
0.399,-1.039,-0.011,39.31,-38.27,-33.51,1785098218712.971
0.391,-1.04,-0.043,44.22,-45.99,-35.13,1785098218713.176
0.415,-1.056,-0.073,50.36,-53.32,-34.15,1785098218713.386
0.431,-1.026,-0.114,57.68,-58.47,-35.55,1785098218713.5989
0.448,-0.973,-0.153,61.83,-62.17,-36.71,1785098218713.8079
0.466,-0.9,-0.185,58.32,-64.7,-37.75,1785098218714.013
0.47,-0.846,-0.214,46.94,-66.35,-37.81,1785098218714.2249
0.473,-0.802,-0.234,29.39,-68.3,-37.45,1785098218714.439
0.464,-0.768,-0.257,9.55,-69.58,-36.5,1785098218714.646
0.469,-0.752,-0.286,-11.66,-67.81,-32.29,1785098218714.861
0.462,-0.755,-0.317,-35.25,-66.04,-29.48,1785098218715.0771
0.44,-0.737,-0.327,-62.29,-63.94,-28.44,1785098218715.288
0.442,-0.725,-0.329,-89.21,-61.28,-26.64,1785098218715.49
0.438,-0.763,-0.334,-112.46,-58.84,-26.37,1785098218715.7249
0.424,-0.851,-0.345,-130.83,-56.03,-27.1,1785098218715.971
0.39,-0.928,-0.344,-144.87,-53.8,-29.48,1785098218716.198
0.36,-0.972,-0.364,-154.15,-51.58,-30.76,1785098218716.4668
0.351,-0.966,-0.391,-163.09,-47.61,-29.18,1785098218716.7039
0.322,-0.934,-0.391,-172.46,-45.84,-26.46,1785098218716.9211
0.31,-0.893,-0.379,-176.92,-46.42,-22.77,1785098218717.129
0.315,-0.849,-0.36,-173.89,-47.49,-19.84,1785098218717.345
0.313,-0.807,-0.375,-166.51,-48.52,-18.1,1785098218717.576
0.301,-0.78,-0.395,-160.41,-47.61,-18.31,1785098218717.7861
0.276,-0.755,-0.419,-158.73,-46.21,-21.06,1785098218717.9949
0.271,-0.765,-0.453,-158.7,-45.81,-23.9,1785098218718.2122
0.27,-0.771,-0.463,-160.56,-46.72,-27.53,1785098218718.432
0.271,-0.754,-0.46,-162.66,-48.04,-30.52,1785098218718.643
0.279,-0.715,-0.453,-161.99,-49.96,-31.59,1785098218718.859
0.29,-0.682,-0.469,-157.2,-51.61,-31.34,1785098218719.074
0.295,-0.644,-0.482,-150.7,-52.89,-30.98,1785098218719.279
0.294,-0.602,-0.508,-143.25,-55.36,-31.19,1785098218719.5
0.3,-0.572,-0.572,-135.81,-57.77,-30.3,1785098218719.7012
0.297,-0.572,-0.678,-130.71,-57.5,-29.51,1785098218719.9092
0.269,-0.598,-0.745,-130.13,-54.48,-30.34,1785098218720.105
0.243,-0.613,-0.749,-131.75,-53.59,-31.1,1785098218720.311
0.25,-0.623,-0.741,-130.31,-54.32,-30.06,1785098218720.516
0.257,-0.631,-0.746,-124.36,-55.36,-28.69,1785098218720.7307
0.255,-0.622,-0.733,-115.73,-56.22,-27.28,1785098218720.9321
0.255,-0.589,-0.705,-103.92,-58.32,-26.15,1785098218721.1343
0.264,-0.543,-0.711,-88.87,-61.28,-24.14,1785098218721.3599
0.261,-0.507,-0.768,-74.43,-62.2,-21.64,1785098218721.559
0.235,-0.49,-0.823,-64.42,-60.46,-20.78,1785098218721.7578
0.209,-0.497,-0.837,-56.86,-59.08,-21.0,1785098218721.9573
0.192,-0.504,-0.872,-47.4,-57.71,-21.33,1785098218722.155
0.197,-0.502,-0.881,-38.79,-56.15,-20.48,1785098218722.348
0.198,-0.496,-0.897,-30.82,-55.6,-19.62,1785098218722.5498
0.197,-0.478,-0.914,-26.55,-55.67,-17.82,1785098218722.7422
0.194,-0.471,-0.931,-24.63,-54.96,-15.05,1785098218722.934
0.189,-0.47,-0.921,-21.88,-53.96,-13.46,1785098218723.356
0.184,-0.462,-0.866,-9.19,-55.15,-12.33,1785098218723.552
-1.062,-0.978,-0.644,1.92,10.13,-8.15,1785098218723.9329
-1.149,-1.092,-0.623,12.82,19.23,-19.87,1785098218724.127
-1.235,-1.219,-0.564,31.31,30.82,-39.55,1785098218724.323
-1.326,-1.259,-0.478,58.17,43.49,-66.9,1785098218728.8801
-1.371,-1.252,-0.488,96.99,54.63,-91.92,1785098218739.682
-1.335,-1.183,-0.614,136.39,65.34,-108.49,1785098218752.924
-1.39,-1.054,-0.766,154.91,70.13,-127.2,1785098218758.969
-1.474,-0.971,-0.851,141.94,69.4,-143.83,1785098218769.948
-1.503,-0.913,-0.833,106.97,66.59,-153.08,1785098218783.204
-1.432,-0.927,-0.79,69.77,64.55,-156.62,1785098218789.171
-1.319,-0.991,-0.751,38.79,63.14,-159.34,1785098218799.9812
-1.217,-1.045,-0.703,15.35,62.14,-160.28,1785098218813.225
-1.118,-1.091,-0.655,1.59,61.92,-157.29,1785098218818.9631
-1.017,-1.106,-0.614,-3.51,61.86,-151.37,1785098218829.8171
-0.899,-1.082,-0.548,-0.92,61.31,-142.34,1785098218843.1392
-0.76,-1.024,-0.474,8.27,59.42,-131.08,1785098218848.788
-0.612,-0.984,-0.412,20.69,56.09,-117.92,1785098218859.6301
-0.503,-0.987,-0.339,30.7,50.87,-106.81,1785098218870.395
-0.421,-1.033,-0.306,37.57,44.62,-99.22,1785098218883.6228
-0.349,-1.163,-0.305,44.4,38.33,-94.64,1785098218889.395
-0.308,-1.189,-0.216,49.71,30.88,-92.23,1785098218900.0479
-0.207,-1.121,-0.145,64.46,21.73,-83.22,1785098218913.506
-0.037,-1.083,-0.152,88.32,13.03,-72.73,1785098218919.421
0.094,-1.038,-0.17,106.3,2.41,-69.31,1785098218929.972
0.172,-0.928,-0.194,113.53,-8.39,-67.9,1785098218940.9358
0.244,-0.814,-0.219,114.29,-15.87,-64.24,1785098218953.85
0.293,-0.72,-0.217,108.65,-22.74,-63.78,1785098218959.8132
0.328,-0.689,-0.216,99.4,-28.38,-65.16,1785098218970.449
0.349,-0.727,-0.166,89.85,-33.11,-67.45,1785098218983.71
0.339,-0.724,-0.059,81.48,-39.46,-69.98,1785098218989.644
0.373,-0.696,0.02,77.7,-47.24,-68.67,1785098219000.167
0.432,-0.661,0.098,77.82,-56.03,-67.57,1785098219013.429
0.459,-0.642,0.131,81.51,-65.49,-69.19,1785098219019.349
0.448,-0.631,0.116,86.34,-74.62,-71.93,1785098219029.892
0.408,-0.646,0.061,90.03,-84.02,-75.08,1785098219040.74
0.348,-0.631,-0.011,90.73,-94.36,-79.84,1785098219053.7449
0.298,-0.586,-0.131,89.63,-104.98,-82.89,1785098219059.763
0.258,-0.518,-0.277,83.8,-113.8,-83.04,1785098219070.4707
0.2,-0.477,-0.455,70.65,-121.46,-83.25,1785098219083.628
0.116,-0.44,-0.545,53.77,-126.19,-84.78,1785098219089.545
0.079,-0.408,-0.661,40.53,-130.95,-85.12,1785098219100.565
0.06,-0.254,-0.765,27.5,-129.18,-86.83,1785098219113.635
0.078,-0.118,-0.945,9.74,-125.61,-89.42,1785098219119.5461
0.03,-0.09,-1.095,-17.73,-108.04,-94.52,1785098219130.3098
0.029,-0.228,-1.257,-49.96,-90.79,-87.34,1785098219143.326
0.094,-0.261,-1.244,-82.34,-78.25,-79.93,1785098219149.0837
0.089,-0.241,-1.277,-97.54,-60.06,-73.58,1785098219159.971
0.086,-0.297,-1.27,-103.43,-38.54,-58.75,1785098219173.2021
0.151,-0.411,-1.222,-103.85,-11.38,-47.09,1785098219179.189
0.145,-0.472,-1.151,-102.54,14.22,-44.19,1785098219189.9788
0.017,-0.612,-1.058,-96.1,31.56,-30.95,1785098219200.5562
-0.034,-0.757,-0.981,-79.78,45.29,-19.84,1785098219213.821
0.073,-0.766,-0.885,-53.44,60.21,-20.45,1785098219219.743
0.142,-0.724,-0.789,-28.38,73.34,-19.44,1785098219230.295
0.219,-0.759,-0.676,-11.05,82.95,-9.31,1785098219243.5479
0.247,-0.784,-0.563,-0.7,90.55,-1.83,1785098219249.3892
0.28,-0.78,-0.465,4.79,95.49,3.97,1785098219259.511
0.372,-0.79,-0.367,4.18,97.51,8.85,1785098219269.9521
0.472,-0.792,-0.278,-4.24,97.51,8.82,1785098219280.4338
0.537,-0.825,-0.173,-18.89,95.43,7.84,1785098219293.685
0.588,-0.946,0.024,-33.66,91.62,5.19,1785098219299.631
0.622,-1.101,0.263,-42.12,85.63,-2.75,1785098219309.887
0.645,-1.176,0.454,-41.14,74.28,-13.28,1785098219320.569
0.67,-1.175,0.57,-31.83,57.89,-21.61,1785098219334.1929
0.667,-1.173,0.59,-18.34,38.7,-29.57,1785098219339.9182
0.63,-1.176,0.527,-7.08,19.59,-39.06,1785098219350.2239
0.57,-1.152,0.441,-2.75,1.43,-50.51,1785098219363.408
0.515,-1.115,0.37,-2.59,-17.24,-66.38,1785098219369.349
0.514,-1.053,0.322,-6.56,-36.19,-83.71,1785098219379.564
0.506,-1.001,0.276,-12.73,-55.88,-94.24,1785098219390.177
0.468,-0.975,0.171,-16.85,-73.67,-97.99,1785098219403.459
0.402,-0.923,-0.008,-17.79,-88.23,-101.02,1785098219408.962
0.293,-0.876,-0.227,-19.53,-100.92,-102.82,1785098219420.3079
0.199,-0.872,-0.483,-24.05,-108.01,-98.76,1785098219433.397
0.113,-0.841,-0.663,-27.34,-110.08,-95.4,1785098219439.4683
0.024,-0.852,-0.809,-23.22,-108.49,-93.94,1785098219450.102
-0.064,-0.798,-1.07,-13.12,-106.97,-99.22,1785098219463.34
0.001,-0.684,-1.303,-11.72,-94.42,-91.62,1785098219469.291
0.162,-0.597,-1.402,-18.68,-64.67,-71.54,1785098219479.6719
0.183,-0.559,-1.413,-23.35,-20.05,-53.83,1785098219490.5657
0.06,-0.516,-1.409,-29.21,18.56,-40.19,1785098219503.767
0.019,-0.522,-1.331,-41.44,47.03,-21.21,1785098219509.87
0.014,-0.562,-1.22,-46.54,71.38,0.64,1785098219520.155
-0.044,-0.548,-1.132,-38.3,88.69,19.04,1785098219533.7222
-0.07,-0.506,-1.051,-27.04,99.28,31.89,1785098219539.1638
-0.014,-0.478,-0.951,-21.0,106.57,34.55,1785098219549.694
0.08,-0.481,-0.834,-19.56,110.66,31.95,1785098219562.9521
0.165,-0.524,-0.698,-22.68,113.16,31.83,1785098219568.752
0.249,-0.582,-0.557,-26.18,114.81,37.84,1785098219579.7068
0.341,-0.655,-0.428,-25.3,114.02,44.19,1785098219593.3162
0.424,-0.743,-0.297,-21.18,111.3,47.73,1785098219599.144
0.524,-0.833,-0.151,-15.23,106.91,49.75,1785098219609.946
0.612,-0.928,0.047,-7.93,100.56,49.2,1785098219620.438
0.695,-1.014,0.269,-0.09,90.98,45.11,1785098219633.854
0.757,-1.076,0.446,8.0,77.52,36.68,1785098219639.7249
0.779,-1.131,0.554,14.92,61.37,26.34,1785098219650.0637
0.745,-1.186,0.589,20.45,44.01,14.37,1785098219663.498
0.676,-1.205,0.572,24.87,25.18,-0.49,1785098219669.2158
0.62,-1.2,0.506,26.58,3.45,-16.63,1785098219679.451
0.588,-1.194,0.443,24.08,-18.86,-31.19,1785098219690.35
0.568,-1.19,0.388,21.18,-40.22,-43.95,1785098219703.5078
0.527,-1.161,0.311,20.33,-60.95,-55.76,1785098219709.523
0.469,-1.096,0.195,22.52,-80.69,-65.58,1785098219719.717
0.411,-1.023,0.024,28.32,-99.31,-72.94,1785098219730.346
0.355,-0.934,-0.202,32.44,-113.47,-77.55,1785098219743.9
0.29,-0.803,-0.467,29.85,-121.89,-78.95,1785098219749.774
0.248,-0.699,-0.701,21.24,-124.15,-75.78,1785098219760.548
0.215,-0.655,-0.906,11.17,-120.12,-71.5,1785098219773.916
0.187,-0.635,-1.061,0.49,-108.07,-64.42,1785098219779.822
0.175,-0.655,-1.169,-8.51,-89.79,-53.77,1785098219790.411
0.154,-0.671,-1.282,-16.6,-66.13,-42.85,1785098219803.479
0.113,-0.649,-1.381,-22.37,-37.51,-30.76,1785098219809.4668
0.077,-0.6,-1.423,-24.08,-8.21,-17.06,1785098219819.8608
0.077,-0.6,-1.423,-23.47,19.2,-3.85,1785098219830.119
0.032,-0.548,-1.405,-21.36,43.24,9.4,1785098219843.822
-0.012,-0.516,-1.33,-18.83,61.92,23.29,1785098219849.609
-0.036,-0.479,-1.223,-16.54,76.66,35.89,1785098219860.089
-0.031,-0.413,-1.117,-17.55,89.11,44.65,1785098219873.348
0.016,-0.356,-1.03,-17.55,89.11,44.65,1785098219879.23
0.071,-0.351,-0.93,-25.24,98.27,50.29,1785098219889.837
0.123,-0.414,-0.812,-37.14,104.01,54.51,1785098219900.628
0.183,-0.512,-0.68,-46.91,106.42,60.34,1785098219913.743
0.261,-0.622,-0.538,-48.71,105.38,68.54,1785098219919.726
0.361,-0.723,-0.395,-43.09,102.3,74.74,1785098219930.481
0.478,-0.825,-0.246,-32.93,98.39,77.67,1785098219943.7913
0.599,-0.944,-0.049,-21.7,92.93,77.46,1785098219949.6372
0.708,-1.061,0.16,-12.79,84.54,74.68,1785098219960.182
0.779,-1.149,0.34,-6.81,74.47,70.38,1785098219973.4631
0.798,-1.208,0.492,-1.22,62.23,64.18,1785098219979.3489
0.779,-1.271,0.612,6.38,46.63,54.87,1785098219990.494
0.743,-1.33,0.671,15.53,27.86,41.26,1785098220000.234
0.695,-1.352,0.672,25.18,8.51,24.02,1785098220013.517
0.661,-1.336,0.63,33.57,-11.81,5.28,1785098220019.405
0.641,-1.285,0.574,36.04,-33.51,-13.61,1785098220029.685
0.625,-1.234,0.508,33.48,-54.48,-30.88,1785098220040.5222
0.582,-1.224,0.398,29.91,-73.7,-46.11,1785098220053.707
0.493,-1.227,0.261,28.72,-92.1,-59.14,1785098220059.72
0.409,-1.196,0.068,33.08,-109.01,-70.38,1785098220070.226
0.336,-1.154,-0.159,44.13,-123.23,-78.83,1785098220083.461
0.278,-1.124,-0.458,62.07,-131.96,-83.83,1785098220089.408
0.206,-1.037,-0.798,84.26,-132.42,-87.59,1785098220100.3289
0.149,-0.899,-1.037,102.48,-127.2,-85.24,1785098220113.44
0.131,-0.786,-1.155,110.48,-117.31,-73.34,1785098220119.393
0.13,-0.699,-1.221,107.97,-102.18,-56.73,1785098220130.44
0.127,-0.63,-1.285,98.36,-79.53,-41.66,1785098220143.706
0.11,-0.582,-1.365,87.37,-50.42,-30.4,1785098220149.606
0.079,-0.515,-1.453,73.95,-18.8,-20.87,1785098220160.12
0.059,-0.454,-1.472,57.65,11.99,-7.26,1785098220173.386
0.048,-0.419,-1.416,42.05,39.09,6.84,1785098220179.29
0.033,-0.371,-1.304,27.44,62.11,18.43,1785098220189.613
0.045,-0.357,-1.167,12.67,81.7,29.36,1785098220200.2349
0.062,-0.377,-1.019,-5.89,97.05,36.44,1785098220213.551
0.082,-0.426,-0.859,-27.92,107.67,40.71,1785098220219.4739
0.127,-0.498,-0.689,-49.1,114.87,44.71,1785098220230.055
0.21,-0.63,-0.521,-64.27,118.41,50.02,1785098220243.373
0.324,-0.826,-0.354,-69.4,118.32,53.5,1785098220249.247
0.453,-1.06,-0.176,-63.51,115.3,51.91,1785098220260.036
0.572,-1.243,0.045,-49.01,111.55,48.62,1785098220273.275
0.693,-1.377,0.332,-26.49,105.56,48.68,1785098220279.224
0.799,-1.484,0.625,-0.24,96.44,50.6,1785098220289.8079
0.81,-1.51,0.855,24.6,84.2,52.22,1785098220301.328
0.732,-1.451,1.019,45.23,68.94,49.56,1785098220313.739
0.623,-1.338,1.112,57.31,50.29,35.49,1785098220319.783
0.554,-1.225,1.142,55.27,26.89,14.86,1785098220330.588
0.537,-1.109,1.132,43.64,-0.52,-6.71,1785098220340.79
0.543,-1.033,1.067,31.4,-30.4,-28.99,1785098220353.9587
0.517,-1.002,0.928,22.8,-59.69,-49.07,1785098220359.822
0.459,-0.98,0.708,20.08,-86.09,-62.23,1785098220370.33
0.445,-0.959,0.423,23.47,-108.77,-67.11,1785098220383.6182
0.393,-0.853,0.106,27.71,-127.63,-73.79,1785098220389.5413
0.354,-0.759,-0.262,26.43,-139.68,-74.28,1785098220400.3499
0.333,-0.662,-0.621,17.37,-141.97,-67.66,1785098220413.556
0.327,-0.579,-0.883,7.66,-140.48,-57.47,1785098220419.472
0.308,-0.573,-1.086,1.43,-136.78,-47.82,1785098220430.098
0.275,-0.669,-1.249,-1.8,-125.37,-39.74,1785098220443.3547
0.223,-0.761,-1.38,-0.15,-107.58,-35.25,1785098220449.2449
0.157,-0.79,-1.493,9.49,-77.97,-27.44,1785098220459.7449
0.129,-0.79,-1.638,21.7,-44.59,-15.14,1785098220470.366
0.113,-0.66,-1.718,25.06,-16.14,-10.8,1785098220483.436
0.134,-0.513,-1.657,13.31,14.92,-4.12,1785098220489.507
0.138,-0.451,-1.507,-8.88,44.89,9.37,1785098220499.807
0.103,-0.423,-1.306,-34.55,67.96,24.9,1785098220510.486
0.086,-0.423,-1.098,-58.69,85.91,38.39,1785098220523.896
0.102,-0.454,-0.898,-80.05,100.1,46.78,1785098220529.664
0.144,-0.548,-0.729,-98.24,109.99,49.78,1785098220540.7
0.203,-0.659,-0.583,-112.74,116.25,49.29,1785098220553.59
0.271,-0.769,-0.432,-121.37,118.78,50.05,1785098220559.5952
0.364,-0.9,-0.267,-119.63,117.37,54.63,1785098220570.555
0.46,-1.019,-0.087,-107.52,113.04,59.27,1785098220583.7861
0.558,-1.129,0.129,-87.65,106.39,62.2,1785098220589.8298
0.647,-1.269,0.378,-64.46,96.5,63.14,1785098220600.545
0.697,-1.413,0.625,-42.6,83.59,60.91,1785098220613.562
0.687,-1.479,0.826,-22.46,64.76,56.86,1785098220619.783
0.645,-1.481,0.933,0.64,42.12,48.59,1785098220630.2048
0.595,-1.413,0.936,22.92,17.98,32.81,1785098220643.3433
0.561,-1.304,0.886,36.26,-7.48,12.79,1785098220649.164
0.559,-1.204,0.829,36.96,-33.88,-6.78,1785098220659.7458
0.565,-1.151,0.78,29.57,-59.42,-24.51,1785098220670.2888
0.536,-1.139,0.695,24.38,-82.49,-39.64,1785098220683.5808
0.483,-1.125,0.548,25.85,-103.89,-50.11,1785098220689.504
0.445,-1.053,0.325,33.05,-123.54,-59.85,1785098220700.369
0.386,-0.935,0.052,40.89,-137.36,-70.83,1785098220713.4678
0.349,-0.854,-0.286,44.5,-144.93,-72.76,1785098220719.3867
0.311,-0.747,-0.64,40.41,-145.09,-68.42,1785098220730.191
0.297,-0.678,-0.908,31.16,-139.59,-60.67,1785098220743.457
0.33,-0.661,-1.068,19.5,-126.68,-52.8,1785098220749.404
0.324,-0.681,-1.179,8.91,-106.94,-45.53,1785098220760.0698
0.255,-0.701,-1.324,1.86,-83.71,-38.51,1785098220770.59
0.193,-0.705,-1.499,-1.07,-56.49,-28.96,1785098220783.832
0.168,-0.654,-1.641,-0.7,-24.57,-18.77,1785098220789.726
0.131,-0.536,-1.698,-3.23,10.19,-9.4,1785098220799.91
0.09,-0.443,-1.649,-11.23,40.1,3.6,1785098220810.539
0.052,-0.42,-1.512,-20.36,61.22,18.71,1785098220823.9282
0.018,-0.403,-1.339,-29.21,78.62,31.28,1785098220829.695
0.023,-0.373,-1.168,-39.22,92.5,41.99,1785098220840.4321
0.07,-0.391,-1.007,-51.3,101.6,51.61,1785098220853.433
0.116,-0.46,-0.85,-64.94,107.7,57.83,1785098220859.5122
0.169,-0.558,-0.716,-77.91,110.97,60.73,1785098220870.176
0.248,-0.667,-0.576,-87.56,111.76,62.69,1785098220883.41
0.341,-0.779,-0.424,-90.33,110.17,65.52,1785098220889.426
0.436,-0.907,-0.267,-84.23,107.03,69.03,1785098220900.47
0.524,-1.028,-0.083,-70.86,102.51,72.08,1785098220913.394
0.618,-1.132,0.14,-53.35,95.22,73.58,1785098220919.341
0.717,-1.243,0.392,-35.43,84.41,72.82,1785098220929.998
0.777,-1.367,0.611,-21.15,70.16,66.93,1785098220941.21
0.755,-1.465,0.772,-11.2,53.16,55.02,1785098220953.849
0.665,-1.551,0.836,-1.04,32.44,38.58,1785098220959.75
0.583,-1.551,0.833,10.1,8.61,17.49,1785098220970.129
0.564,-1.471,0.795,20.66,-18.16,-4.55,1785098220983.33
0.585,-1.377,0.745,25.97,-46.39,-23.9,1785098220989.212
0.572,-1.306,0.673,28.72,-72.45,-41.57,1785098220999.745
0.5,-1.228,0.519,32.5,-94.42,-57.44,1785098221010.408
0.415,-1.125,0.295,37.66,-113.38,-69.61,1785098221023.789
0.336,-1.022,0.017,42.76,-129.43,-77.61,1785098221029.542
0.283,-0.913,-0.35,43.46,-139.07,-79.04,1785098221040.494
0.238,-0.7,-0.721,35.58,-139.23,-82.19,1785098221053.588
0.221,-0.547,-0.967,19.78,-133.24,-77.7,1785098221059.561
0.271,-0.538,-1.043,1.5,-118.2,-64.03,1785098221070.2021
0.286,-0.585,-1.088,-8.76,-98.12,-54.11,1785098221083.424
0.229,-0.585,-1.221,-8.7,-72.63,-45.5,1785098221089.3508
0.14,-0.535,-1.403,-4.06,-40.96,-33.72,1785098221099.637
0.094,-0.464,-1.562,-1.16,-7.14,-20.2,1785098221110.088
0.094,-0.464,-1.562,-3.23,22.77,-7.6,1785098221120.575
0.05,-0.388,-1.634,-11.14,47.0,8.45,1785098221133.8042
0.039,-0.336,-1.576,-19.5,67.69,22.64,1785098221139.7349
0.019,-0.309,-1.448,-25.54,83.8,34.42,1785098221150.1938
-0.015,-0.3,-1.279,-31.4,95.58,45.59,1785098221163.468
-0.005,-0.297,-1.1,-31.4,95.58,45.59,1785098221169.416
0.062,-0.327,-0.944,-39.34,103.27,54.29,1785098221180.0288
0.16,-0.421,-0.815,-49.53,107.39,60.06,1785098221193.571
0.24,-0.536,-0.699,-60.18,109.74,63.42,1785098221199.24
0.316,-0.641,-0.574,-67.9,110.72,66.81,1785098221209.976
0.397,-0.747,-0.433,-69.95,109.96,71.78,1785098221223.356
0.481,-0.858,-0.266,-66.1,106.48,76.6,1785098221229.217
0.564,-0.994,-0.076,-55.64,100.22,79.56,1785098221239.975
0.641,-1.143,0.165,-42.05,91.25,79.81,1785098221250.606
0.676,-1.275,0.389,-27.99,78.59,74.07,1785098221263.8381
0.658,-1.402,0.552,-15.05,63.81,64.21,1785098221269.732
0.615,-1.51,0.694,-4.46,45.35,51.09,1785098221280.181
0.558,-1.55,0.789,5.34,21.52,34.24,1785098221293.423
0.516,-1.511,0.809,15.84,-5.92,16.79,1785098221299.354
0.513,-1.444,0.751,25.24,-35.04,-1.95,1785098221309.64
0.513,-1.37,0.671,28.23,-63.57,-22.13,1785098221320.301
0.485,-1.315,0.545,28.02,-89.42,-40.19,1785098221333.539
0.425,-1.255,0.339,31.22,-111.15,-55.57,1785098221339.4712
0.365,-1.167,0.1,39.09,-129.28,-67.05,1785098221350.1858
0.32,-1.047,-0.207,47.91,-142.61,-73.98,1785098221363.387
0.277,-0.881,-0.558,51.82,-147.83,-75.44,1785098221369.392
0.258,-0.724,-0.833,46.91,-145.18,-67.96,1785098221380.305
0.31,-0.578,-1.0,31.86,-136.33,-64.76,1785098221393.3608
0.237,-0.445,-1.101,9.25,-121.22,-70.38,1785098221399.301
0.237,-0.512,-1.228,-8.36,-94.61,-52.55,1785098221409.8281
0.209,-0.541,-1.392,-15.14,-62.56,-35.34,1785098221420.542
0.153,-0.446,-1.551,-12.48,-30.27,-22.95,1785098221433.6882
0.135,-0.335,-1.647,-10.22,2.72,-9.49,1785098221439.585
0.133,-0.252,-1.642,-15.72,32.59,2.32,1785098221449.867
0.127,-0.23,-1.553,-25.79,57.65,13.98,1785098221460.729
0.089,-0.254,-1.413,-34.61,79.62,26.0,1785098221473.8892
0.034,-0.267,-1.26,-41.96,97.48,38.21,1785098221479.2969
0.014,-0.276,-1.1,-50.66,108.86,51.06,1785098221490.519
0.07,-0.294,-0.921,-62.62,114.41,61.16,1785098221503.596
0.178,-0.382,-0.752,-74.65,116.98,65.92,1785098221509.7
0.288,-0.541,-0.585,-84.05,118.02,65.55,1785098221520.163
0.37,-0.699,-0.413,-90.43,116.73,64.85,1785098221533.8362
0.44,-0.837,-0.224,-92.14,111.7,67.84,1785098221539.5242
0.532,-1.003,-0.041,-87.92,103.46,72.18,1785098221550.3218
0.611,-1.197,0.094,-77.7,92.87,71.23,1785098221563.658
0.642,-1.392,0.236,-63.42,79.81,64.49,1785098221569.603
0.644,-1.547,0.362,-45.47,64.24,55.12,1785098221580.0222
0.622,-1.635,0.455,-24.02,47.73,43.21,1785098221590.746
0.599,-1.674,0.517,-1.59,28.23,26.43,1785098221603.8918
0.582,-1.639,0.562,16.57,5.13,3.75,1785098221609.843
0.564,-1.558,0.567,31.13,-18.71,-18.28,1785098221620.255
0.523,-1.455,0.508,45.23,-42.36,-36.68,1785098221633.363
0.46,-1.331,0.398,56.95,-66.29,-52.83,1785098221639.2178
0.401,-1.207,0.231,64.46,-89.39,-66.96,1785098221649.7642
0.342,-1.087,-0.005,69.19,-109.2,-77.12,1785098221660.6663
0.305,-0.946,-0.308,70.44,-122.93,-84.41,1785098221673.907
0.236,-0.765,-0.654,64.0,-129.95,-91.43,1785098221679.759
0.201,-0.613,-0.922,49.32,-128.94,-86.95,1785098221690.69
0.223,-0.512,-1.071,31.04,-121.74,-75.11,1785098221703.723
0.223,-0.428,-1.143,13.98,-110.32,-66.1,1785098221709.7769
0.219,-0.379,-1.226,0.21,-91.77,-55.57,1785098221720.2603
0.206,-0.369,-1.369,-9.37,-64.06,-42.79,1785098221733.585
0.153,-0.325,-1.518,-16.36,-31.98,-30.0,1785098221739.434
0.116,-0.239,-1.594,-21.0,-0.76,-14.28,1785098221749.697
0.125,-0.195,-1.584,-22.64,27.25,3.36,1785098221760.3772
0.129,-0.188,-1.486,-23.22,51.27,19.93,1785098221773.746
0.112,-0.196,-1.332,-20.75,72.05,34.88,1785098221779.6328
0.097,-0.231,-1.174,-14.77,87.89,48.31,1785098221790.2332
0.109,-0.26,-1.021,-10.32,98.09,59.02,1785098221803.395
0.165,-0.312,-0.86,-9.03,104.95,68.33,1785098221809.433
0.256,-0.428,-0.71,-9.83,109.35,74.71,1785098221819.748
0.35,-0.554,-0.561,-12.57,111.51,76.75,1785098221830.636
0.439,-0.655,-0.391,-16.21,111.67,77.79,1785098221843.7551
0.541,-0.769,-0.198,-19.1,109.59,79.93,1785098221849.718
0.638,-0.933,-0.008,-20.42,103.95,80.2,1785098221860.8042
0.692,-1.127,0.188,-20.2,94.58,77.24,1785098221873.879
0.693,-1.333,0.352,-17.46,81.94,69.43,1785098221879.758
0.657,-1.509,0.452,-13.98,66.68,55.88,1785098221890.2632
0.604,-1.639,0.565,-9.86,47.91,38.21,1785098221903.3643
0.569,-1.703,0.657,-1.71,23.62,17.7,1785098221909.399
0.548,-1.684,0.687,13.06,-3.42,-3.08,1785098221919.521
0.526,-1.6,0.638,32.11,-30.88,-23.1,1785098221930.239
0.479,-1.492,0.527,47.91,-56.95,-42.6,1785098221943.44
0.412,-1.378,0.361,56.98,-80.69,-59.33,1785098221949.3591
0.341,-1.249,0.139,61.83,-101.11,-71.32,1785098221959.9558
0.289,-1.097,-0.128,65.43,-116.86,-78.89,1785098221973.286
0.254,-0.927,-0.45,66.65,-126.68,-81.18,1785098221979.198
0.238,-0.73,-0.787,60.52,-128.51,-77.36,1785098221989.988
0.246,-0.512,-1.007,43.89,-124.09,-73.55,1785098222000.671
0.217,-0.36,-1.087,19.53,-117.1,-68.73,1785098222013.8948
0.241,-0.384,-1.121,-1.89,-100.22,-53.56,1785098222019.843
0.232,-0.454,-1.215,-14.53,-77.21,-42.82,1785098222030.446
0.16,-0.438,-1.38,-19.65,-52.03,-36.29,1785098222043.699
0.111,-0.358,-1.501,-20.48,-22.46,-23.26,1785098222049.63
0.09,-0.292,-1.552,-19.96,6.16,-7.11,1785098222059.993
0.083,-0.245,-1.517,-20.94,29.91,8.3,1785098222070.518
0.075,-0.235,-1.397,-20.48,50.94,23.68,1785098222083.753
0.069,-0.282,-1.266,-15.96,69.28,37.45,1785098222089.7
0.051,-0.32,-1.145,-11.96,84.17,47.76,1785098222100.38
0.053,-0.351,-1.023,-11.47,94.91,56.37,1785098222113.4983
0.097,-0.394,-0.869,-16.17,101.99,64.73,1785098222122.3271
0.178,-0.49,-0.675,-21.64,105.56,72.24,1785098222130.0217
0.27,-0.625,-0.489,-24.75,105.84,76.51,1785098222143.425
0.374,-0.721,-0.325,-26.76,103.37,79.56,1785098222149.3298
0.493,-0.817,-0.135,-27.38,97.99,83.22,1785098222160.216
0.62,-0.96,0.105,-26.0,89.91,84.23,1785098222170.655
0.728,-1.142,0.358,-24.02,78.55,80.39,1785098222183.905
0.81,-1.336,0.567,-22.61,63.97,73.21,1785098222189.843
0.86,-1.491,0.721,-18.89,47.27,63.54,1785098222200.3223
0.869,-1.61,0.842,-6.32,29.15,49.38,1785098222213.5522
0.816,-1.676,0.874,15.41,9.22,28.41,1785098222219.489
0.739,-1.653,0.839,37.45,-12.45,4.55,1785098222229.829
0.658,-1.564,0.763,53.47,-35.77,-18.52,1785098222240.4402
0.585,-1.457,0.652,62.93,-58.84,-39.09,1785098222253.657
0.502,-1.352,0.517,66.59,-81.36,-57.28,1785098222259.6428
0.389,-1.253,0.358,67.11,-102.69,-72.05,1785098222270.2651
0.272,-1.149,0.142,67.87,-122.23,-82.86,1785098222283.4812
0.177,-1.054,-0.135,68.61,-138.28,-87.62,1785098222289.4111
0.135,-0.922,-0.51,65.22,-147.68,-89.11,1785098222300.3909
0.024,-0.696,-0.908,51.39,-151.37,-93.39,1785098222313.4248
0.01,-0.58,-1.171,28.93,-144.38,-79.78,1785098222319.373
0.067,-0.572,-1.274,5.07,-130.8,-62.17,1785098222330.0369
0.076,-0.57,-1.306,-10.86,-114.63,-52.83,1785098222343.3071
0.046,-0.534,-1.401,-14.65,-86.92,-44.43,1785098222349.215
0.007,-0.4,-1.545,-15.44,-55.57,-34.15,1785098222359.8452
-0.003,-0.261,-1.643,-16.85,-26.92,-21.12,1785098222370.513
0.011,-0.215,-1.643,-15.29,1.07,-7.45,1785098222383.7349
0.029,-0.254,-1.562,-8.3,27.83,5.58,1785098222389.577
0.043,-0.29,-1.412,3.11,48.37,17.4,1785098222399.789
0.043,-0.29,-1.412,18.65,62.96,27.71,1785098222410.467
0.074,-0.332,-1.23,36.74,76.45,36.68,1785098222423.916
0.117,-0.394,-1.05,56.25,86.83,45.44,1785098222429.599
0.186,-0.501,-0.866,78.52,93.2,51.36,1785098222440.1238
0.274,-0.65,-0.678,105.11,97.08,52.95,1785098222453.367
0.368,-0.817,-0.46,105.11,97.08,52.95,1785098222459.394
0.474,-1.033,-0.256,136.66,98.61,50.84,1785098222470.088
0.575,-1.127,-0.072,161.32,97.84,47.88,1785098222483.35
0.684,-1.042,0.118,168.16,93.54,52.13,1785098222489.312
0.772,-0.859,0.363,145.21,83.77,61.1,1785098222500.062
0.834,-0.726,0.57,92.68,71.14,65.98,1785098222513.3162
0.846,-0.764,0.723,26.18,59.42,63.11,1785098222519.212
0.733,-0.932,0.86,-33.72,42.63,46.66,1785098222529.803
0.6,-1.176,0.954,-69.61,18.37,23.1,1785098222540.78
0.554,-1.348,0.968,-78.86,-9.8,-2.26,1785098222553.626
0.546,-1.425,0.872,-72.05,-38.7,-26.73,1785098222559.541
0.519,-1.461,0.709,-59.24,-66.01,-45.81,1785098222569.9219
0.462,-1.457,0.503,-44.31,-91.37,-60.7,1785098222580.7039
0.392,-1.365,0.225,-30.98,-112.09,-73.89,1785098222593.982
0.344,-1.213,-0.093,-23.32,-126.19,-82.37,1785098222599.779
0.324,-1.044,-0.399,-23.56,-134.71,-85.7,1785098222610.5542
0.316,-0.898,-0.633,-29.94,-136.85,-85.85,1785098222624.042
0.305,-0.793,-0.776,-38.36,-132.36,-83.41,1785098222629.7478
0.316,-0.747,-0.852,-43.95,-121.62,-76.42,1785098222640.6558
0.261,-0.695,-0.945,-43.58,-106.42,-74.98,1785098222653.7302
0.192,-0.659,-1.084,-39.49,-82.83,-66.77,1785098222659.7542
0.16,-0.601,-1.27,-35.74,-51.64,-51.61,1785098222670.2888
0.13,-0.49,-1.431,-35.74,-19.96,-36.16,1785098222683.5752
0.117,-0.395,-1.474,-39.77,11.6,-21.55,1785098222689.445
0.113,-0.382,-1.421,-42.88,41.2,-10.96,1785098222700.196
0.089,-0.421,-1.3,-41.99,66.23,-3.3,1785098222710.57
0.053,-0.478,-1.151,-35.68,86.15,5.16,1785098222723.9038
0.021,-0.51,-1.012,-26.28,101.47,15.35,1785098222729.7769
0.012,-0.505,-0.887,-17.91,111.79,26.15,1785098222740.663
0.027,-0.476,-0.766,-13.43,117.04,36.23,1785098222753.6309
0.077,-0.469,-0.617,-13.79,117.71,44.53,1785098222759.614
0.155,-0.527,-0.464,-17.12,114.72,49.96,1785098222770.346
0.247,-0.571,-0.318,-25.73,109.96,53.19,1785098222783.5781
0.36,-0.599,-0.152,-38.18,103.46,57.47,1785098222789.5251
0.482,-0.659,0.015,-49.93,94.91,61.13,1785098222800.0388
0.589,-0.775,0.216,-55.48,84.75,62.47,1785098222813.314
0.678,-0.966,0.456,-49.68,71.29,60.61,1785098222819.162
0.755,-1.192,0.634,-33.17,53.59,53.16,1785098222829.968
0.773,-1.285,0.682,-14.5,35.58,42.57,1785098222840.758
0.737,-1.329,0.683,0.34,17.58,33.42,1785098222853.755
0.678,-1.382,0.68,4.82,-3.6,21.27,1785098222859.785
0.638,-1.446,0.686,3.48,-27.07,6.9,1785098222869.8171
0.608,-1.477,0.669,7.11,-51.24,-7.2,1785098222880.283
0.565,-1.44,0.611,18.86,-75.23,-19.84,1785098222893.6218
0.504,-1.35,0.497,35.37,-97.9,-30.95,1785098222899.4507
0.419,-1.255,0.313,52.43,-118.29,-41.63,1785098222910.123
0.319,-1.127,0.059,65.16,-134.86,-49.99,1785098222923.486
0.246,-0.962,-0.266,68.85,-145.97,-53.16,1785098222929.2832
0.209,-0.817,-0.567,61.62,-150.46,-51.79,1785098222940.247
0.191,-0.727,-0.817,45.05,-148.41,-49.44,1785098222953.2659
0.194,-0.677,-0.991,21.42,-139.53,-48.22,1785098222959.313
0.195,-0.667,-1.109,-2.84,-124.39,-47.09,1785098222969.913
0.217,-0.676,-1.262,-24.23,-103.85,-40.04,1785098222980.834
0.185,-0.548,-1.453,-41.69,-75.38,-34.97,1785098222994.07
0.183,-0.425,-1.58,-52.03,-39.89,-19.84,1785098222999.858
0.206,-0.38,-1.623,-56.34,-3.17,-4.82,1785098223010.226
0.175,-0.356,-1.57,-58.5,26.98,3.91,1785098223023.647
0.135,-0.368,-1.427,-55.57,52.19,14.31,1785098223029.325
0.122,-0.418,-1.257,-45.08,74.34,27.71,1785098223039.8872
0.111,-0.494,-1.124,-28.29,90.79,37.11,1785098223050.484
0.106,-0.562,-1.007,-9.61,102.91,43.64,1785098223063.745
0.12,-0.591,-0.904,7.87,111.06,50.9,1785098223069.637
0.162,-0.591,-0.804,20.11,115.57,59.85,1785098223080.2969
0.252,-0.619,-0.655,26.46,116.98,68.0,1785098223093.597
0.37,-0.712,-0.469,30.06,115.54,70.86,1785098223099.456
0.484,-0.818,-0.249,32.07,112.22,70.38,1785098223110.2432
0.597,-0.924,0.058,32.47,105.5,69.98,1785098223123.5571
0.7,-1.019,0.371,30.92,92.29,66.9,1785098223129.405
0.775,-1.068,0.571,27.25,76.36,62.04,1785098223140.397
0.801,-1.096,0.658,22.64,59.39,55.73,1785098223150.6172
0.773,-1.139,0.671,14.31,39.4,43.4,1785098223163.935
0.725,-1.265,0.665,2.44,17.37,25.42,1785098223169.769
0.668,-1.41,0.692,-8.09,-6.2,3.81,1785098223179.96
0.648,-1.489,0.72,-9.06,-31.43,-14.56,1785098223190.5762
0.654,-1.496,0.681,3.48,-55.64,-27.8,1785098223203.75
0.602,-1.459,0.573,25.94,-77.55,-40.04,1785098223209.7522
0.5,-1.377,0.403,51.36,-97.75,-51.85,1785098223220.3628
0.41,-1.265,0.157,74.22,-114.87,-60.43,1785098223233.409
0.331,-1.129,-0.14,89.72,-128.12,-64.88,1785098223239.3867
0.264,-0.97,-0.495,94.82,-135.75,-65.46,1785098223250.117
0.221,-0.809,-0.777,88.87,-136.69,-61.68,1785098223263.389
0.199,-0.7,-0.941,78.16,-133.88,-55.88,1785098223269.2952
0.19,-0.674,-1.011,71.75,-126.62,-50.14,1785098223280.133
0.221,-0.674,-1.021,67.11,-113.96,-46.72,1785098223293.345
0.188,-0.626,-1.081,59.85,-97.29,-52.28,1785098223299.25
0.135,-0.625,-1.161,44.98,-71.29,-47.21,1785098223309.8809
0.123,-0.632,-1.277,20.02,-37.35,-35.13,1785098223320.5107
0.091,-0.587,-1.389,-14.01,-3.23,-26.67,1785098223333.7422
0.071,-0.551,-1.394,-48.59,28.72,-16.42,1785098223339.7
0.076,-0.522,-1.319,-71.54,58.08,-5.31,1785098223350.025
0.076,-0.481,-1.193,-79.26,81.91,4.46,1785098223360.5703
0.075,-0.468,-1.048,-74.53,99.52,15.05,1785098223373.8352
0.093,-0.493,-0.924,-64.12,112.8,27.04,1785098223379.8
0.132,-0.533,-0.812,-54.35,122.26,37.48,1785098223390.532
0.182,-0.575,-0.693,-47.52,128.27,44.53,1785098223403.776
0.239,-0.61,-0.541,-44.8,131.17,50.14,1785098223409.7422
0.327,-0.676,-0.329,-42.85,130.1,55.67,1785098223420.671
0.427,-0.798,-0.104,-36.01,125.52,58.26,1785098223433.682
0.527,-0.894,0.13,-24.38,118.5,58.93,1785098223439.6501
0.662,-0.974,0.357,-9.52,108.04,60.18,1785098223450.332
0.808,-1.026,0.559,3.11,94.85,60.09,1785098223463.5972
0.918,-1.02,0.749,8.12,80.08,58.38,1785098223469.4688
0.941,-1.056,0.878,7.84,62.29,52.92,1785098223479.5452
0.857,-1.181,0.893,1.95,42.39,38.7,1785098223490.372
0.725,-1.319,0.881,-9.74,19.35,18.25,1785098223503.5852
0.647,-1.405,0.864,-19.04,-6.87,-2.59,1785098223509.697
0.62,-1.443,0.804,-19.1,-34.24,-19.75,1785098223519.572
0.596,-1.437,0.697,-9.83,-61.22,-32.32,1785098223530.072
0.541,-1.416,0.542,7.29,-86.64,-44.86,1785098223543.586
0.447,-1.376,0.35,27.86,-109.5,-57.83,1785098223549.4941
0.339,-1.27,0.131,47.76,-128.88,-68.15,1785098223560.1191
0.248,-1.141,-0.184,65.25,-142.7,-73.52,1785098223573.427
0.174,-0.981,-0.575,72.15,-148.08,-73.52,1785098223579.331
0.139,-0.803,-0.861,62.2,-146.15,-67.51,1785098223590.231
0.161,-0.761,-1.049,42.6,-138.95,-59.97,1785098223603.367
0.17,-0.783,-1.123,15.59,-124.42,-57.37,1785098223608.999
0.141,-0.763,-1.171,-11.29,-104.16,-56.55,1785098223620.811
0.114,-0.662,-1.292,-31.5,-76.85,-50.48,1785098223633.363
0.096,-0.509,-1.425,-46.24,-43.21,-38.0,1785098223639.289
0.101,-0.397,-1.502,-55.91,-10.44,-22.98,1785098223649.791
