ax,ay,az,gx,gy,gz,timestamp_ms
0.521,-1.251,0.573,19.07,-82.67,-81.39,1785098372433.571
0.477,-1.171,0.429,33.91,-105.01,-91.22,1785098372475.007
0.444,-1.08,0.269,50.63,-124.91,-96.5,1785098372475.344
0.407,-0.986,0.058,65.55,-141.12,-99.25,1785098372475.6301
0.359,-0.893,-0.189,76.75,-152.62,-100.01,1785098372475.915
0.314,-0.804,-0.505,82.4,-158.64,-98.42,1785098372476.198
0.278,-0.694,-0.835,79.56,-157.93,-94.15,1785098372476.486
0.243,-0.581,-1.071,70.28,-153.11,-85.06,1785098372476.7559
0.285,-0.562,-1.138,62.35,-145.63,-65.95,1785098372477.028
0.308,-0.546,-1.202,59.97,-135.62,-67.54,1785098372477.2961
0.189,-0.496,-1.356,56.22,-121.37,-68.42,1785098372477.57
0.215,-0.523,-1.496,49.01,-92.23,-43.95,1785098372477.8271
0.21,-0.512,-1.662,41.32,-60.67,-29.11,1785098372478.0933
0.158,-0.411,-1.75,30.03,-34.3,-21.97,1785098372478.364
0.15,-0.323,-1.719,17.3,-7.69,-12.54,1785098372478.6282
0.163,-0.279,-1.636,4.36,18.89,-2.72,1785098372478.888
0.173,-0.241,-1.51,-11.11,40.68,9.58,1785098372479.1511
0.164,-0.212,-1.371,-26.98,59.51,21.73,1785098372479.414
0.151,-0.215,-1.238,-42.57,76.11,32.93,1785098372479.671
0.147,-0.262,-1.107,-58.75,89.21,41.57,1785098372479.9429
0.155,-0.333,-0.976,-74.31,98.91,48.13,1785098372480.215
0.18,-0.41,-0.839,-86.89,105.99,56.22,1785098372480.485
0.229,-0.501,-0.695,-93.63,109.44,66.81,1785098372480.75
0.32,-0.609,-0.522,-92.56,109.84,77.61,1785098372481.022
0.439,-0.748,-0.371,-81.91,109.44,84.6,1785098372481.282
0.56,-0.879,-0.235,-67.66,109.41,88.87,1785098372481.5303
0.666,-1.0,-0.061,-54.9,108.4,93.48,1785098372481.801
0.748,-1.138,0.17,-44.47,106.75,98.61,1785098372482.052
0.809,-1.309,0.445,-35.62,101.57,99.8,1785098372482.303
0.838,-1.431,0.664,-27.44,93.36,93.66,1785098372482.549
0.811,-1.486,0.832,-16.24,82.98,83.96,1785098372482.815
0.703,-1.499,0.889,0.55,68.54,68.33,1785098372483.0598
0.561,-1.44,0.889,18.4,50.48,45.32,1785098372483.3071
0.53,-1.34,0.89,29.82,26.4,18.83,1785098372483.5488
0.611,-1.272,0.898,29.54,-1.31,-8.42,1785098372483.799
0.66,-1.258,0.879,20.14,-28.57,-32.84,1785098372484.069
0.628,-1.276,0.787,13.31,-52.64,-51.85,1785098372484.3098
0.569,-1.276,0.649,17.76,-75.01,-66.59,1785098372484.564
0.514,-1.222,0.483,32.29,-96.77,-77.82,1785098372484.821
0.469,-1.124,0.302,50.2,-117.4,-84.38,1785098372485.076
0.433,-1.014,0.089,66.04,-134.89,-87.53,1785098372485.3252
0.383,-0.905,-0.169,78.31,-148.44,-88.9,1785098372485.577
0.331,-0.797,-0.481,86.18,-157.29,-87.92,1785098372485.827
0.285,-0.656,-0.779,86.21,-161.29,-83.56,1785098372486.072
0.256,-0.57,-1.031,81.27,-162.79,-74.59,1785098372486.312
0.242,-0.586,-1.195,73.76,-159.31,-61.28,1785098372486.5542
0.305,-0.677,-1.243,65.68,-149.45,-47.33,1785098372486.795
0.223,-0.625,-1.372,56.31,-137.0,-57.19,1785098372487.0532
0.185,-0.612,-1.495,44.77,-113.9,-50.78,1785098372487.284
0.204,-0.63,-1.615,33.39,-78.74,-39.03,1785098372487.5068
0.193,-0.543,-1.68,17.3,-49.81,-31.43,1785098372487.73
0.194,-0.416,-1.635,0.52,-26.49,-18.19,1785098372487.946
0.21,-0.331,-1.553,-10.01,1.46,-4.33,1785098372488.209
0.228,-0.285,-1.479,-18.71,28.69,8.55,1785098372488.461
0.227,-0.237,-1.399,-30.92,50.45,19.44,1785098372488.6812
0.212,-0.216,-1.301,-46.51,70.35,28.9,1785098372488.9028
0.207,-0.27,-1.201,-62.78,88.26,39.34,1785098372489.138
0.194,-0.352,-1.092,-77.58,102.3,47.4,1785098372489.4478
0.168,-0.441,-0.96,-87.95,112.46,53.74,1785098372489.695
0.16,-0.538,-0.814,-91.1,119.42,60.95,1785098372489.9258
0.191,-0.626,-0.636,-86.86,123.29,68.64,1785098372490.166
0.269,-0.741,-0.459,-73.7,124.33,73.95,1785098372490.403
0.368,-0.841,-0.313,-58.44,123.69,76.69,1785098372490.623
0.488,-0.9,-0.13,-47.33,121.83,81.64,1785098372490.853
0.618,-1.014,0.054,-38.73,118.23,87.77,1785098372491.082
0.726,-1.181,0.29,-34.15,113.68,90.43,1785098372491.315
0.778,-1.343,0.52,-31.59,105.66,87.19,1785098372491.54
0.787,-1.439,0.683,-26.89,95.19,79.96,1785098372491.771
0.717,-1.495,0.773,-14.65,80.87,68.3,1785098372492.001
0.606,-1.485,0.812,4.0,64.39,50.11,1785098372492.219
0.555,-1.408,0.841,21.0,42.33,26.55,1785098372492.45
0.601,-1.317,0.873,27.71,14.8,0.4,1785098372492.676
0.652,-1.271,0.876,23.38,-12.82,-24.32,1785098372492.9019
0.643,-1.29,0.8,16.05,-37.84,-44.31,1785098372493.119
0.598,-1.3,0.681,15.08,-60.24,-59.79,1785098372493.333
0.552,-1.275,0.537,24.26,-81.51,-71.93,1785098372493.565
0.516,-1.199,0.387,39.0,-100.62,-79.87,1785098372493.7998
0.474,-1.096,0.225,55.39,-117.16,-83.38,1785098372494.0369
0.411,-0.983,0.025,71.08,-130.68,-85.12,1785098372494.2983
0.347,-0.871,-0.213,84.02,-140.81,-85.02,1785098372494.535
0.3,-0.761,-0.489,91.01,-146.12,-82.22,1785098372494.7441
0.26,-0.672,-0.783,91.89,-145.91,-76.42,1785098372494.9592
0.231,-0.616,-1.049,86.52,-140.08,-66.29,1785098372495.1758
0.289,-0.618,-1.219,73.95,-128.06,-50.63,1785098372495.383
0.276,-0.529,-1.308,53.29,-113.68,-58.5,1785098372495.6003
0.215,-0.47,-1.36,27.16,-98.12,-55.73,1785098372495.8123
0.246,-0.464,-1.446,4.64,-68.18,-37.6,1785098372496.022
0.262,-0.404,-1.59,-12.45,-39.43,-24.38,1785098372496.225
0.229,-0.263,-1.667,-26.28,-18.25,-14.07,1785098372496.434
0.231,-0.175,-1.668,-35.62,4.15,-2.14,1785098372496.642
0.241,-0.153,-1.618,-45.29,28.6,7.78,1785098372496.845
0.241,-0.144,-1.501,-55.82,49.53,18.28,1785098372497.057
0.248,-0.196,-1.364,-63.08,66.29,31.07,1785098372497.2732
0.246,-0.277,-1.209,-67.45,78.8,43.37,1785098372497.487
0.237,-0.349,-1.057,-67.29,88.47,53.44,1785098372497.692
0.241,-0.403,-0.912,-64.52,97.29,62.07,1785098372497.908
0.266,-0.471,-0.739,-60.24,103.27,70.19,1785098372498.124
0.316,-0.609,-0.564,-51.67,104.86,78.71,1785098372498.333
0.388,-0.752,-0.428,-39.74,103.85,84.84,1785098372498.5442
0.476,-0.823,-0.302,-29.42,101.72,88.87,1785098372498.76
0.577,-0.873,-0.166,-24.87,98.54,93.54,1785098372498.967
0.67,-0.973,0.049,-26.67,94.3,97.48,1785098372499.2012
0.742,-1.163,0.318,-31.34,86.86,97.54,1785098372499.428
0.801,-1.39,0.526,-33.78,77.3,94.12,1785098372499.639
0.799,-1.535,0.695,-28.05,65.83,85.51,1785098372499.845
0.714,-1.63,0.778,-8.7,50.11,67.78,1785098372500.0698
0.592,-1.635,0.813,14.07,31.5,42.45,1785098372500.284
0.554,-1.551,0.845,30.12,7.87,16.54,1785098372500.4978
0.611,-1.46,0.851,36.77,-19.01,-7.26,1785098372500.703
0.651,-1.385,0.827,36.56,-45.14,-29.82,1785098372500.916
0.624,-1.328,0.735,36.35,-68.21,-49.75,1785098372501.121
0.564,-1.27,0.585,40.25,-88.23,-65.83,1785098372501.322
0.508,-1.183,0.433,48.43,-107.0,-77.06,1785098372501.5217
0.46,-1.091,0.28,59.82,-124.18,-83.38,1785098372501.7268
0.415,-1.001,0.092,72.36,-138.0,-86.89,1785098372501.931
0.354,-0.902,-0.14,84.69,-147.92,-88.87,1785098372502.129
0.297,-0.77,-0.439,92.59,-153.57,-87.59,1785098372502.353
0.236,-0.634,-0.779,91.89,-153.48,-81.33,1785098372502.5598
0.261,-0.578,-1.061,82.46,-147.95,-66.38,1785098372502.765
0.28,-0.509,-1.209,64.15,-137.27,-68.94,1785098372502.959
0.246,-0.56,-1.26,41.17,-124.06,-68.15,1785098372503.1638
0.283,-0.696,-1.332,22.22,-97.99,-52.16,1785098372503.375
0.265,-0.671,-1.479,11.57,-66.07,-41.02,1785098372503.573
0.22,-0.527,-1.611,8.61,-35.86,-32.44,1785098372503.79
0.22,-0.527,-1.611,9.49,-5.22,-22.8,1785098372503.988
0.192,-0.409,-1.704,5.83,24.14,-10.68,1785098372504.1821
0.176,-0.345,-1.709,-3.97,48.13,2.87,1785098372504.3718
0.169,-0.295,-1.617,-14.62,67.69,15.47,1785098372504.571
0.156,-0.262,-1.48,-14.62,67.69,15.47,1785098372504.771
0.137,-0.248,-1.319,-25.36,84.75,26.34,1785098372504.965
0.133,-0.275,-1.167,-36.56,99.34,36.1,1785098372505.162
0.131,-0.321,-1.031,-49.13,109.38,43.06,1785098372505.363
0.139,-0.379,-0.897,-61.04,114.84,50.81,1785098372505.566
0.182,-0.453,-0.754,-69.52,118.08,60.79,1785098372505.7979
0.243,-0.538,-0.585,-72.15,119.75,69.25,1785098372505.999
0.313,-0.653,-0.437,-68.06,118.99,75.23,1785098372506.219
0.387,-0.76,-0.295,-61.74,116.21,80.6,1785098372506.418
0.478,-0.844,-0.131,-55.51,110.66,87.01,1785098372506.6199
0.592,-0.941,0.046,-49.1,103.7,92.81,1785098372506.8328
0.716,-1.093,0.275,-42.97,96.65,95.83,1785098372507.0322
0.819,-1.294,0.492,-37.48,87.59,93.36,1785098372507.2178
0.86,-1.464,0.645,-32.59,77.06,85.24,1785098372507.411
0.779,-1.602,0.769,-22.34,64.85,72.51,1785098372507.607
0.627,-1.65,0.828,-5.52,49.07,55.12,1785098372507.791
0.533,-1.583,0.869,12.85,27.44,34.52,1785098372507.984
0.576,-1.471,0.9,26.7,0.09,12.3,1785098372508.175
0.652,-1.382,0.899,32.62,-28.2,-12.18,1785098372508.3699
0.645,-1.328,0.832,32.69,-53.65,-36.62,1785098372508.559
0.585,-1.3,0.705,32.41,-75.41,-56.28,1785098372508.7568
0.52,-1.264,0.553,36.59,-95.43,-71.08,1785098372508.9531
0.463,-1.194,0.4,46.02,-114.35,-80.84,1785098372509.143
0.407,-1.114,0.233,58.5,-131.5,-85.88,1785098372509.3389
0.342,-1.029,0.003,72.08,-145.15,-88.41,1785098372509.5469
0.271,-0.912,-0.291,83.22,-154.48,-88.56,1785098372509.7808
0.218,-0.756,-0.658,86.43,-157.17,-85.02,1785098372510.005
0.188,-0.635,-0.991,80.84,-153.23,-73.58,1785098372510.2239
0.291,-0.566,-1.178,66.65,-142.16,-65.31,1785098372510.446
0.267,-0.513,-1.314,41.87,-128.33,-74.8,1785098372510.6409
0.293,-0.591,-1.394,13.03,-102.85,-63.23,1785098372510.842
0.311,-0.609,-1.497,-10.83,-69.19,-47.3,1785098372511.0369
0.261,-0.508,-1.622,-25.42,-37.78,-34.67,1785098372511.2332
0.233,-0.396,-1.679,-30.4,-5.34,-19.93,1785098372511.42
0.222,-0.329,-1.681,-30.82,26.25,-7.93,1785098372511.6128
0.181,-0.288,-1.621,-33.33,52.49,2.04,1785098372511.81
0.144,-0.266,-1.507,-38.7,73.7,13.28,1785098372512.0
0.121,-0.273,-1.382,-47.61,90.76,24.17,1785098372512.194
0.11,-0.278,-1.229,-61.25,104.01,33.6,1785098372512.384
0.115,-0.314,-1.07,-74.83,113.71,42.39,1785098372512.573
0.194,-0.443,-0.774,-92.38,121.8,59.76,1785098372512.9568
0.27,-0.537,-0.613,-92.5,121.22,69.06,1785098372513.143
-1.131,-1.04,-0.454,-16.17,22.0,-40.62,1785098372513.481
-1.186,-1.071,-0.443,4.88,27.16,-53.25,1785098372513.6587
-1.166,-1.094,-0.49,27.74,30.64,-64.06,1785098372515.746
-1.125,-1.117,-0.596,48.01,35.74,-76.82,1785098372521.365
-1.115,-1.105,-0.672,60.15,40.28,-90.37,1785098372532.191
-1.106,-1.069,-0.711,64.42,42.12,-100.56,1785098372542.928
-1.073,-1.012,-0.752,62.62,43.15,-107.03,1785098372556.162
-1.044,-0.999,-0.78,57.19,44.86,-112.19,1785098372562.0269
-1.034,-1.035,-0.766,49.44,44.65,-117.59,1785098372572.9102
-1.019,-1.104,-0.742,44.28,44.28,-122.71,1785098372586.143
-0.999,-1.125,-0.714,42.7,45.08,-125.83,1785098372591.9812
-0.933,-1.11,-0.68,43.98,46.11,-124.64,1785098372602.862
-0.841,-1.082,-0.631,44.25,44.98,-122.56,1785098372616.1301
-0.731,-1.066,-0.619,42.21,43.46,-120.09,1785098372621.946
-0.621,-1.076,-0.628,39.7,44.16,-116.92,1785098372632.8599
-0.528,-1.09,-0.624,37.54,44.86,-112.77,1785098372646.133
-0.446,-1.101,-0.609,35.74,43.7,-106.54,1785098372651.9119
-0.377,-1.095,-0.564,34.58,40.93,-98.7,1785098372662.7478
-0.311,-1.106,-0.51,36.96,37.26,-91.13,1785098372676.058
-0.255,-1.079,-0.437,42.24,33.75,-84.66,1785098372681.772
-0.183,-1.035,-0.411,53.07,29.73,-76.69,1785098372692.506
-0.118,-1.001,-0.432,65.68,25.82,-69.52,1785098372705.845
-0.062,-0.951,-0.453,74.5,22.13,-64.24,1785098372712.251
-0.005,-0.907,-0.515,80.32,19.07,-59.39,1785098372722.398
0.041,-0.858,-0.566,81.67,18.22,-56.0,1785098372733.022
0.071,-0.78,-0.509,76.17,16.05,-53.59,1785098372746.27
0.124,-0.743,-0.445,67.14,13.0,-51.79,1785098372751.7969
0.174,-0.744,-0.371,55.88,12.05,-53.65,1785098372763.0989
0.216,-0.748,-0.313,45.93,12.45,-56.61,1785098372776.0068
0.265,-0.766,-0.281,39.46,13.15,-58.53,1785098372782.1262
0.297,-0.754,-0.254,33.75,12.6,-61.1,1785098372792.4302
0.327,-0.727,-0.248,29.73,11.29,-62.11,1785098372803.0369
0.355,-0.741,-0.229,25.79,10.04,-64.67,1785098372816.306
0.359,-0.77,-0.192,21.24,8.73,-70.65,1785098372822.305
0.358,-0.808,-0.139,21.06,7.66,-75.29,1785098372832.4658
0.376,-0.827,-0.107,27.01,6.62,-78.04,1785098372843.143
0.394,-0.817,-0.094,35.86,5.58,-80.51,1785098372856.4548
0.406,-0.765,-0.064,39.83,3.81,-81.97,1785098372862.3472
0.429,-0.731,0.0,37.69,0.49,-82.28,1785098372872.689
0.435,-0.737,0.084,31.8,-3.3,-85.39,1785098372883.1338
0.421,-0.725,0.167,25.97,-7.84,-90.03,1785098372896.372
0.407,-0.696,0.222,24.29,-14.1,-93.6,1785098372902.3389
0.385,-0.659,0.225,27.65,-21.42,-96.87,1785098372912.7651
0.37,-0.624,0.151,33.66,-28.93,-100.16,1785098372926.1062
0.349,-0.58,0.072,36.5,-36.59,-103.73,1785098372931.999
0.33,-0.56,0.002,34.46,-44.56,-107.21,1785098372942.756
0.319,-0.56,-0.074,27.07,-50.87,-110.05,1785098372955.959
0.312,-0.587,-0.181,16.57,-56.52,-110.9,1785098372961.7212
0.29,-0.608,-0.304,4.67,-60.73,-111.09,1785098372972.7737
0.26,-0.623,-0.453,-5.04,-62.72,-109.65,1785098372985.881
0.24,-0.627,-0.651,-14.95,-61.83,-107.06,1785098372991.8289
0.227,-0.609,-0.812,-27.04,-56.49,-103.34,1785098373002.467
0.224,-0.592,-0.932,-36.1,-46.69,-98.76,1785098373013.115
0.235,-0.569,-1.028,-40.16,-33.17,-92.44,1785098373026.518
0.238,-0.548,-1.12,-39.98,-16.11,-86.4,1785098373032.397
0.225,-0.54,-1.182,-40.62,3.14,-78.74,1785098373042.739
0.235,-0.559,-1.21,-43.89,22.74,-67.42,1785098373056.084
0.228,-0.563,-1.22,-48.8,43.76,-60.76,1785098373061.9111
0.189,-0.578,-1.217,-53.71,64.21,-54.51,1785098373072.58
0.179,-0.62,-1.165,-57.44,84.38,-44.65,1785098373083.0989
0.149,-0.625,-1.098,-60.18,100.8,-36.62,1785098373096.363
0.125,-0.61,-1.022,-60.88,112.46,-28.11,1785098373102.2908
0.138,-0.614,-0.935,-57.04,122.38,-20.11,1785098373113.097
0.158,-0.628,-0.853,-50.63,130.01,-14.53,1785098373126.4639
0.196,-0.644,-0.76,-46.17,134.71,-10.16,1785098373132.3918
0.238,-0.666,-0.665,-44.8,137.06,-6.59,1785098373142.983
0.275,-0.72,-0.587,-46.3,138.34,-3.45,1785098373156.3462
0.306,-0.805,-0.501,-50.57,138.34,-1.95,1785098373162.152
0.355,-0.936,-0.38,-54.17,137.33,-2.53,1785098373172.796
0.4,-1.06,-0.16,-56.7,134.56,-7.26,1785098373185.884
0.476,-1.152,0.108,-57.13,125.8,-10.47,1785098373191.8389
0.595,-1.181,0.382,-55.09,113.35,-10.01,1785098373202.532
0.699,-1.11,0.651,-48.83,99.98,-10.77,1785098373213.147
0.768,-1.063,0.853,-34.03,83.35,-16.75,1785098373226.446
0.771,-1.04,0.93,-18.13,62.84,-30.58,1785098373232.0408
0.733,-0.993,0.899,-9.58,40.86,-45.9,1785098373242.757
0.698,-0.929,0.83,-9.77,18.34,-58.17,1785098373256.0261
0.683,-0.912,0.761,-14.74,-3.88,-69.31,1785098373261.952
0.672,-0.915,0.72,-20.2,-25.85,-79.5,1785098373272.3232
0.678,-0.915,0.679,-19.75,-47.24,-85.94,1785098373282.9321
0.678,-0.915,0.679,-9.83,-66.93,-91.01,1785098373296.168
0.681,-0.896,0.615,9.46,-84.99,-96.74,1785098373302.0488
0.654,-0.862,0.514,32.01,-101.84,-101.75,1785098373312.732
0.594,-0.802,0.405,53.9,-118.11,-103.37,1785098373325.9158
0.538,-0.745,0.242,71.38,-131.57,-102.82,1785098373331.867
0.49,-0.706,-0.01,71.38,-131.57,-102.82,1785098373342.887
0.41,-0.614,-0.316,78.8,-140.02,-101.38,1785098373356.2651
0.348,-0.463,-0.714,73.21,-142.46,-94.85,1785098373362.087
0.335,-0.313,-1.056,56.0,-137.82,-82.34,1785098373373.066
0.369,-0.276,-1.305,36.59,-127.26,-68.94,1785098373386.1719
0.374,-0.308,-1.419,21.94,-111.12,-60.03,1785098373392.174
0.383,-0.377,-1.459,18.56,-91.01,-54.23,1785098373402.874
0.361,-0.465,-1.517,21.45,-69.03,-50.42,1785098373416.029
0.354,-0.516,-1.56,19.26,-37.84,-38.06,1785098373421.954
0.324,-0.501,-1.639,9.43,-5.98,-24.08,1785098373432.341
0.258,-0.443,-1.639,-5.89,21.55,-10.86,1785098373442.901
0.208,-0.405,-1.568,-19.5,46.72,0.31,1785098373456.148
0.196,-0.379,-1.435,-31.53,68.51,9.64,1785098373462.062
0.224,-0.366,-1.264,-41.57,84.38,18.86,1785098373472.4421
0.278,-0.376,-1.094,-48.49,96.44,27.99,1785098373483.157
0.334,-0.401,-0.952,-54.63,105.32,34.49,1785098373496.354
0.366,-0.435,-0.819,-63.14,110.39,38.97,1785098373502.2998
0.413,-0.506,-0.675,-73.12,111.21,45.56,1785098373513.085
0.482,-0.601,-0.503,-80.69,110.51,50.75,1785098373526.3638
0.561,-0.696,-0.323,-82.52,108.8,54.23,1785098373532.3123
0.667,-0.825,-0.106,-78.65,104.19,58.2,1785098373543.0442
0.777,-0.947,0.146,-71.32,96.29,59.3,1785098373556.418
0.844,-1.043,0.36,-61.04,86.58,56.95,1785098373562.185
0.872,-1.124,0.551,-49.35,75.44,53.32,1785098373572.8408
0.849,-1.192,0.707,-37.29,59.88,45.93,1785098373585.979
0.799,-1.226,0.821,-24.08,40.74,33.69,1785098373591.934
0.766,-1.21,0.903,-9.67,19.23,18.56,1785098373602.287
0.761,-1.184,0.938,5.4,-4.21,1.68,1785098373612.6653
0.744,-1.156,0.921,19.78,-28.66,-15.81,1785098373626.015
0.712,-1.121,0.849,34.3,-53.41,-31.37,1785098373631.938
0.692,-1.073,0.741,52.06,-76.54,-46.17,1785098373642.4302
0.636,-0.988,0.587,70.77,-97.75,-61.46,1785098373653.0618
0.59,-0.934,0.417,86.0,-117.4,-68.45,1785098373666.312
0.556,-0.922,0.214,99.0,-134.95,-69.03,1785098373672.373
0.507,-0.866,-0.048,111.7,-149.75,-70.28,1785098373683.156
0.462,-0.758,-0.425,120.94,-159.03,-72.12,1785098373696.398
0.423,-0.591,-0.823,117.28,-158.85,-71.66,1785098373702.3162
0.398,-0.464,-1.116,100.89,-153.05,-66.9,1785098373715.8022
0.418,-0.458,-1.297,78.07,-143.04,-59.18,1785098373721.7268
0.433,-0.521,-1.39,57.92,-127.69,-49.35,1785098373732.5999
0.476,-0.571,-1.464,46.11,-108.8,-38.42,1785098373745.854
0.402,-0.504,-1.585,39.64,-86.61,-41.11,1785098373751.7979
0.343,-0.466,-1.676,32.78,-58.72,-31.07,1785098373762.416
0.369,-0.483,-1.735,27.83,-24.84,-14.89,1785098373773.1309
0.332,-0.443,-1.745,25.51,4.91,-3.91,1785098373786.199
0.286,-0.377,-1.665,23.68,29.02,7.6,1785098373792.272
0.262,-0.365,-1.527,19.26,51.09,18.07,1785098373802.425
0.251,-0.373,-1.338,10.53,69.67,28.23,1785098373813.087
0.259,-0.377,-1.168,0.95,83.9,37.2,1785098373826.3909
0.266,-0.372,-1.014,-11.57,94.94,43.06,1785098373832.265
0.301,-0.394,-0.861,-27.83,102.66,48.46,1785098373842.906
0.359,-0.436,-0.692,-44.77,107.49,53.16,1785098373856.1853
0.442,-0.518,-0.504,-59.11,109.9,57.99,1785098373862.015
0.53,-0.618,-0.296,-69.37,109.62,63.57,1785098373872.961
0.623,-0.723,-0.052,-74.07,106.14,69.7,1785098373886.0017
0.717,-0.848,0.237,-72.42,99.19,74.34,1785098373892.0222
0.803,-1.034,0.504,-63.54,89.48,76.2,1785098373902.5522
0.856,-1.209,0.643,-50.69,77.82,73.79,1785098373915.836
0.817,-1.305,0.756,-35.04,63.84,67.02,1785098373921.702
0.762,-1.325,0.832,-18.04,45.59,55.57,1785098373932.269
0.731,-1.275,0.885,-5.37,24.66,38.21,1785098373942.8699
0.716,-1.227,0.916,2.32,2.01,18.74,1785098373956.2292
0.689,-1.218,0.924,6.71,-22.13,-0.03,1785098373961.8672
0.657,-1.209,0.91,13.28,-47.61,-16.82,1785098373972.231
0.636,-1.202,0.815,28.75,-72.24,-31.89,1785098373982.8533
0.603,-1.166,0.663,49.56,-94.42,-46.69,1785098373996.0708
0.542,-1.101,0.493,69.49,-114.99,-58.78,1785098374002.023
0.474,-1.028,0.271,85.82,-133.98,-65.98,1785098374012.731
0.418,-0.952,-0.008,98.06,-149.66,-68.61,1785098374026.0361
0.364,-0.86,-0.383,104.83,-160.31,-68.51,1785098374031.955
0.328,-0.715,-0.8,100.31,-161.9,-64.61,1785098374042.936
0.324,-0.607,-1.098,85.97,-156.96,-56.67,1785098374056.268
0.333,-0.62,-1.237,68.21,-147.4,-48.25,1785098374062.061
0.359,-0.724,-1.221,54.02,-134.16,-38.39,1785098374072.9512
0.315,-0.709,-1.328,48.16,-117.44,-44.28,1785098374086.05
0.281,-0.627,-1.507,43.58,-90.21,-40.07,1785098374092.0698
0.294,-0.568,-1.7,38.39,-50.9,-26.58,1785098374102.575
0.277,-0.493,-1.833,29.21,-15.29,-15.08,1785098374115.9539
0.242,-0.384,-1.804,17.85,14.16,-0.76,1785098374121.7148
0.223,-0.312,-1.711,8.27,42.97,15.14,1785098374132.141
0.227,-0.295,-1.559,-4.24,69.06,26.86,1785098374142.688
0.218,-0.285,-1.369,-20.63,88.78,34.27,1785098374156.1401
0.201,-0.295,-1.201,-38.42,105.17,40.5,1785098374161.8892
0.206,-0.327,-1.043,-58.69,118.17,47.18,1785098374172.7302
0.24,-0.375,-0.9,-80.23,125.95,53.65,1785098374185.793
0.296,-0.451,-0.748,-100.31,129.89,60.7,1785098374191.803
0.368,-0.542,-0.536,-115.15,130.74,67.96,1785098374202.7322
0.462,-0.683,-0.323,-119.79,128.85,75.14,1785098374215.98
0.559,-0.827,-0.109,-115.67,124.94,80.63,1785098374221.933
0.661,-0.972,0.147,-103.27,118.08,85.85,1785098374232.9458
0.767,-1.178,0.383,-84.11,108.98,88.41,1785098374246.171
0.822,-1.36,0.587,-65.89,99.09,86.37,1785098374252.1921
0.793,-1.438,0.778,-50.57,86.15,79.93,1785098374262.815
0.716,-1.486,0.944,-34.18,68.64,68.18,1785098374276.011
0.659,-1.502,1.07,-19.87,45.78,49.96,1785098374281.922
0.643,-1.487,1.151,-8.88,18.62,28.72,1785098374292.317
0.626,-1.446,1.174,1.34,-11.41,6.5,1785098374302.815
0.601,-1.389,1.106,14.74,-42.45,-15.29,1785098374316.0908
0.583,-1.326,0.971,31.86,-71.87,-35.43,1785098374322.0051
0.558,-1.256,0.797,50.2,-98.21,-52.92,1785098374332.5068
0.52,-1.175,0.597,67.66,-121.49,-66.32,1785098374345.7559
0.471,-1.081,0.366,83.59,-141.76,-75.56,1785098374351.71
0.419,-0.973,0.099,97.66,-159.15,-80.54,1785098374362.397
0.381,-0.876,-0.232,109.53,-172.19,-81.79,1785098374375.7498
0.344,-0.768,-0.61,115.21,-177.68,-80.6,1785098374381.7012
0.313,-0.647,-0.899,109.41,-176.55,-75.11,1785098374392.7131
0.315,-0.635,-1.141,97.23,-172.4,-65.16,1785098374405.942
0.37,-0.686,-1.239,83.56,-158.39,-55.85,1785098374411.946
0.272,-0.656,-1.42,74.22,-142.8,-66.41,1785098374422.6802
0.254,-0.653,-1.631,65.0,-117.68,-55.02,1785098374436.0151
0.286,-0.635,-1.809,56.79,-78.04,-35.62,1785098374442.0117
0.274,-0.572,-1.947,49.65,-40.25,-22.03,1785098374452.626
0.231,-0.48,-1.952,42.48,-6.62,-12.33,1785098374463.0178
0.207,-0.404,-1.838,32.35,26.28,-3.75,1785098374476.363
0.198,-0.365,-1.672,17.49,56.4,6.32,1785098374482.229
0.169,-0.339,-1.497,0.46,79.38,16.14,1785098374492.409
0.14,-0.32,-1.319,-17.67,97.9,24.75,1785098374503.124
0.129,-0.333,-1.171,-36.71,113.35,32.59,1785098374516.386
0.137,-0.357,-1.035,-58.47,123.94,39.64,1785098374522.454
0.177,-0.395,-0.898,-81.94,130.47,46.08,1785098374533.105
0.249,-0.463,-0.74,-102.36,134.68,53.1,1785098374546.344
0.362,-0.566,-0.527,-114.51,136.6,60.67,1785098374552.759
0.48,-0.71,-0.279,-113.86,135.23,67.08,1785098374565.802
0.577,-0.834,-0.029,-101.93,131.72,74.04,1785098374571.7068
0.577,-0.834,-0.029,-82.0,125.49,82.77,1785098374582.699
0.676,-0.95,0.224,-58.23,117.37,87.31,1785098374595.9392
0.775,-1.142,0.477,-38.7,105.93,81.0,1785098374602.072
0.816,-1.366,0.675,-29.24,90.46,67.66,1785098374612.573
0.762,-1.501,0.855,-23.22,70.86,54.75,1785098374623.862
0.669,-1.538,0.998,-23.22,70.86,54.75,1785098374636.4001
0.616,-1.508,1.073,-14.62,48.8,40.04,1785098374642.421
0.588,-1.455,1.104,-5.68,22.49,19.14,1785098374652.727
0.572,-1.418,1.128,0.79,-7.72,-4.12,1785098374663.1338
0.575,-1.403,1.091,8.7,-38.06,-25.94,1785098374676.503
0.565,-1.386,0.98,22.19,-65.1,-45.44,1785098374682.3098
0.52,-1.346,0.81,41.38,-88.9,-62.26,1785098374692.7869
0.452,-1.261,0.624,61.59,-110.81,-75.69,1785098374706.2222
0.4,-1.161,0.391,79.68,-131.08,-83.25,1785098374711.972
0.361,-1.051,0.12,94.12,-147.92,-86.03,1785098374722.8967
0.322,-0.935,-0.231,104.16,-159.28,-85.91,1785098374736.0188
0.284,-0.802,-0.636,105.23,-162.48,-83.07,1785098374742.092
0.251,-0.663,-0.952,92.68,-159.49,-78.1,1785098374752.6619
0.255,-0.588,-1.184,70.74,-152.17,-72.24,1785098374766.1729
0.261,-0.574,-1.24,45.44,-137.73,-66.47,1785098374772.0698
0.253,-0.612,-1.362,27.65,-118.81,-59.24,1785098374782.93
0.259,-0.587,-1.6,13.76,-90.52,-42.33,1785098374796.0908
0.259,-0.39,-1.807,-2.01,-53.71,-35.95,1785098374801.98
0.204,-0.24,-1.93,-18.01,-19.1,-27.86,1785098374812.4758
0.249,-0.269,-1.871,-30.82,19.53,-6.23,1785098374823.1309
0.208,-0.263,-1.742,-38.73,52.52,6.29,1785098374836.235
0.158,-0.242,-1.572,-41.14,74.86,23.32,1785098374842.2231
0.152,-0.273,-1.407,-38.58,95.25,41.38,1785098374852.658
0.153,-0.303,-1.278,-37.97,113.38,50.6,1785098374865.932
0.142,-0.323,-1.149,-44.86,126.16,56.67,1785098374871.815
0.163,-0.373,-1.012,-56.61,133.3,64.91,1785098374882.627
0.218,-0.44,-0.866,-68.91,138.0,71.9,1785098374895.911
0.301,-0.523,-0.689,-77.36,141.76,77.79,1785098374901.757
0.396,-0.65,-0.461,-78.77,142.95,83.32,1785098374912.6191
0.484,-0.811,-0.256,-73.89,140.69,87.8,1785098374925.893
0.568,-0.916,-0.048,-69.95,136.94,93.57,1785098374931.846
0.655,-1.016,0.204,-66.41,130.34,99.92,1785098374942.558
0.73,-1.196,0.479,-63.42,121.59,100.1,1785098374955.8987
0.779,-1.418,0.757,-63.05,111.61,92.17,1785098374961.7769
0.777,-1.6,0.96,-59.82,98.09,79.01,1785098374972.554
0.69,-1.681,1.069,-47.46,80.26,63.11,1785098374983.0999
0.572,-1.636,1.132,-28.81,56.18,43.7,1785098374996.366
0.541,-1.542,1.165,-11.35,26.22,20.02,1785098375002.265
0.596,-1.486,1.175,1.28,-5.77,-5.62,1785098375012.542
0.633,-1.46,1.137,12.85,-36.1,-30.37,1785098375023.2908
0.61,-1.417,1.023,29.48,-64.03,-51.61,1785098375036.4458
0.555,-1.334,0.847,50.75,-89.91,-68.54,1785098375042.477
0.502,-1.225,0.655,72.76,-113.93,-80.51,1785098375053.0088
0.463,-1.11,0.45,92.41,-135.65,-86.06,1785098375066.299
0.421,-1.0,0.223,108.1,-154.58,-86.55,1785098375072.2239
0.38,-0.897,-0.06,120.4,-169.56,-85.02,1785098375083.146
0.342,-0.799,-0.433,126.87,-178.44,-83.07,1785098375096.394
0.306,-0.678,-0.872,120.98,-178.75,-79.01,1785098375102.3381
0.284,-0.56,-1.187,102.18,-172.92,-71.96,1785098375115.8198
0.308,-0.575,-1.335,80.26,-163.24,-65.28,1785098375121.7659
0.272,-0.691,-1.437,63.17,-148.41,-59.6,1785098375132.6091
0.31,-0.698,-1.603,51.82,-122.62,-50.78,1785098375145.9429
0.201,-0.478,-1.852,39.34,-91.95,-57.95,1785098375151.798
0.209,-0.396,-1.962,23.87,-53.56,-38.54,1785098375162.4219
0.269,-0.453,-1.962,11.81,-12.42,-14.74,1785098375173.238
0.234,-0.426,-1.899,1.25,21.55,-1.77,1785098375186.266
0.185,-0.32,-1.76,-9.49,49.99,10.41,1785098375191.978
0.169,-0.255,-1.599,-21.39,77.67,21.45,1785098375202.515
0.166,-0.238,-1.448,-38.21,100.62,27.1,1785098375213.27
0.151,-0.25,-1.284,-61.25,118.05,32.14,1785098375226.5752
0.143,-0.306,-1.126,-85.79,132.15,40.5,1785098375232.4229
0.151,-0.39,-0.968,-107.94,141.79,51.0,1785098375245.76
0.195,-0.497,-0.796,-122.71,146.43,60.76,1785098375251.6938
0.276,-0.611,-0.573,-128.18,147.53,68.06,1785098375262.709
0.381,-0.777,-0.34,-122.07,146.4,73.4,1785098375275.97
0.471,-0.937,-0.15,-108.37,144.57,76.27,1785098375281.879
0.572,-1.068,0.095,-93.3,140.14,82.4,1785098375292.8599
0.695,-1.237,0.375,-76.94,132.45,89.79,1785098375306.0469
0.788,-1.42,0.656,-63.42,122.41,93.08,1785098375311.996
0.799,-1.552,0.911,-52.71,109.47,89.66,1785098375322.7993
0.731,-1.619,1.065,-39.12,94.27,77.85,1785098375336.014
0.626,-1.585,1.15,-23.01,74.74,57.95,1785098375341.9731
0.56,-1.48,1.195,-9.86,48.04,32.32,1785098375352.4402
0.567,-1.399,1.229,-2.75,16.63,6.99,1785098375362.883
0.609,-1.383,1.23,2.2,-16.57,-16.39,1785098375376.1
0.615,-1.399,1.152,12.63,-47.64,-38.27,1785098375381.997
0.565,-1.388,0.98,31.1,-75.05,-57.31,1785098375392.493
0.508,-1.318,0.784,52.71,-100.41,-72.63,1785098375403.2068
0.468,-1.216,0.6,73.24,-124.39,-82.46,1785098375416.439
0.438,-1.113,0.429,91.8,-145.54,-86.67,1785098375422.4263
0.386,-1.027,0.233,108.28,-163.58,-87.95,1785098375435.688
0.317,-0.953,-0.045,121.92,-178.78,-88.02,1785098375441.654
0.262,-0.875,-0.437,128.7,-187.93,-86.52,1785098375452.696
0.214,-0.763,-0.913,122.07,-187.78,-83.04,1785098375465.9998
0.185,-0.64,-1.278,101.72,-180.24,-76.69,1785098375472.0059
0.19,-0.605,-1.412,76.33,-167.67,-68.94,1785098375482.943
0.208,-0.691,-1.501,56.52,-151.25,-58.17,1785098375496.143
0.267,-0.631,-1.658,40.04,-124.24,-57.47,1785098375501.995
0.17,-0.421,-1.858,14.71,-93.94,-62.99,1785098375512.749
0.207,-0.357,-1.944,-16.63,-54.51,-38.36,1785098375526.1099
0.224,-0.346,-1.961,-42.45,-13.15,-17.0,1785098375531.908
0.181,-0.259,-1.888,-60.88,17.94,-1.25,1785098375542.32
0.167,-0.152,-1.77,-70.71,44.4,13.76,1785098375552.9429
0.163,-0.104,-1.645,-77.18,72.33,24.26,1785098375566.2349
0.157,-0.134,-1.497,-87.98,95.1,31.98,1785098375572.261
0.144,-0.212,-1.319,-103.06,111.7,40.28,1785098375582.872
0.136,-0.308,-1.146,-116.64,123.29,51.18,1785098375596.145
0.156,-0.411,-0.985,-124.42,130.25,64.27,1785098375602.101
0.218,-0.499,-0.808,-125.68,133.4,76.24,1785098375613.186
0.316,-0.6,-0.613,-119.57,134.19,85.63,1785098375626.2378
0.418,-0.747,-0.448,-107.55,132.66,92.78,1785098375632.037
0.509,-0.867,-0.279,-94.85,129.8,98.64,1785098375643.085
0.596,-0.984,-0.117,-82.0,126.04,104.8,1785098375656.679
0.659,-1.123,0.063,-70.5,122.38,110.63,1785098375662.143
0.706,-1.279,0.308,-61.13,116.58,113.62,1785098375676.0461
0.753,-1.433,0.512,-51.94,108.13,109.29,1785098375681.8628
0.746,-1.535,0.683,-42.39,99.31,95.98,1785098375692.8179
0.678,-1.587,0.842,-29.79,86.7,75.72,1785098375705.9573
0.615,-1.577,0.978,-16.48,67.08,50.9,1785098375711.9028
0.626,-1.542,1.086,-4.79,41.99,25.09,1785098375722.332
0.675,-1.513,1.137,5.4,14.47,-2.29,1785098375732.495
0.684,-1.492,1.118,15.05,-14.1,-28.78,1785098375746.0479
0.654,-1.448,1.022,26.83,-42.09,-50.63,1785098375751.6711
0.612,-1.37,0.871,43.21,-68.82,-68.15,1785098375762.558
0.575,-1.252,0.695,62.26,-94.18,-81.55,1785098375773.228
0.536,-1.121,0.506,81.12,-117.13,-90.18,1785098375786.3538
0.492,-1.013,0.314,98.06,-136.48,-94.64,1785098375792.362
0.429,-0.929,0.111,112.43,-153.36,-96.9,1785098375803.1768
0.356,-0.844,-0.125,124.64,-167.39,-97.72,1785098375816.4092
0.31,-0.771,-0.48,134.34,-176.03,-95.95,1785098375822.783
0.259,-0.668,-0.909,133.49,-176.76,-91.74,1785098375835.843
0.214,-0.571,-1.235,120.98,-171.18,-83.9,1785098375841.904
0.215,-0.559,-1.417,104.04,-160.28,-73.46,1785098375852.8262
0.251,-0.652,-1.518,90.76,-145.6,-56.4,1785098375866.034
0.251,-0.652,-1.518,83.22,-123.39,-55.12,1785098375872.01
0.28,-0.602,-1.672,69.95,-95.46,-59.08,1785098375882.642
0.148,-0.409,-1.879,48.62,-58.75,-29.88,1785098375895.9292
0.188,-0.376,-1.975,25.88,-21.18,-10.96,1785098375901.849
0.23,-0.363,-2.022,25.88,-21.18,-10.96,1785098375912.379
0.169,-0.284,-1.981,1.62,9.28,-3.66,1785098375922.924
0.163,-0.232,-1.825,-23.56,37.2,9.4,1785098375935.969
0.168,-0.206,-1.648,-47.0,65.8,20.17,1785098375942.0469
0.161,-0.2,-1.467,-68.91,89.27,30.49,1785098375952.3818
0.146,-0.214,-1.298,-88.87,105.41,39.67,1785098375963.136
0.149,-0.277,-1.152,-107.18,119.42,49.13,1785098375976.414
0.175,-0.367,-0.992,-123.54,130.5,59.85,1785098375982.358
0.22,-0.483,-0.81,-132.94,136.17,71.75,1785098375995.776
0.299,-0.628,-0.582,-131.29,137.7,81.79,1785098376001.734
0.407,-0.823,-0.37,-117.47,136.6,88.08,1785098376012.79
0.514,-0.962,-0.165,-98.94,134.34,91.74,1785098376026.107
0.62,-1.072,0.098,-80.78,130.62,95.86,1785098376031.948
0.719,-1.247,0.445,-65.37,123.2,98.57,1785098376042.7397
0.802,-1.472,0.691,-53.13,111.39,96.62,1785098376056.124
0.813,-1.617,0.864,-41.63,97.35,89.6,1785098376061.9001
0.711,-1.66,0.962,-22.49,79.62,75.44,1785098376072.595
0.589,-1.595,1.018,-2.26,57.37,51.64,1785098376083.0122
0.569,-1.477,1.088,10.44,29.21,22.43,1785098376096.315
0.628,-1.399,1.142,15.2,-2.81,-6.44,1785098376102.2751
0.659,-1.385,1.122,16.69,-34.46,-31.4,1785098376112.621
0.637,-1.379,1.007,24.41,-62.01,-51.97,1785098376123.304
0.578,-1.334,0.824,41.87,-86.37,-69.73,1785098376136.461
0.522,-1.229,0.621,63.42,-109.53,-83.13,1785098376142.559
0.48,-1.101,0.402,83.32,-130.41,-89.91,1785098376153.1301
0.436,-0.986,0.132,99.28,-147.28,-91.74,1785098376166.378
0.391,-0.879,-0.164,111.85,-158.3,-91.28,1785098376172.331
0.343,-0.765,-0.558,118.75,-162.69,-89.36,1785098376185.691
0.303,-0.615,-0.979,111.97,-158.76,-83.9,1785098376191.675
0.283,-0.496,-1.237,92.56,-150.03,-75.32,1785098376202.564
0.302,-0.496,-1.31,71.05,-137.18,-67.96,1785098376215.824
0.273,-0.603,-1.404,55.6,-121.43,-57.86,1785098376221.74
0.328,-0.563,-1.552,44.28,-93.81,-48.62,1785098376232.5098
0.19,-0.346,-1.777,32.53,-66.16,-50.57,1785098376243.123
0.207,-0.342,-1.88,22.43,-30.67,-23.56,1785098376256.351
0.251,-0.38,-1.884,15.08,8.45,-1.8,1785098376262.2349
0.173,-0.292,-1.81,4.58,35.31,8.39,1785098376272.4539
0.161,-0.213,-1.671,-6.35,58.05,23.56,1785098376282.974
0.167,-0.203,-1.538,-16.85,81.7,33.57,1785098376296.278
0.157,-0.217,-1.381,-32.99,99.49,40.13,1785098376302.171
0.145,-0.249,-1.219,-53.01,113.35,46.6,1785098376312.855
0.131,-0.324,-1.055,-73.79,124.73,54.99,1785098376326.054
0.15,-0.43,-0.902,-91.77,131.02,65.86,1785098376332.001
0.214,-0.518,-0.75,-102.97,133.34,74.86,1785098376342.87
0.307,-0.607,-0.582,-105.11,134.95,79.53,1785098376356.316
0.389,-0.728,-0.445,-101.72,135.53,82.37,1785098376362.227
0.475,-0.83,-0.334,-98.36,135.69,87.59,1785098376372.9868
0.571,-0.904,-0.193,-96.04,136.2,96.8,1785098376386.22
0.667,-1.026,0.034,-92.72,137.76,105.69,1785098376392.185
0.72,-1.247,0.3,-86.03,137.21,108.65,1785098376403.1382
0.732,-1.501,0.519,-75.08,133.15,105.87,1785098376416.3652
0.698,-1.641,0.736,-59.39,126.13,97.87,1785098376422.322
0.634,-1.681,0.906,-36.47,113.01,83.07,1785098376433.1992
0.586,-1.615,0.985,-13.64,95.13,63.23,1785098376446.392
0.571,-1.492,1.015,3.14,73.64,41.26,1785098376452.316
0.577,-1.39,1.042,14.34,47.43,15.78,1785098376462.854
0.591,-1.351,1.048,20.29,17.18,-11.78,1785098376476.136
0.588,-1.344,1.022,23.47,-14.13,-36.44,1785098376481.619
0.563,-1.331,0.93,29.94,-44.56,-55.45,1785098376492.607
0.522,-1.291,0.771,42.33,-73.34,-71.38,1785098376503.1528
0.481,-1.225,0.587,57.1,-101.02,-84.54,1785098376516.403
0.442,-1.147,0.408,71.63,-126.04,-92.99,1785098376522.4043
0.392,-1.068,0.24,86.31,-148.01,-97.23,1785098376533.119
0.334,-1.0,0.044,102.69,-167.36,-99.7,1785098376546.418
0.276,-0.934,-0.225,120.33,-182.84,-101.02,1785098376552.317
0.232,-0.849,-0.626,135.04,-191.41,-99.34,1785098376565.967
0.205,-0.738,-1.065,139.9,-190.83,-93.26,1785098376571.807
0.198,-0.646,-1.354,133.76,-183.17,-81.94,1785098376582.863
0.231,-0.634,-1.429,123.33,-171.42,-65.68,1785098376596.1257
0.345,-0.663,-1.458,119.3,-152.65,-60.03,1785098376602.06
0.285,-0.573,-1.65,113.71,-127.93,-68.82,1785098376613.066
0.296,-0.477,-1.801,96.71,-91.28,-47.88,1785098376626.3489
0.326,-0.357,-1.902,70.89,-50.9,-28.75,1785098376632.302
0.307,-0.239,-1.916,38.3,-16.54,-15.75,1785098376642.83
0.303,-0.168,-1.787,3.05,14.59,-0.03,1785098376653.202
0.31,-0.137,-1.619,-29.51,46.14,12.12,1785098376666.511
0.302,-0.153,-1.466,-58.08,72.27,21.91,1785098376672.4338
0.277,-0.214,-1.298,-83.32,91.25,30.34,1785098376682.984
0.245,-0.302,-1.133,-104.43,106.91,38.33,1785098376696.213
0.238,-0.393,-0.975,-120.85,118.84,48.4,1785098376702.121
0.27,-0.478,-0.798,-130.74,125.34,59.39,1785098376713.2349
0.335,-0.583,-0.592,-131.05,126.77,68.39,1785098376726.4968
0.429,-0.741,-0.401,-120.27,125.46,73.92,1785098376732.4102
0.513,-0.889,-0.217,-102.82,122.38,76.94,1785098376745.922
0.608,-1.003,-0.018,-83.25,117.28,82.31,1785098376751.8442
0.71,-1.144,0.214,-63.57,110.14,88.14,1785098376762.708
0.773,-1.336,0.447,-47.46,99.98,88.72,1785098376775.932
0.774,-1.484,0.643,-38.15,87.65,83.13,1785098376781.785
0.711,-1.565,0.793,-29.42,73.21,71.96,1785098376792.365
0.614,-1.569,0.906,-19.87,55.12,53.65,1785098376802.9531
0.543,-1.512,1.011,-11.87,31.37,30.95,1785098376816.273
0.548,-1.453,1.089,-4.24,3.05,6.74,1785098376822.154
0.586,-1.408,1.085,3.97,-26.73,-18.28,1785098376832.326
0.595,-1.392,1.003,11.96,-55.18,-42.24,1785098376842.9802
0.565,-1.369,0.864,22.31,-80.05,-62.65,1785098376856.3772
0.518,-1.306,0.7,37.42,-101.96,-77.94,1785098376862.2751
0.474,-1.204,0.531,55.27,-122.17,-87.65,1785098376873.046
0.437,-1.094,0.36,73.61,-140.08,-92.35,1785098376886.108
0.389,-0.998,0.157,90.61,-155.98,-93.87,1785098376892.117
0.334,-0.901,-0.089,105.44,-168.68,-93.72,1785098376902.9497
0.299,-0.824,-0.418,116.31,-175.97,-92.29,1785098376916.1821
0.272,-0.713,-0.816,117.16,-175.3,-88.5,1785098376922.171
0.254,-0.588,-1.108,107.0,-168.49,-80.9,1785098376933.146
0.269,-0.548,-1.243,92.38,-157.26,-71.99,1785098376946.452
0.281,-0.599,-1.32,81.15,-141.06,-64.42,1785098376952.3672
0.293,-0.661,-1.473,73.92,-117.4,-49.01,1785098376963.1318
0.299,-0.512,-1.648,63.05,-84.17,-45.96,1785098376976.439
0.226,-0.345,-1.802,44.95,-50.23,-39.12,1785098376982.52
0.264,-0.366,-1.824,25.15,-9.19,-11.81,1785098376992.7527
0.256,-0.339,-1.779,6.38,28.69,4.52,1785098377003.243
0.203,-0.263,-1.669,-10.62,55.85,19.44,1785098377016.449
0.182,-0.223,-1.512,-24.2,81.09,34.42,1785098377022.5479
0.168,-0.227,-1.366,-38.61,103.4,42.36,1785098377032.989
0.148,-0.262,-1.217,-57.25,118.66,49.2,1785098377046.304
0.14,-0.32,-1.068,-76.72,128.24,58.2,1785098377052.161
0.144,-0.388,-0.923,-93.6,134.34,67.87,1785098377062.998
0.174,-0.475,-0.763,-104.28,136.91,77.88,1785098377076.304
0.235,-0.577,-0.57,-106.42,135.96,85.15,1785098377082.154
0.319,-0.712,-0.395,-99.58,132.82,88.9,1785098377093.075
0.398,-0.832,-0.234,-88.56,128.79,92.32,1785098377106.504
0.494,-0.92,-0.056,-76.42,123.36,98.64,1785098377112.333
0.599,-1.046,0.126,-62.93,116.89,104.43,1785098377123.21
0.685,-1.222,0.349,-50.33,110.81,105.87,1785098377136.4238
0.75,-1.43,0.599,-40.41,101.17,102.48,1785098377142.457
0.731,-1.593,0.795,-32.72,87.16,94.39,1785098377153.2212
0.731,-1.593,0.795,-22.52,71.96,83.47,1785098377166.4277
0.623,-1.64,0.954,-7.87,51.36,66.74,1785098377172.38
0.505,-1.572,1.038,5.43,24.54,42.33,1785098377182.689
0.478,-1.472,1.079,10.44,-5.8,12.63,1785098377195.978
0.535,-1.427,1.114,10.44,-5.8,12.63,1785098377201.844
0.599,-1.432,1.133,9.49,-35.92,-15.38,1785098377212.158
0.597,-1.437,1.061,12.67,-63.91,-37.6,1785098377222.88
0.541,-1.409,0.897,24.08,-88.93,-54.99,1785098377236.0671
0.496,-1.336,0.707,42.36,-112.34,-67.96,1785098377242.057
0.461,-1.224,0.529,63.17,-134.16,-76.11,1785098377252.692
0.416,-1.119,0.334,83.32,-154.21,-79.81,1785098377265.964
0.35,-1.027,0.08,100.28,-171.64,-81.58,1785098377271.892
0.284,-0.943,-0.24,114.57,-184.97,-82.61,1785098377282.868
0.233,-0.859,-0.677,123.84,-191.96,-82.19,1785098377296.088
0.216,-0.728,-1.083,120.98,-188.76,-78.13,1785098377302.062
0.219,-0.658,-1.284,109.87,-180.97,-70.89,1785098377312.917
0.259,-0.749,-1.312,99.58,-168.46,-56.43,1785098377326.4512
0.245,-0.748,-1.421,93.63,-151.25,-64.79,1785098377332.353
0.157,-0.632,-1.653,84.81,-122.29,-62.9,1785098377343.02
0.229,-0.565,-1.863,70.41,-76.42,-31.1,1785098377356.257
0.253,-0.441,-2.039,46.39,-33.39,-10.83,1785098377362.148
0.22,-0.305,-2.016,14.28,3.23,5.86,1785098377372.53
0.196,-0.251,-1.902,-12.12,39.95,18.95,1785098377383.157
0.191,-0.218,-1.76,-36.65,73.15,25.3,1785098377396.405
0.173,-0.194,-1.559,-64.46,99.77,31.65,1785098377402.335
0.173,-0.256,-1.358,-90.98,122.17,42.02,1785098377413.0098
0.164,-0.348,-1.176,-115.39,139.81,51.94,1785098377426.285
0.151,-0.425,-1.008,-136.6,150.4,61.59,1785098377432.206
0.181,-0.527,-0.846,-151.28,155.77,70.89,1785098377443.212
