ax,ay,az,gx,gy,gz,timestamp_ms
0.122,-0.155,-0.971,22.13,-3.6,-5.1,1785100119748.7239
0.125,-0.145,-0.982,21.42,-3.39,-4.33,1785100119749.1682
0.138,-0.131,-0.996,18.13,-2.29,-3.6,1785100119749.618
0.144,-0.12,-1.006,12.82,-0.98,-3.02,1785100119750.0889
0.142,-0.12,-1.012,6.23,-0.27,-2.87,1785100119750.499
0.142,-0.125,-1.01,-0.4,0.31,-2.93,1785100119750.9019
0.141,-0.13,-1.006,-5.31,0.76,-3.14,1785100119751.3333
0.14,-0.133,-0.989,-8.0,1.34,-3.05,1785100119751.742
0.14,-0.133,-0.989,-7.69,1.65,-3.11,1785100119752.148
0.137,-0.133,-0.974,-5.49,1.5,-2.9,1785100119752.586
0.133,-0.133,-0.961,-2.69,0.95,-2.62,1785100119752.9988
0.13,-0.13,-0.956,-0.43,0.49,-2.35,1785100119753.458
0.126,-0.125,-0.951,0.98,0.0,-1.98,1785100119753.9001
0.127,-0.127,-0.96,0.98,0.0,-1.98,1785100119754.2961
0.129,-0.133,-0.976,1.4,-0.15,-1.95,1785100119754.688
0.124,-0.136,-0.99,0.76,-0.4,-2.26,1785100119755.031
0.122,-0.138,-1.004,-0.64,-0.89,-2.41,1785100119755.371
0.123,-0.13,-1.005,-3.2,-1.01,-2.32,1785100119755.72
0.128,-0.119,-0.996,-5.37,-1.13,-1.77,1785100119756.0508
0.131,-0.118,-0.981,-5.46,-1.13,-1.31,1785100119756.416
0.131,-0.117,-0.97,-4.76,-1.53,-1.56,1785100119756.746
0.134,-0.113,-0.967,-4.09,-2.11,-1.71,1785100119757.07
0.138,-0.112,-0.985,-4.0,-2.53,-1.77,1785100119757.3992
0.136,-0.108,-0.996,-4.64,-2.29,-1.95,1785100119757.7378
0.134,-0.106,-1.001,-5.22,-1.83,-1.89,1785100119758.065
0.133,-0.113,-1.002,-6.07,-1.65,-1.68,1785100119758.406
0.133,-0.12,-0.998,-6.71,-1.56,-1.46,1785100119758.7422
0.127,-0.124,-0.99,-6.62,-1.28,-1.1,1785100119759.0752
0.131,-0.115,-0.974,-7.11,-1.25,-0.27,1785100119759.396
0.136,-0.108,-0.971,-7.11,-1.1,0.61,1785100119759.7283
0.136,-0.113,-0.979,-6.23,-0.21,0.58,1785100119760.0708
0.132,-0.115,-0.973,-5.19,0.61,0.4,1785100119760.4229
0.133,-0.116,-0.968,-3.69,0.92,0.49,1785100119760.735
0.138,-0.121,-0.969,-2.23,1.16,1.16,1785100119761.038
0.14,-0.123,-0.967,-1.25,1.04,1.74,1785100119761.345
0.14,-0.123,-0.976,-0.03,1.16,1.53,1785100119761.624
0.136,-0.119,-0.979,0.21,1.59,1.68,1785100119761.913
0.136,-0.112,-0.973,-0.34,1.74,2.5,1785100119762.197
0.134,-0.116,-0.975,-0.7,1.83,2.81,1785100119762.475
0.13,-0.122,-0.976,-1.22,2.08,2.53,1785100119762.763
0.13,-0.12,-0.969,-2.14,2.29,2.62,1785100119763.0488
0.135,-0.118,-0.967,-2.59,2.35,3.17,1785100119763.333
0.137,-0.117,-0.968,-3.08,2.17,3.45,1785100119763.608
0.135,-0.119,-0.973,-3.97,2.38,3.42,1785100119763.8928
0.134,-0.128,-0.974,-4.61,2.41,3.36,1785100119764.1768
0.134,-0.13,-0.978,-4.09,2.17,3.2,1785100119764.4548
0.134,-0.119,-0.974,-4.24,1.62,3.11,1785100119764.737
0.132,-0.117,-0.969,-4.73,1.01,2.81,1785100119765.0198
0.128,-0.123,-0.97,-5.16,0.37,2.44,1785100119765.3
0.129,-0.12,-0.968,-5.58,-0.37,2.08,1785100119765.5837
0.129,-0.121,-0.968,-5.01,-0.79,1.62,1785100119765.867
0.127,-0.121,-0.971,-3.75,-0.92,1.19,1785100119766.156
0.125,-0.122,-0.977,-2.59,-1.04,0.67,1785100119766.4377
0.123,-0.123,-0.983,-1.5,-1.07,0.12,1785100119766.747
0.123,-0.117,-0.986,-0.82,-1.53,-0.43,1785100119767.0432
0.124,-0.113,-0.991,-1.13,-1.83,-0.7,1785100119767.325
0.128,-0.108,-0.995,-2.29,-2.11,-0.85,1785100119767.612
0.131,-0.108,-0.998,-3.27,-2.32,-0.95,1785100119767.911
0.127,-0.106,-0.996,-4.21,-1.98,-1.1,1785100119768.2021
0.122,-0.104,-0.99,-4.67,-1.13,-1.13,1785100119768.5042
0.12,-0.107,-0.983,-4.43,-0.31,-0.7,1785100119768.827
0.125,-0.107,-0.982,-4.33,0.49,-0.21,1785100119769.0881
0.124,-0.105,-0.984,-4.27,1.31,0.52,1785100119769.3381
0.128,-0.108,-0.988,-3.85,2.5,1.28,1785100119769.5999
0.129,-0.113,-0.994,-2.56,3.6,1.8,1785100119769.86
0.126,-0.12,-0.995,-0.49,4.64,2.11,1785100119770.119
0.125,-0.127,-0.994,1.89,5.37,2.08,1785100119770.375
0.128,-0.128,-0.989,3.63,6.38,2.32,1785100119770.632
0.126,-0.124,-0.97,5.07,7.6,2.99,1785100119770.895
0.129,-0.12,-0.956,6.81,8.33,3.54,1785100119771.146
0.137,-0.122,-0.963,8.18,9.25,3.69,1785100119771.445
0.135,-0.118,-0.97,7.93,10.8,3.69,1785100119771.71
0.135,-0.118,-0.972,7.05,12.36,4.21,1785100119771.9878
0.135,-0.123,-0.976,6.47,14.1,4.79,1785100119772.264
0.136,-0.133,-0.961,6.44,15.63,4.94,1785100119772.527
0.135,-0.143,-0.938,7.69,16.14,4.73,1785100119772.792
0.132,-0.148,-0.925,9.98,16.63,4.39,1785100119773.069
0.124,-0.145,-0.904,13.0,17.61,4.94,1785100119773.395
0.115,-0.142,-0.909,17.46,19.53,6.68,1785100119773.687
0.113,-0.144,-0.913,23.1,23.16,8.79,1785100119773.9402
0.111,-0.143,-0.907,29.18,27.59,10.93,1785100119774.21
0.117,-0.142,-0.903,35.92,31.46,13.52,1785100119774.4783
0.122,-0.148,-0.893,42.45,34.67,15.87,1785100119774.7449
0.114,-0.151,-0.878,47.36,36.53,17.52,1785100119775.003
0.107,-0.158,-0.858,50.36,37.08,19.01,1785100119775.268
0.104,-0.176,-0.838,52.19,36.81,20.11,1785100119775.553
0.106,-0.198,-0.834,53.07,36.26,20.63,1785100119775.8223
0.103,-0.202,-0.834,52.16,36.26,21.18,1785100119776.0771
0.103,-0.197,-0.829,50.57,36.19,22.55,1785100119776.338
0.123,-0.199,-0.829,48.89,35.0,24.17,1785100119776.612
0.151,-0.208,-0.841,47.12,32.9,25.09,1785100119776.874
0.167,-0.223,-0.855,45.2,31.01,25.27,1785100119777.122
0.184,-0.242,-0.872,42.82,28.57,24.72,1785100119777.3599
0.212,-0.253,-0.9,39.92,25.82,24.2,1785100119777.6
0.238,-0.263,-0.928,37.08,23.47,23.41,1785100119777.832
0.247,-0.269,-0.962,33.91,21.73,22.16,1785100119778.074
0.244,-0.277,-0.984,30.21,21.18,20.84,1785100119778.317
0.235,-0.282,-0.987,25.97,21.61,20.14,1785100119778.555
0.231,-0.29,-0.97,22.37,22.64,20.66,1785100119778.789
0.243,-0.305,-0.95,20.05,22.77,21.82,1785100119779.0552
0.264,-0.322,-0.944,18.77,21.73,22.37,1785100119779.294
0.271,-0.342,-0.946,18.13,20.69,22.71,1785100119779.5288
0.258,-0.358,-0.955,16.91,20.11,23.04,1785100119779.767
0.239,-0.356,-0.968,15.2,20.57,23.41,1785100119780.0269
0.222,-0.349,-0.975,14.77,22.43,23.99,1785100119780.301
0.209,-0.349,-0.962,16.48,25.15,23.93,1785100119780.537
0.209,-0.354,-0.933,19.81,27.8,23.47,1785100119780.78
0.223,-0.37,-0.902,24.81,29.85,23.59,1785100119781.0417
0.245,-0.384,-0.878,31.25,30.52,23.8,1785100119781.281
0.267,-0.391,-0.88,37.69,30.12,23.93,1785100119781.5151
0.268,-0.401,-0.904,42.54,29.27,24.87,1785100119781.775
0.253,-0.409,-0.915,44.65,29.11,25.33,1785100119782.02
0.239,-0.408,-0.919,44.25,29.66,24.63,1785100119782.256
0.233,-0.389,-0.917,41.9,31.13,24.23,1785100119782.493
0.231,-0.381,-0.902,41.14,33.51,26.25,1785100119782.741
0.232,-0.392,-0.89,43.92,36.23,29.11,1785100119782.9849
0.243,-0.403,-0.863,48.19,38.58,31.95,1785100119783.227
0.271,-0.409,-0.834,53.04,39.83,34.79,1785100119783.473
0.297,-0.412,-0.822,56.73,40.04,37.35,1785100119783.7188
0.308,-0.421,-0.825,58.11,40.31,39.52,1785100119783.9592
0.325,-0.458,-0.831,58.53,41.6,40.56,1785100119784.211
0.307,-0.506,-0.808,60.64,41.93,38.61,1785100119784.4421
0.267,-0.501,-0.762,61.31,39.55,38.09,1785100119784.675
0.254,-0.49,-0.713,60.55,37.14,41.08,1785100119784.899
0.241,-0.492,-0.663,60.37,35.28,44.5,1785100119785.125
0.22,-0.491,-0.618,61.83,32.69,48.01,1785100119785.357
0.203,-0.491,-0.612,65.4,29.69,51.79,1785100119785.583
0.197,-0.487,-0.633,69.31,27.44,55.45,1785100119785.8071
0.199,-0.483,-0.651,72.97,26.58,58.72,1785100119786.039
0.206,-0.482,-0.657,76.05,26.28,61.19,1785100119786.2708
0.214,-0.495,-0.654,78.28,26.0,63.11,1785100119786.491
0.216,-0.518,-0.653,79.62,25.57,65.22,1785100119786.7231
0.225,-0.543,-0.664,79.26,24.38,67.51,1785100119786.952
0.241,-0.563,-0.684,76.36,23.01,69.8,1785100119787.1812
0.254,-0.569,-0.68,71.14,20.51,71.9,1785100119787.4019
0.271,-0.57,-0.675,64.39,16.48,74.65,1785100119787.6292
0.291,-0.573,-0.671,56.98,11.78,77.36,1785100119787.879
0.291,-0.573,-0.671,50.29,6.56,78.62,1785100119788.1
0.308,-0.591,-0.678,44.31,1.13,77.73,1785100119788.322
0.318,-0.614,-0.701,39.16,-4.06,76.02,1785100119788.542
0.327,-0.633,-0.719,36.19,-9.55,73.98,1785100119788.769
0.343,-0.654,-0.733,35.92,-15.32,71.29,1785100119788.995
0.365,-0.666,-0.742,35.92,-15.32,71.29,1785100119789.2249
0.392,-0.667,-0.755,37.45,-21.85,68.58,1785100119789.4841
0.416,-0.673,-0.778,39.31,-28.63,65.0,1785100119789.707
0.432,-0.684,-0.811,39.52,-35.46,59.51,1785100119789.9512
0.436,-0.693,-0.856,36.23,-42.02,52.64,1785100119790.1812
0.429,-0.707,-0.892,29.39,-47.94,45.23,1785100119790.401
0.414,-0.727,-0.921,19.1,-53.56,37.26,1785100119790.611
0.399,-0.74,-0.954,4.64,-57.86,29.3,1785100119790.8262
0.381,-0.757,-0.977,-11.84,-60.06,21.21,1785100119791.046
0.356,-0.769,-0.975,-27.74,-61.1,13.46,1785100119791.2559
0.337,-0.785,-0.965,-39.98,-61.04,7.08,1785100119791.473
0.322,-0.804,-0.949,-47.21,-59.57,1.68,1785100119791.6929
0.301,-0.811,-0.927,-50.94,-57.22,-3.02,1785100119791.907
0.284,-0.807,-0.913,-50.75,-54.14,-6.44,1785100119792.1338
0.273,-0.82,-0.906,-45.35,-49.84,-9.16,1785100119792.365
0.257,-0.817,-0.891,-36.32,-44.83,-12.12,1785100119792.5818
0.244,-0.798,-0.867,-27.22,-40.16,-13.58,1785100119792.791
0.24,-0.782,-0.845,-19.93,-35.4,-13.46,1785100119793.033
0.243,-0.772,-0.834,-13.86,-30.43,-13.12,1785100119793.293
0.249,-0.764,-0.836,-8.03,-24.9,-12.48,1785100119793.546
0.245,-0.741,-0.84,-2.75,-19.26,-11.11,1785100119793.7542
0.243,-0.71,-0.837,0.89,-13.49,-8.94,1785100119793.965
0.244,-0.692,-0.839,2.5,-7.78,-7.08,1785100119794.174
0.239,-0.675,-0.838,1.31,-2.14,-6.16,1785100119794.373
0.236,-0.661,-0.821,-1.92,3.39,-5.1,1785100119794.579
0.237,-0.652,-0.796,-4.91,8.24,-3.14,1785100119794.785
0.23,-0.653,-0.77,-5.74,12.51,-1.65,1785100119794.985
0.225,-0.664,-0.751,-4.27,15.87,-1.1,1785100119795.1902
0.193,-0.694,-0.746,5.52,22.22,-2.53,1785100119795.797
0.187,-0.69,-0.752,7.05,22.98,-3.17,1785100119796.0132
-0.181,-0.679,-0.859,15.53,-1.89,4.49,1785100119796.292
-0.212,-0.596,-0.805,46.6,-2.23,3.6,1785100119796.484
-0.21,-0.506,-0.844,72.24,-1.83,3.51,1785100119796.693
-0.23,-0.473,-0.903,82.22,-1.07,-2.75,1785100119805.676
-0.245,-0.462,-0.973,75.69,0.79,-16.24,1785100119811.363
-0.237,-0.495,-1.006,61.59,4.24,-32.32,1785100119821.748
-0.231,-0.573,-1.03,47.36,7.05,-49.01,1785100119832.291
-0.24,-0.603,-1.03,34.42,9.46,-63.94,1785100119845.553
-0.246,-0.626,-0.988,27.65,11.14,-74.4,1785100119851.2058
-0.285,-0.641,-0.929,25.39,11.17,-84.44,1785100119861.9102
-0.313,-0.617,-0.896,24.17,10.04,-94.24,1785100119875.1611
-0.306,-0.557,-0.902,21.3,9.95,-101.2,1785100119880.9102
-0.283,-0.488,-0.922,13.7,10.93,-105.75,1785100119891.725
-0.257,-0.486,-0.94,1.28,11.69,-110.42,1785100119902.371
-0.231,-0.521,-0.952,-14.8,11.51,-117.4,1785100119915.6868
-0.207,-0.553,-0.953,-28.75,11.23,-123.81,1785100119921.466
-0.2,-0.567,-0.963,-37.42,11.63,-127.6,1785100119932.4429
-0.204,-0.536,-0.944,-42.51,13.12,-128.67,1785100119945.899
-0.204,-0.502,-0.872,-45.05,13.06,-127.6,1785100119951.4912
-0.175,-0.476,-0.845,-47.3,9.46,-126.19,1785100119962.423
-0.102,-0.408,-0.848,-56.46,5.25,-123.45,1785100119975.699
-0.006,-0.357,-0.854,-70.99,1.37,-119.3,1785100119981.7778
0.084,-0.363,-0.869,-88.72,-2.2,-116.73,1785100119992.136
0.125,-0.377,-0.873,-107.03,-6.32,-115.76,1785100120005.427
0.167,-0.359,-0.923,-122.65,-10.74,-113.19,1785100120011.4019
0.212,-0.299,-0.959,-136.66,-11.93,-107.61,1785100120022.4011
0.228,-0.24,-0.995,-149.27,-11.05,-100.59,1785100120035.64
0.211,-0.183,-0.986,-164.4,-10.53,-95.61,1785100120041.7468
0.215,-0.161,-0.935,-180.36,-11.6,-92.56,1785100120052.2603
0.265,-0.155,-0.881,-194.34,-12.7,-90.3,1785100120065.691
0.319,-0.14,-0.834,-204.99,-13.31,-86.83,1785100120071.585
0.352,-0.136,-0.771,-208.23,-15.08,-82.0,1785100120082.3638
0.365,-0.14,-0.743,-201.45,-18.49,-78.34,1785100120095.759
0.369,-0.125,-0.713,-185.46,-21.73,-74.53,1785100120101.53
0.362,-0.094,-0.684,-159.46,-25.45,-69.98,1785100120112.343
0.364,-0.043,-0.694,-126.68,-28.9,-63.78,1785100120125.5522
0.372,0.029,-0.776,-94.06,-30.73,-56.61,1785100120131.663
0.354,0.101,-0.839,-68.54,-30.61,-50.51,1785100120142.0889
0.336,0.17,-0.883,-54.26,-31.13,-44.77,1785100120152.8088
0.337,0.236,-0.89,-51.27,-33.05,-38.18,1785100120166.063
0.357,0.29,-0.892,-54.87,-36.19,-30.58,1785100120171.947
0.389,0.262,-0.914,-56.34,-35.46,-24.6,1785100120182.515
0.375,0.159,-0.903,-51.55,-34.15,-24.23,1785100120195.699
0.356,0.147,-0.953,-49.47,-35.62,-23.83,1785100120201.57
0.371,0.157,-0.918,-45.69,-33.88,-17.52,1785100120212.1448
0.351,0.117,-0.926,-31.62,-34.21,-15.96,1785100120222.744
0.321,0.129,-0.984,-21.55,-33.94,-16.11,1785100120236.012
0.321,0.129,-0.984,-15.78,-34.73,-11.05,1785100120241.931
0.311,0.226,-0.929,-3.81,-34.85,-5.34,1785100120252.3022
0.322,0.215,-0.99,5.07,-33.11,-2.04,1785100120262.732
0.355,0.201,-0.995,15.32,-31.56,-1.19,1785100120275.9722
0.364,0.203,-1.003,26.83,-29.08,0.06,1785100120281.923
0.349,0.167,-0.978,26.83,-29.08,0.06,1785100120292.196
0.329,0.102,-0.947,39.12,-29.39,1.22,1785100120302.7341
0.305,0.081,-0.917,51.94,-30.12,2.9,1785100120316.056
0.288,0.106,-0.927,64.24,-32.04,6.9,1785100120321.956
0.3,0.117,-0.963,75.32,-32.35,11.02,1785100120332.359
0.31,0.132,-1.032,81.06,-30.92,12.94,1785100120345.586
0.317,0.149,-1.091,77.46,-28.81,14.07,1785100120351.794
0.302,0.131,-1.136,66.44,-26.64,12.09,1785100120362.02
0.296,0.108,-1.145,50.75,-24.63,10.35,1785100120373.443
0.3,0.092,-1.126,37.66,-22.4,11.05,1785100120385.954
0.294,0.068,-1.086,31.1,-20.29,12.88,1785100120391.819
0.276,0.033,-1.057,28.96,-19.68,13.52,1785100120402.3599
0.257,0.004,-1.061,27.92,-19.5,12.63,1785100120415.6292
0.243,-0.002,-1.057,27.01,-18.95,11.2,1785100120421.5198
0.25,-0.009,-1.044,28.35,-19.2,10.13,1785100120431.852
0.253,-0.023,-1.073,29.42,-19.07,7.45,1785100120442.616
0.236,-0.023,-1.067,26.43,-18.28,4.82,1785100120455.851
0.215,-0.032,-1.062,22.68,-18.59,2.9,1785100120461.4102
0.189,-0.058,-1.043,19.38,-19.23,1.37,1785100120472.0671
0.169,-0.087,-1.035,19.2,-19.62,0.21,1785100120482.624
0.161,-0.104,-1.034,22.16,-19.71,-0.82,1785100120495.914
0.151,-0.101,-1.051,25.57,-19.68,-2.14,1785100120501.824
0.134,-0.076,-1.08,26.37,-18.22,-3.48,1785100120512.068
0.128,-0.05,-1.096,22.34,-16.3,-4.49,1785100120522.485
0.123,-0.025,-1.114,13.21,-14.13,-6.26,1785100120535.864
0.114,-0.004,-1.12,-0.55,-11.78,-7.63,1785100120541.7322
0.105,-0.013,-1.109,-13.82,-9.52,-8.73,1785100120551.886
0.099,-0.032,-1.082,-23.65,-8.21,-9.34,1785100120562.423
0.095,-0.041,-1.033,-26.22,-6.41,-8.97,1785100120575.614
0.092,-0.059,-0.986,-20.51,-5.07,-8.73,1785100120581.474
0.084,-0.062,-0.966,-12.57,-4.73,-8.45,1785100120591.5442
0.075,-0.059,-0.977,-5.16,-4.49,-8.18,1785100120601.9001
0.076,-0.049,-1.02,1.25,-3.54,-8.97,1785100120612.467
0.08,-0.028,-1.037,6.01,-1.86,-9.98,1785100120622.619
0.074,-0.021,-1.03,9.06,-0.79,-11.02,1785100120636.029
0.069,-0.013,-1.017,9.16,-0.52,-11.96,1785100120641.772
0.068,-0.004,-0.998,6.41,-0.27,-11.63,1785100120651.7551
0.065,-0.016,-0.99,3.6,-0.37,-11.02,1785100120662.064
0.062,-0.028,-0.99,1.25,-0.46,-11.08,1785100120675.589
0.052,-0.023,-0.982,-0.06,-0.73,-10.83,1785100120681.466
0.058,-0.019,-0.995,-0.27,-1.13,-9.77,1785100120691.417
0.063,0.002,-1.005,-1.62,-0.7,-8.88,1785100120701.8672
0.066,0.016,-1.005,-3.78,0.21,-8.51,1785100120712.221
0.065,0.017,-1.002,-6.32,0.76,-8.51,1785100120722.583
0.062,0.019,-0.994,-9.0,0.95,-9.06,1785100120735.8079
0.061,0.009,-0.993,-10.35,1.04,-8.85,1785100120741.51
0.055,-0.011,-0.994,-10.68,0.7,-8.58,1785100120751.698
0.05,-0.02,-0.992,-10.19,0.03,-8.45,1785100120762.129
0.048,-0.014,-0.985,-8.76,-0.43,-8.18,1785100120772.5288
0.05,-0.004,-0.99,-6.93,-1.22,-8.09,1785100120785.855
0.049,0.009,-0.998,-6.1,-1.71,-7.78,1785100120791.3809
0.046,0.013,-0.989,-6.29,-2.04,-7.54,1785100120801.4688
0.042,0.011,-0.977,-7.08,-2.81,-7.48,1785100120811.844
0.041,0.001,-0.975,-7.45,-3.36,-7.35,1785100120822.211
0.034,-0.01,-0.979,-7.66,-3.78,-7.69,1785100120832.609
0.03,-0.007,-0.998,-8.18,-3.88,-7.45,1785100120846.001
0.025,0.003,-1.011,-8.88,-3.78,-7.14,1785100120851.4502
0.026,0.004,-1.014,-9.7,-3.6,-7.2,1785100120861.487
0.019,0.008,-1.005,-11.69,-3.66,-7.14,1785100120871.999
0.021,0.016,-0.986,-13.98,-3.72,-6.53,1785100120882.477
0.02,0.02,-0.966,-14.83,-3.63,-6.32,1785100120895.951
0.018,0.018,-0.956,-14.62,-3.54,-6.47,1785100120901.5369
0.012,0.016,-0.963,-13.61,-3.3,-6.23,1785100120911.614
0.015,0.024,-0.967,-12.39,-3.17,-5.43,1785100120922.132
0.026,0.032,-0.974,-10.59,-3.08,-4.49,1785100120932.601
0.034,0.034,-0.997,-8.91,-2.78,-4.09,1785100120945.961
0.034,0.021,-1.03,-8.42,-1.98,-4.36,1785100120951.66
0.016,0.017,-1.015,-9.37,-1.22,-3.94,1785100120961.465
0.012,0.011,-0.994,-9.37,-0.85,-2.69,1785100120971.8918
0.017,0.02,-0.981,-9.43,-0.73,-1.77,1785100120982.402
0.023,0.039,-0.967,-9.55,-0.67,-0.79,1785100120992.6091
0.034,0.036,-0.969,-9.06,-0.34,0.03,1785100121005.86
0.038,0.036,-0.967,-8.67,-0.34,0.46,1785100121011.5168
0.047,0.022,-0.971,-6.41,0.27,1.16,1785100121021.573
0.043,-0.001,-0.98,-3.57,1.28,0.76,1785100121031.9468
0.028,-0.013,-0.978,-1.98,0.89,0.79,1785100121042.304
0.027,-0.016,-0.981,-1.34,-0.15,1.13,1785100121052.726
0.03,-0.003,-0.977,-0.95,-0.06,1.86,1785100121066.024
0.037,-0.003,-0.986,0.43,0.79,2.26,1785100121071.562
0.041,-0.006,-0.994,1.5,1.83,1.28,1785100121081.6472
0.041,-0.013,-0.986,2.23,2.08,0.06,1785100121091.963
0.043,-0.015,-0.973,3.75,1.92,-0.73,1785100121102.3848
0.045,-0.018,-0.973,6.35,1.92,-1.31,1785100121112.8352
0.05,-0.025,-0.979,8.15,1.46,-2.01,1785100121125.99
0.051,-0.006,-0.98,6.96,0.37,-2.87,1785100121131.701
0.043,0.007,-0.982,4.43,0.55,-3.11,1785100121141.6587
0.033,0.013,-0.979,0.52,1.04,-3.3,1785100121152.079
0.035,0.001,-0.986,-3.27,1.4,-3.23,1785100121162.652
0.037,-0.02,-0.999,-6.26,2.26,-3.23,1785100121175.6921
0.04,-0.006,-1.01,-9.31,3.05,-2.66,1785100121181.506
0.043,0.005,-1.022,-10.35,4.27,-1.83,1785100121191.4702
0.041,-0.002,-1.015,-8.82,5.83,-1.92,1785100121201.871
0.044,-0.009,-0.997,-5.07,6.84,-2.5,1785100121212.273
0.047,-0.012,-0.99,0.09,6.96,-2.81,1785100121222.635
0.06,-0.021,-1.004,4.73,6.26,-3.81,1785100121236.4092
0.064,-0.011,-1.012,5.19,5.31,-5.43,1785100121241.549
0.052,0.02,-1.001,2.14,5.01,-5.13,1785100121251.568
0.049,0.022,-1.015,-0.67,5.65,-4.73,1785100121261.9773
0.053,0.016,-1.015,-4.27,6.81,-5.04,1785100121272.311
0.059,0.006,-1.007,-6.38,7.39,-4.06,1785100121282.687
0.06,-0.002,-1.0,-5.01,7.87,-2.66,1785100121295.9978
0.054,-0.001,-1.012,-2.2,8.58,-2.35,1785100121301.606
0.055,0.003,-1.022,0.09,9.86,-2.72,1785100121311.5972
0.06,-0.01,-1.027,1.92,10.86,-3.57,1785100121322.113
0.065,-0.029,-1.026,3.3,11.32,-5.31,1785100121332.3572
0.061,-0.033,-1.004,4.67,11.26,-7.05,1785100121345.8162
0.058,-0.024,-0.992,6.04,10.28,-7.35,1785100121351.5981
0.058,-0.013,-0.977,6.32,9.16,-7.05,1785100121361.684
0.06,0.0,-0.967,5.28,7.97,-6.29,1785100121371.9978
0.065,0.008,-0.979,3.81,7.45,-5.89,1785100121382.388
0.07,0.009,-0.992,1.68,7.87,-6.44,1785100121395.658
0.072,0.007,-1.007,-0.4,8.48,-7.26,1785100121401.292
0.077,-0.007,-1.022,-0.76,9.49,-7.75,1785100121411.329
0.073,-0.028,-1.03,0.85,10.47,-8.03,1785100121421.8208
0.067,-0.034,-1.027,2.72,11.14,-8.48,1785100121432.2651
0.06,-0.031,-1.021,4.61,11.29,-8.64,1785100121442.7212
0.063,-0.024,-1.026,6.01,11.2,-9.16,1785100121455.953
0.073,-0.017,-1.015,6.2,11.14,-10.13,1785100121461.996
0.077,-0.004,-0.994,6.87,10.86,-10.71,1785100121472.094
0.08,0.007,-0.989,8.33,10.44,-10.28,1785100121482.709
0.078,-0.001,-0.971,10.47,10.65,-9.77,1785100121496.063
0.082,-0.03,-0.985,12.73,10.04,-10.8,1785100121501.954
0.082,-0.028,-0.991,10.93,9.83,-12.09,1785100121512.205
0.09,-0.013,-0.991,8.79,9.58,-11.63,1785100121522.754
0.09,-0.013,-0.991,8.73,10.28,-10.96,1785100121535.794
0.098,-0.016,-1.012,9.06,11.47,-11.78,1785100121541.718
0.095,-0.025,-1.01,11.23,12.45,-13.43,1785100121552.347
0.097,-0.046,-1.03,12.63,13.18,-14.71,1785100121565.7659
0.1,-0.045,-1.021,13.73,12.21,-14.37,1785100121571.465
0.102,-0.029,-1.001,13.73,12.21,-14.37,1785100121582.647
0.11,-0.017,-1.005,14.31,11.41,-13.25,1785100121592.622
0.111,0.003,-0.986,13.28,11.14,-12.51,1785100121605.694
0.115,-0.007,-0.974,14.89,10.53,-11.96,1785100121611.7507
0.116,-0.02,-0.98,16.02,9.8,-12.57,1785100121622.157
0.115,-0.011,-0.958,14.74,8.64,-12.45,1785100121632.792
0.12,-0.005,-0.958,13.82,7.05,-11.47,1785100121646.24
0.122,-0.0,-0.966,12.27,6.59,-10.99,1785100121651.847
0.117,-0.009,-0.965,11.23,6.32,-11.11,1785100121662.2068
0.119,-0.019,-0.991,11.87,6.59,-10.93,1785100121672.742
0.119,-0.007,-0.99,11.99,6.62,-10.04,1785100121685.9697
0.126,-0.013,-0.987,14.62,5.8,-8.73,1785100121691.914
0.127,-0.012,-0.981,16.75,5.4,-8.79,1785100121702.037
0.12,-0.011,-0.957,17.27,4.94,-8.39,1785100121712.638
0.12,-0.022,-0.93,17.58,3.85,-8.03,1785100121725.687
0.125,-0.029,-0.908,17.18,2.17,-8.27,1785100121731.647
0.159,-0.068,-0.991,21.33,3.17,-9.77,1785100121741.418
0.146,0.011,-1.001,19.32,5.43,-6.53,1785100121752.0298
0.138,0.007,-0.974,18.34,4.73,-1.71,1785100121762.6938
0.146,-0.051,-1.028,24.05,5.28,-4.27,1785100121775.828
0.143,-0.066,-1.017,25.21,6.81,-5.98,1785100121781.7832
0.128,-0.075,-1.001,23.93,7.29,-4.73,1785100121791.778
0.132,-0.062,-1.001,20.33,8.09,-2.66,1785100121802.25
0.144,-0.062,-0.968,15.63,8.06,-1.56,1785100121812.8489
0.141,-0.068,-0.962,13.12,7.93,-1.98,1785100121826.8179
0.142,-0.068,-0.945,10.65,7.9,-1.8,1785100121831.942
0.147,-0.069,-0.956,9.7,7.23,-1.04,1785100121841.769
0.153,-0.046,-0.967,7.9,7.54,-0.24,1785100121852.179
0.156,-0.034,-0.955,6.78,7.42,0.49,1785100121862.8118
0.157,-0.048,-0.957,7.6,6.68,0.31,1785100121875.857
0.149,-0.069,-0.949,7.78,5.8,-0.76,1785100121881.542
0.15,-0.095,-0.98,8.61,5.49,-1.28,1785100121891.894
0.143,-0.096,-0.985,7.87,5.95,-1.04,1785100121901.8828
0.146,-0.099,-0.98,7.87,5.46,0.06,1785100121912.404
0.152,-0.113,-0.981,8.45,4.91,0.12,1785100121922.6182
0.148,-0.102,-0.966,7.66,4.46,-0.15,1785100121935.8972
0.156,-0.094,-0.97,7.02,4.7,1.1,1785100121941.529
0.159,-0.091,-0.968,5.34,4.94,1.68,1785100121951.587
0.155,-0.08,-0.966,2.87,4.52,1.71,1785100121961.938
0.158,-0.075,-0.952,1.04,4.55,1.89,1785100121972.3232
0.149,-0.079,-0.928,1.25,3.91,1.65,1785100121982.7322
0.15,-0.084,-0.935,3.78,3.51,1.13,1785100121996.1199
0.141,-0.09,-0.939,5.34,2.93,0.64,1785100122001.597
0.136,-0.103,-0.972,5.92,2.23,1.04,1785100122011.648
0.151,-0.116,-0.999,4.06,2.53,0.95,1785100122021.998
0.161,-0.112,-0.994,1.65,2.81,0.64,1785100122032.481
0.163,-0.116,-1.003,0.09,3.23,0.7,1785100122042.79
0.157,-0.117,-0.985,-2.11,3.48,0.67,1785100122056.0278
0.155,-0.122,-0.966,-1.98,3.3,1.28,1785100122061.6829
0.16,-0.113,-0.962,-0.73,3.42,2.23,1785100122071.733
0.159,-0.096,-0.958,0.76,3.45,3.02,1785100122082.1272
0.158,-0.085,-0.975,1.46,3.66,3.2,1785100122092.489
0.163,-0.086,-0.977,0.12,3.81,2.69,1785100122105.691
0.167,-0.102,-0.98,-1.04,4.0,1.59,1785100122111.329
0.158,-0.116,-0.974,-2.47,3.81,0.46,1785100122121.3801
0.162,-0.131,-0.976,-3.02,3.3,0.67,1785100122131.775
0.171,-0.126,-0.975,-2.41,2.9,0.92,1785100122142.093
0.168,-0.117,-0.96,-0.12,2.41,1.43,1785100122152.554
0.171,-0.115,-0.961,2.93,1.8,2.17,1785100122165.884
0.171,-0.098,-0.954,4.33,1.31,2.41,1785100122171.488
0.179,-0.097,-0.961,4.7,0.85,2.08,1785100122181.483
0.173,-0.099,-0.965,3.2,0.67,1.5,1785100122191.8508
0.167,-0.098,-0.975,0.98,0.52,1.65,1785100122202.241
0.174,-0.098,-0.977,-0.58,0.61,1.92,1785100122212.6418
0.173,-0.1,-0.965,-0.18,0.31,2.11,1785100122225.811
0.177,-0.107,-0.982,0.92,0.0,1.83,1785100122231.4639
0.174,-0.102,-0.993,0.06,0.55,1.68,1785100122241.482
0.176,-0.102,-1.004,-0.52,1.19,1.19,1785100122251.864
0.179,-0.104,-1.001,-1.01,1.65,0.55,1785100122262.2341
0.177,-0.112,-0.986,-1.89,1.25,0.06,1785100122272.635
0.178,-0.113,-0.976,-3.11,0.4,0.18,1785100122285.852
0.179,-0.112,-0.975,-4.0,0.0,0.61,1785100122291.51
0.171,-0.096,-0.987,-4.97,0.27,1.16,1785100122301.562
0.174,-0.081,-1.008,-5.98,0.98,1.59,1785100122311.932
0.175,-0.085,-1.012,-7.05,1.95,1.07,1785100122322.318
0.171,-0.102,-0.993,-8.0,2.78,-0.06,1785100122332.73
0.169,-0.128,-0.96,-6.26,3.2,-0.73,1785100122345.986
0.167,-0.144,-0.944,-1.77,3.05,-0.89,1785100122351.6018
0.167,-0.125,-0.944,2.56,2.04,-0.18,1785100122361.742
0.17,-0.092,-0.967,5.25,0.95,1.31,1785100122372.0022
0.18,-0.071,-1.009,4.24,0.7,1.53,1785100122382.446
0.186,-0.076,-1.029,0.31,1.8,0.67,1785100122392.8562
0.18,-0.096,-1.01,-4.27,2.75,-0.27,1785100122406.029
0.175,-0.113,-0.987,-6.16,2.96,-0.46,1785100122411.684
0.175,-0.112,-0.975,-4.94,3.23,0.18,1785100122421.71
0.172,-0.101,-0.95,-2.47,2.69,1.13,1785100122432.1238
0.174,-0.094,-0.947,0.85,1.53,1.62,1785100122442.531
0.168,-0.075,-0.96,2.96,0.37,1.22,1785100122455.779
0.175,-0.072,-0.968,3.14,-0.52,0.82,1785100122461.481
0.179,-0.091,-0.998,2.32,-0.52,-0.34,1785100122471.6191
0.168,-0.086,-1.011,-1.19,0.31,-1.04,1785100122481.8362
0.171,-0.095,-1.001,-3.88,0.92,-0.09,1785100122492.2292
0.17,-0.106,-0.983,-3.78,0.98,-0.06,1785100122502.584
0.177,-0.114,-0.988,-1.62,1.56,-0.12,1785100122515.848
0.175,-0.114,-0.977,0.4,2.59,0.0,1785100122521.437
0.177,-0.108,-0.975,2.66,3.23,0.24,1785100122531.491
0.172,-0.102,-0.966,3.14,3.33,-0.12,1785100122541.855
0.182,-0.106,-0.956,3.81,3.33,-0.24,1785100122552.28
0.201,-0.121,-0.975,7.11,4.49,-1.5,1785100122562.797
0.184,-0.126,-0.961,8.97,4.33,-3.78,1785100122575.863
0.175,-0.119,-0.974,9.95,3.85,-3.17,1785100122581.584
0.16,-0.084,-0.961,8.7,3.75,-1.43,1785100122591.5488
0.171,-0.06,-0.969,9.55,4.06,0.52,1785100122601.9468
0.184,-0.078,-0.982,11.11,4.91,-0.21,1785100122612.6667
0.165,-0.085,-0.961,8.82,4.7,-1.89,1785100122622.766
0.166,-0.108,-0.943,7.29,4.36,-0.95,1785100122636.064
0.173,-0.111,-0.939,6.99,3.05,-0.73,1785100122641.654
0.179,-0.11,-0.949,7.08,2.41,-0.27,1785100122651.708
0.185,-0.109,-0.961,7.54,2.41,-0.34,1785100122662.184
0.19,-0.13,-0.97,7.11,2.04,-0.95,1785100122672.493
0.177,-0.133,-0.987,2.75,0.76,-1.65,1785100122685.741
0.178,-0.132,-0.984,-1.68,0.67,-0.61,1785100122691.366
0.181,-0.132,-0.988,-2.93,0.58,0.24,1785100122701.473
0.181,-0.102,-0.995,-3.63,0.58,0.37,1785100122711.762
0.182,-0.095,-1.007,-4.58,0.98,0.37,1785100122722.171
0.181,-0.099,-0.98,-6.1,0.98,0.0,1785100122732.5828
0.188,-0.126,-0.968,-4.0,0.7,-0.46,1785100122746.224
0.179,-0.135,-0.964,-0.95,0.82,-0.73,1785100122751.492
0.161,-0.112,-0.958,0.4,0.03,0.76,1785100122761.488
0.185,-0.096,-0.959,3.08,0.09,2.96,1785100122771.959
0.205,-0.121,-0.978,7.2,0.73,1.25,1785100122782.2458
0.191,-0.139,-0.985,6.81,1.16,-1.53,1785100122792.591
0.177,-0.14,-0.971,2.66,0.55,-1.13,1785100122805.896
0.186,-0.126,-0.952,0.43,0.37,0.52,1785100122811.5398
0.186,-0.126,-0.952,0.12,0.31,0.43,1785100122821.518
0.193,-0.115,-0.952,-3.2,-0.46,-0.27,1785100122831.957
0.182,-0.096,-0.939,-10.65,-3.23,0.12,1785100122842.449
0.17,-0.07,-0.928,-20.63,-5.49,1.16,1785100122855.72
0.18,-0.032,-0.984,-20.63,-5.49,1.16,1785100122861.4731
0.182,0.01,-1.022,-33.33,-5.68,2.35,1785100122871.6748
0.201,-0.015,-1.052,-42.18,-4.09,2.32,1785100122882.092
0.202,-0.069,-1.044,-47.46,-1.8,-0.64,1785100122892.5261
0.194,-0.117,-1.009,-45.14,-0.24,-1.77,1785100122905.755
0.182,-0.161,-0.98,-33.14,0.7,-1.25,1785100122911.616
0.171,-0.16,-0.94,-15.44,0.82,0.61,1785100122921.696
0.172,-0.137,-0.934,4.76,0.4,3.57,1785100122932.113
0.179,-0.096,-0.927,20.36,-0.03,5.55,1785100122942.577
0.185,-0.074,-0.954,28.78,0.43,6.5,1785100122955.79
0.183,-0.066,-1.004,29.97,1.92,6.71,1785100122961.638
0.188,-0.074,-1.058,25.51,3.51,5.83,1785100122971.774
0.181,-0.074,-1.077,14.44,5.19,4.52,1785100122982.2312
0.174,-0.07,-1.035,2.66,5.98,4.06,1785100122992.606
0.183,-0.104,-0.98,-1.89,5.8,3.14,1785100123005.853
0.176,-0.128,-0.922,-2.53,3.33,2.08,1785100123011.467
0.179,-0.104,-0.932,-1.31,1.22,3.42,1785100123021.502
0.181,-0.075,-0.935,-0.85,0.06,4.82,1785100123031.9062
0.19,-0.072,-0.956,-0.34,-1.01,4.18,1785100123042.25
0.186,-0.073,-0.987,-2.66,-1.22,2.38,1785100123052.733
0.17,-0.075,-0.964,-6.1,-1.46,1.8,1785100123065.9731
0.176,-0.097,-0.947,-3.91,-1.77,1.98,1785100123071.543
0.182,-0.116,-0.928,1.4,-2.2,1.28,1785100123081.627
0.189,-0.135,-0.949,8.67,-2.56,0.98,1785100123091.9458
0.179,-0.131,-0.948,11.47,-3.11,0.43,1785100123102.507
0.178,-0.128,-0.919,11.23,-5.22,1.53,1785100123115.687
0.193,-0.166,-0.915,12.21,-7.51,2.38,1785100123121.511
0.189,-0.177,-0.935,10.25,-8.18,2.17,1785100123131.6218
0.177,-0.132,-0.98,5.01,-6.26,4.09,1785100123142.005
0.173,-0.063,-1.049,-1.5,-4.3,6.9,1785100123152.3928
0.158,0.059,-1.147,-15.05,-2.2,9.28,1785100123165.8188
0.141,0.147,-1.14,-32.44,1.89,14.01,1785100123171.6638
0.136,0.088,-1.012,-39.77,2.66,14.8,1785100123181.8271
0.172,-0.029,-0.87,-33.69,0.79,9.49,1785100123192.307
0.221,-0.143,-0.825,-18.74,-0.7,2.32,1785100123202.718
0.239,-0.194,-0.829,-9.06,-1.92,-3.23,1785100123216.001
0.209,-0.194,-0.88,-7.29,-4.12,-4.91,1785100123221.5947
0.174,-0.154,-0.915,-9.8,-5.68,-1.53,1785100123231.607
0.17,-0.111,-0.939,-10.16,-7.05,3.23,1785100123242.1018
0.187,-0.083,-0.973,-8.06,-7.6,6.23,1785100123252.4832
0.185,-0.058,-0.986,-6.81,-7.42,7.17,1785100123265.78
0.175,-0.028,-0.977,-6.84,-7.72,9.16,1785100123271.3877
0.169,-0.004,-0.965,-5.71,-9.16,12.05,1785100123281.494
0.164,0.001,-0.945,-2.93,-10.86,13.49,1785100123292.037
0.17,-0.022,-0.914,1.25,-11.87,12.7,1785100123302.689
0.207,-0.066,-0.917,6.44,-11.99,9.16,1785100123315.831
0.223,-0.088,-0.96,6.59,-11.44,3.75,1785100123321.618
0.192,-0.079,-0.988,-0.27,-10.13,1.43,1785100123331.739
0.163,-0.073,-0.991,-7.54,-9.22,3.27,1785100123342.169
0.156,-0.067,-0.994,-12.09,-9.25,5.92,1785100123352.691
0.156,-0.048,-0.982,-13.79,-9.52,8.0,1785100123366.442
0.161,-0.038,-0.976,-13.18,-10.01,10.74,1785100123371.892
0.16,-0.037,-0.996,-14.01,-9.83,12.39,1785100123382.0732
0.147,-0.035,-1.003,-18.65,-9.22,11.78,1785100123392.606
0.146,-0.048,-1.007,-23.99,-9.0,10.53,1785100123405.8462
0.157,-0.075,-1.019,-27.71,-8.39,8.76,1785100123411.819
0.156,-0.083,-1.019,-30.18,-7.2,6.68,1785100123421.843
0.153,-0.084,-1.006,-28.84,-6.1,6.2,1785100123432.3552
0.149,-0.071,-1.0,-24.87,-5.62,6.2,1785100123442.812
0.139,-0.049,-1.002,-21.97,-5.37,6.23,1785100123456.055
0.127,-0.036,-1.003,-20.69,-5.13,5.89,1785100123461.5989
0.121,-0.038,-0.981,-19.56,-5.71,5.49,1785100123472.0151
0.127,-0.058,-0.972,-16.94,-6.35,4.49,1785100123482.501
0.131,-0.076,-0.975,-12.94,-6.2,3.02,1785100123495.832
0.136,-0.076,-0.983,-8.58,-5.89,1.92,1785100123501.464
0.14,-0.052,-0.998,-5.98,-5.68,1.13,1785100123511.481
0.139,-0.021,-1.014,-5.71,-5.77,1.01,1785100123521.846
0.132,0.005,-1.0,-8.0,-6.32,1.19,1785100123532.2922
0.125,0.011,-0.997,-10.41,-7.35,1.68,1785100123542.7031
0.137,0.004,-1.048,-12.88,-5.49,2.11,1785100123555.9758
0.117,-0.029,-1.017,-14.95,-2.53,0.09,1785100123561.846
0.097,-0.056,-0.997,-13.67,-2.69,-3.6,1785100123571.913
0.104,-0.039,-0.98,-10.9,-4.03,-2.41,1785100123582.4321
0.123,-0.03,-0.947,-5.71,-6.68,1.31,1785100123592.777
0.121,-0.027,-0.969,0.31,-8.51,1.07,1785100123605.767
0.115,0.03,-0.937,0.73,-9.09,1.16,1785100123611.641
0.127,0.058,-0.929,0.61,-10.53,3.48,1785100123621.77
0.12,0.095,-0.924,-4.18,-13.0,4.46,1785100123632.271
0.117,0.109,-0.911,-12.82,-16.33,6.65,1785100123642.845
0.154,0.043,-0.981,-18.25,-17.21,7.29,1785100123656.045
0.136,-0.028,-0.99,-13.49,-13.76,6.29,1785100123661.984
0.068,-0.021,-1.062,-0.49,-12.88,7.45,1785100123672.159
0.069,-0.081,-1.033,3.27,-9.8,6.87,1785100123682.515
0.059,-0.102,-1.132,-14.95,-12.05,-10.41,1785100123695.951
0.048,-0.042,-1.038,-39.7,-6.41,-13.31,1785100123701.781
0.096,-0.067,-0.971,-33.72,-6.47,-1.01,1785100123712.095
0.134,0.027,-0.942,-21.55,-7.69,6.78,1785100123722.501
0.123,0.096,-0.965,-9.77,-8.12,8.15,1785100123732.799
0.101,0.112,-0.992,-4.88,-7.72,7.66,1785100123746.1572
0.081,0.082,-1.001,-6.32,-5.28,5.28,1785100123751.6968
0.069,0.019,-0.99,-6.47,-3.11,2.2,1785100123761.7788
0.084,-0.033,-0.988,-1.92,-3.57,0.4,1785100123772.192
0.088,-0.053,-0.985,4.97,-3.6,0.21,1785100123782.55
0.094,-0.051,-1.0,11.84,-3.51,0.55,1785100123795.913
0.093,0.008,-1.002,14.86,-3.33,1.13,1785100123801.636
0.098,0.039,-1.015,16.72,-3.51,2.62,1785100123811.72
0.095,0.038,-1.036,13.34,-3.11,1.4,1785100123822.146
0.091,0.037,-1.035,6.16,-2.93,0.37,1785100123832.603
0.099,0.025,-1.035,1.98,-2.44,0.49,1785100123845.893
0.108,0.016,-1.038,0.64,-1.13,0.06,1785100123851.434
0.112,0.013,-1.041,0.79,0.27,-0.58,1785100123861.4668
0.108,0.004,-1.041,2.08,1.4,-0.58,1785100123871.819
0.1,-0.003,-1.039,3.51,1.83,-1.16,1785100123882.267
0.099,-0.002,-1.03,3.08,1.89,-1.77,1785100123892.652
0.106,0.012,-1.02,2.35,1.86,-0.85,1785100123905.869
0.112,0.016,-1.012,3.81,2.47,0.79,1785100123911.5242
0.106,0.026,-1.009,5.83,2.81,1.68,1785100123921.543
0.104,0.036,-1.006,6.23,3.23,1.56,1785100123931.9292
0.102,0.041,-0.998,4.61,3.02,1.28,1785100123942.28
0.104,0.033,-0.989,2.26,2.38,1.1,1785100123952.711
0.103,0.014,-0.984,0.82,2.11,0.4,1785100123965.9688
0.103,-0.005,-0.987,0.61,1.89,-0.46,1785100123971.592
0.106,-0.008,-0.991,1.8,1.71,-0.73,1785100123981.698
0.103,-0.008,-0.999,4.36,1.62,-0.95,1785100123991.9438
0.098,0.003,-1.002,5.43,1.53,-1.19,1785100124002.409
0.101,0.005,-1.016,4.64,1.56,-0.85,1785100124012.94
0.102,0.013,-1.006,2.35,1.43,0.0,1785100124025.982
0.106,0.018,-1.002,1.07,1.07,0.34,1785100124031.734
0.108,0.015,-0.998,0.4,1.19,-0.09,1785100124041.6619
0.11,0.009,-0.988,0.03,1.53,-0.52,1785100124052.083
0.107,0.005,-0.984,0.34,1.59,-1.19,1785100124062.552
0.107,0.007,-0.983,0.61,1.59,-1.25,1785100124072.827
0.107,0.01,-0.981,0.64,1.43,-0.79,1785100124086.0999
0.107,0.009,-0.988,0.79,1.13,-0.73,1785100124091.688
0.107,0.009,-0.988,0.92,1.1,-0.85,1785100124101.7878
0.105,0.013,-0.987,0.85,1.04,-0.82,1785100124112.311
0.109,0.014,-0.992,0.67,1.31,-0.89,1785100124122.4949
0.109,0.015,-0.992,0.64,1.22,-0.95,1785100124135.754
0.105,0.011,-0.987,0.92,1.07,-0.73,1785100124141.3728
0.104,0.005,-0.991,0.92,1.07,-0.73,1785100124151.49
0.105,-0.002,-0.997,1.25,0.98,-0.27,1785100124161.812
0.103,-0.001,-0.994,1.71,0.85,-0.06,1785100124172.218
0.097,-0.001,-0.991,2.38,0.58,0.12,1785100124182.656
0.101,0.002,-0.995,2.62,0.52,0.76,1785100124195.8599
0.103,0.005,-0.984,3.08,0.58,1.5,1785100124201.456
0.108,0.008,-0.982,4.15,0.49,1.5,1785100124211.4827
0.11,0.011,-0.981,4.58,0.64,1.01,1785100124221.932
0.111,0.01,-0.981,4.46,0.58,1.07,1785100124232.2668
0.11,0.007,-0.983,4.15,0.55,0.76,1785100124242.6628
0.109,0.007,-0.992,3.48,0.34,0.67,1785100124255.898
0.109,0.012,-1.001,2.41,0.27,0.95,1785100124261.624
0.106,0.01,-0.991,1.62,0.34,1.07,1785100124271.5872
0.108,0.0,-0.998,1.53,0.15,0.55,1785100124282.01
0.106,0.004,-0.989,0.92,0.24,0.55,1785100124292.345
0.107,0.008,-0.98,0.98,0.21,1.22,1785100124302.7048
0.11,0.003,-0.982,1.28,0.34,1.56,1785100124315.931
0.108,0.002,-0.977,0.61,0.55,1.8,1785100124321.581
0.107,0.002,-0.974,0.55,0.31,2.14,1785100124331.6128
0.11,0.0,-0.979,1.19,0.21,2.53,1785100124342.0588
0.109,0.001,-0.98,1.77,0.34,2.56,1785100124352.474
0.107,-0.002,-0.984,2.66,0.18,2.47,1785100124362.777
0.108,-0.002,-0.994,3.27,-0.09,2.23,1785100124376.063
0.108,-0.001,-0.993,3.36,0.12,2.17,1785100124381.684
0.105,-0.006,-0.989,3.45,-0.21,2.11,1785100124391.674
0.108,-0.007,-0.999,2.84,-0.55,2.14,1785100124402.1099
0.108,-0.001,-1.002,2.38,-0.15,2.41,1785100124412.482
0.111,-0.003,-1.001,2.11,-0.12,2.5,1785100124425.707
0.11,-0.01,-1.003,1.65,0.03,1.89,1785100124431.365
0.115,-0.012,-1.0,2.38,0.52,2.35,1785100124441.465
0.129,-0.026,-1.008,5.22,0.55,2.75,1785100124451.821
0.133,-0.029,-1.018,7.97,0.46,1.98,1785100124462.036
0.137,-0.015,-1.017,10.25,-0.03,1.71,1785100124472.628
0.153,-0.004,-1.028,12.3,-0.89,1.71,1785100124485.971
0.153,0.014,-1.043,11.69,-1.13,1.37,1785100124491.7388
0.146,0.022,-1.037,9.28,-1.28,1.31,1785100124501.7368
0.141,-0.006,-1.034,8.03,-0.98,0.61,1785100124512.136
0.13,-0.035,-1.033,8.12,-0.61,-1.04,1785100124522.488
0.118,-0.028,-1.03,6.65,-0.76,-1.28,1785100124535.795
0.113,-0.026,-1.038,2.87,0.0,-0.79,1785100124541.378
0.109,-0.025,-1.037,-1.71,1.34,-0.85,1785100124551.498
0.112,-0.014,-1.023,-5.58,1.95,-0.09,1785100124561.813
0.111,-0.017,-1.014,-6.53,2.44,0.79,1785100124572.243
0.108,-0.021,-1.005,-6.32,3.08,0.73,1785100124582.651
0.103,-0.025,-0.993,-5.1,3.75,0.43,1785100124596.0051
0.106,-0.028,-0.979,-2.53,4.43,0.46,1785100124601.481
0.109,-0.03,-0.974,0.49,4.73,0.34,1785100124611.5132
0.106,-0.027,-0.985,3.02,4.73,0.09,1785100124621.891
0.107,-0.024,-0.992,4.24,4.97,0.15,1785100124632.29
0.108,-0.026,-0.995,5.07,5.31,-0.03,1785100124642.6729
0.111,-0.024,-0.991,5.16,5.65,-0.46,1785100124655.924
0.114,-0.018,-0.985,4.49,5.4,-0.31,1785100124661.545
0.116,-0.015,-0.98,3.6,4.97,0.0,1785100124671.555
0.117,-0.011,-0.977,2.84,4.52,0.0,1785100124681.99
0.116,-0.011,-0.976,1.95,4.49,-0.24,1785100124692.3298
0.118,-0.014,-0.977,0.76,4.55,-0.4,1785100124702.7148
0.117,-0.011,-0.97,-0.34,4.7,-0.21,1785100124715.9739
0.114,-0.017,-0.961,-0.03,4.3,0.58,1785100124721.611
0.117,-0.029,-0.967,0.79,3.69,0.37,1785100124731.641
0.117,-0.025,-0.972,0.76,3.45,0.12,1785100124741.9697
