ax,ay,az,gx,gy,gz,timestamp_ms
0.127,-0.075,-0.987,2.08,0.06,-0.12,1785100089479.0918
0.124,-0.073,-0.987,1.31,-0.34,-0.55,1785100089479.6338
0.124,-0.073,-0.987,0.7,-0.92,-0.98,1785100089480.146
0.122,-0.074,-0.986,0.37,-1.28,-1.37,1785100089480.6787
0.122,-0.074,-0.979,0.15,-1.65,-1.62,1785100089481.184
0.12,-0.075,-0.973,-0.06,-2.2,-1.74,1785100089481.698
0.12,-0.072,-0.974,-0.49,-2.41,-2.11,1785100089482.2021
0.119,-0.068,-0.977,-0.49,-2.41,-2.11,1785100089482.7158
0.119,-0.068,-0.979,-0.89,-2.59,-2.44,1785100089483.2158
0.12,-0.071,-0.983,-1.37,-2.84,-2.96,1785100089483.7
0.118,-0.073,-0.981,-1.65,-2.9,-3.69,1785100089484.183
0.116,-0.072,-0.975,-1.37,-3.14,-4.18,1785100089484.6567
0.119,-0.073,-0.979,-0.18,-3.51,-4.21,1785100089485.1147
0.117,-0.072,-0.988,0.73,-3.94,-4.3,1785100089485.497
0.116,-0.064,-0.992,0.18,-4.06,-4.0,1785100089485.882
0.116,-0.059,-0.993,-0.95,-4.24,-3.48,1785100089486.258
0.114,-0.059,-0.996,-1.59,-4.18,-3.45,1785100089486.6409
0.111,-0.058,-0.989,-2.26,-4.12,-3.45,1785100089487.0242
0.113,-0.057,-0.985,-2.11,-4.24,-3.23,1785100089487.4028
0.116,-0.057,-0.986,-1.22,-4.15,-3.3,1785100089487.7878
0.117,-0.057,-0.993,-0.24,-4.12,-3.39,1785100089488.176
0.115,-0.054,-0.996,0.03,-4.0,-3.42,1785100089488.5913
0.115,-0.053,-0.999,0.06,-3.91,-3.14,1785100089488.9688
0.118,-0.053,-1.003,0.03,-3.6,-2.84,1785100089489.356
0.119,-0.059,-1.008,-0.18,-3.23,-2.75,1785100089489.7402
0.116,-0.062,-1.011,-0.49,-2.84,-2.75,1785100089490.1162
0.113,-0.062,-1.008,-1.13,-2.72,-2.41,1785100089490.5012
0.115,-0.065,-1.008,-1.07,-2.66,-2.08,1785100089490.888
0.115,-0.067,-1.007,-1.01,-2.41,-1.68,1785100089491.232
0.113,-0.067,-1.004,-0.64,-1.71,-1.1,1785100089491.559
0.111,-0.068,-1.001,0.12,-1.01,-0.98,1785100089491.8909
0.114,-0.066,-1.003,0.55,-0.79,-0.82,1785100089492.2249
0.116,-0.063,-1.002,0.73,-0.4,-0.92,1785100089492.553
0.116,-0.063,-1.001,0.92,0.34,-0.82,1785100089492.8901
0.115,-0.061,-1.001,1.19,0.7,-1.31,1785100089493.267
0.113,-0.058,-0.996,0.92,1.19,-1.83,1785100089493.6277
0.114,-0.061,-0.988,0.61,1.59,-1.68,1785100089493.955
0.114,-0.065,-0.983,0.98,2.11,-1.43,1785100089494.284
0.113,-0.073,-0.985,1.46,2.56,-1.31,1785100089494.6958
0.112,-0.07,-0.986,1.43,2.87,-1.28,1785100089495.062
0.112,-0.069,-0.981,1.37,2.99,-0.7,1785100089495.393
0.112,-0.069,-0.975,1.4,3.11,-0.18,1785100089495.725
0.113,-0.067,-0.97,1.77,2.87,0.34,1785100089496.0488
0.115,-0.068,-0.973,2.26,2.59,0.21,1785100089496.379
0.114,-0.068,-0.972,2.44,2.84,-0.09,1785100089496.712
0.113,-0.066,-0.97,2.5,2.84,-0.03,1785100089497.0469
0.113,-0.066,-0.967,3.11,2.47,0.49,1785100089497.3682
0.114,-0.068,-0.97,3.6,2.2,0.85,1785100089497.697
0.113,-0.071,-0.975,3.33,1.95,1.1,1785100089498.027
0.112,-0.071,-0.979,2.9,1.65,1.4,1785100089498.3489
0.114,-0.074,-0.981,2.47,1.25,1.8,1785100089498.6738
0.115,-0.075,-0.978,2.23,0.7,1.74,1785100089498.982
0.115,-0.071,-0.978,1.8,0.06,1.62,1785100089499.262
0.118,-0.072,-0.983,1.31,-0.46,1.62,1785100089499.5388
0.119,-0.07,-0.988,1.16,-0.79,1.31,1785100089499.821
0.114,-0.073,-0.993,0.82,-1.13,1.07,1785100089500.1018
0.112,-0.08,-0.995,0.21,-1.16,0.58,1785100089500.376
0.11,-0.082,-0.992,-0.37,-1.28,0.24,1785100089500.658
0.11,-0.082,-0.987,-0.46,-1.37,0.0,1785100089500.941
0.113,-0.081,-0.984,0.43,-1.5,-0.03,1785100089501.223
0.113,-0.076,-0.986,1.04,-1.62,-0.24,1785100089501.502
0.114,-0.073,-0.987,0.98,-1.8,-0.34,1785100089501.7952
0.114,-0.07,-0.99,0.61,-1.86,-0.58,1785100089502.08
0.114,-0.068,-0.987,0.46,-1.65,-0.92,1785100089502.357
0.113,-0.07,-0.986,0.58,-1.59,-1.07,1785100089502.6638
0.111,-0.069,-0.986,0.95,-1.46,-1.19,1785100089502.954
0.108,-0.067,-0.983,1.1,-1.46,-1.13,1785100089503.278
0.107,-0.068,-0.984,1.07,-1.28,-0.82,1785100089503.5571
0.105,-0.071,-0.986,1.07,-1.07,-0.64,1785100089503.844
0.105,-0.07,-0.985,0.98,-0.89,-0.03,1785100089504.148
0.107,-0.076,-0.987,1.31,-0.79,0.46,1785100089504.437
0.108,-0.079,-0.987,1.95,-0.46,0.58,1785100089504.733
0.109,-0.074,-0.987,2.38,-0.43,0.73,1785100089505.0208
0.11,-0.07,-0.986,2.5,-0.37,0.82,1785100089505.305
0.11,-0.067,-0.988,2.38,-0.37,0.67,1785100089505.593
0.11,-0.069,-0.988,2.14,-0.34,0.43,1785100089505.878
0.112,-0.071,-0.987,1.83,-0.21,0.37,1785100089506.171
0.112,-0.073,-0.986,2.26,-0.27,0.49,1785100089506.456
0.113,-0.073,-0.988,3.3,-0.31,0.76,1785100089506.748
0.113,-0.068,-0.992,3.75,-0.24,1.1,1785100089507.0059
0.117,-0.065,-0.993,3.36,-0.18,1.34,1785100089507.251
0.116,-0.066,-0.993,2.69,-0.12,1.53,1785100089507.5068
0.119,-0.072,-0.987,1.89,-0.15,1.59,1785100089507.768
0.119,-0.073,-0.979,1.59,-0.18,1.68,1785100089508.022
0.123,-0.073,-0.975,2.11,-0.4,1.92,1785100089508.274
0.124,-0.075,-0.973,2.78,-0.55,2.08,1785100089508.532
0.125,-0.073,-0.98,3.27,-0.92,2.38,1785100089508.796
0.132,-0.071,-0.982,3.23,-1.16,2.78,1785100089509.0671
0.135,-0.07,-0.984,2.96,-1.31,2.96,1785100089509.325
0.134,-0.074,-0.979,2.38,-1.56,3.14,1785100089509.597
0.13,-0.077,-0.967,1.95,-1.95,3.27,1785100089509.847
0.127,-0.081,-0.957,2.29,-2.32,3.2,1785100089510.1177
0.128,-0.084,-0.954,2.9,-2.93,3.48,1785100089510.3801
0.128,-0.086,-0.952,3.81,-3.3,3.97,1785100089510.633
0.125,-0.085,-0.952,4.79,-3.66,4.61,1785100089510.877
0.122,-0.085,-0.965,5.1,-4.03,5.16,1785100089511.126
0.121,-0.091,-0.981,4.46,-3.91,5.31,1785100089511.38
0.115,-0.098,-0.983,2.53,-3.63,4.79,1785100089511.6292
0.113,-0.105,-0.976,0.76,-3.69,4.49,1785100089511.907
0.113,-0.108,-0.97,0.09,-3.85,4.36,1785100089512.164
0.11,-0.112,-0.968,0.49,-4.12,4.0,1785100089512.413
0.11,-0.112,-0.965,1.65,-4.27,3.63,1785100089512.6663
0.112,-0.108,-0.966,3.45,-4.33,3.48,1785100089512.918
0.11,-0.105,-0.968,5.01,-4.52,3.45,1785100089513.2083
0.11,-0.108,-0.972,5.65,-4.46,3.42,1785100089513.456
0.111,-0.107,-0.979,5.86,-4.49,3.27,1785100089513.721
0.111,-0.105,-0.985,5.25,-4.64,3.23,1785100089513.9739
0.11,-0.105,-0.989,4.33,-4.52,3.14,1785100089514.2468
0.109,-0.108,-0.991,3.57,-4.58,2.99,1785100089514.554
0.103,-0.11,-0.997,3.3,-4.94,2.35,1785100089514.827
0.098,-0.11,-0.994,2.66,-5.19,1.86,1785100089515.0652
0.098,-0.112,-0.989,2.11,-5.31,1.43,1785100089515.316
0.101,-0.115,-0.989,2.2,-5.34,0.98,1785100089515.5608
0.1,-0.112,-0.991,3.3,-5.43,0.52,1785100089515.8013
0.099,-0.11,-0.993,4.82,-5.34,0.21,1785100089516.0342
0.097,-0.109,-1.004,5.65,-5.19,0.06,1785100089516.272
0.095,-0.105,-1.011,5.19,-4.85,-0.12,1785100089516.5142
0.091,-0.101,-1.016,3.91,-4.46,-0.09,1785100089516.741
0.092,-0.102,-1.022,2.78,-3.81,-0.09,1785100089516.979
0.089,-0.106,-1.014,1.83,-2.99,-0.37,1785100089517.214
0.085,-0.104,-1.004,1.62,-2.26,-0.37,1785100089517.455
0.085,-0.103,-0.999,2.66,-1.4,0.06,1785100089517.684
0.087,-0.098,-1.0,3.97,-0.49,0.7,1785100089517.922
0.092,-0.094,-1.002,5.37,0.52,1.46,1785100089518.1638
0.093,-0.099,-1.01,6.53,1.59,1.77,1785100089518.425
0.086,-0.105,-1.021,6.84,2.81,1.83,1785100089518.6592
0.075,-0.108,-1.021,5.92,4.24,2.29,1785100089518.891
0.072,-0.111,-1.011,4.73,5.71,3.08,1785100089519.1191
0.074,-0.112,-1.004,4.73,7.02,3.94,1785100089519.352
0.076,-0.112,-0.995,5.98,8.18,4.7,1785100089519.589
0.079,-0.115,-0.997,7.66,9.22,5.43,1785100089519.8237
0.079,-0.115,-0.997,9.19,10.41,5.92,1785100089520.0542
0.084,-0.114,-1.011,10.19,12.02,6.29,1785100089520.297
0.093,-0.109,-1.027,10.44,13.79,6.32,1785100089520.535
0.099,-0.106,-1.027,10.47,15.11,6.41,1785100089520.76
0.102,-0.104,-1.013,10.47,15.11,6.41,1785100089520.983
0.106,-0.103,-1.005,10.38,16.11,6.44,1785100089521.209
0.11,-0.104,-0.994,9.98,17.06,6.41,1785100089521.429
0.112,-0.106,-0.99,9.98,17.61,6.71,1785100089521.646
0.116,-0.111,-0.993,10.16,18.43,7.69,1785100089521.868
0.11,-0.118,-0.993,10.1,19.41,8.61,1785100089522.0898
0.11,-0.124,-0.991,9.77,20.2,9.37,1785100089522.311
0.113,-0.133,-0.993,8.51,21.15,10.01,1785100089522.5278
0.115,-0.14,-0.985,7.05,22.0,10.35,1785100089522.753
0.116,-0.146,-0.978,5.98,22.49,10.8,1785100089522.982
0.122,-0.152,-0.978,5.28,23.26,11.26,1785100089523.199
0.121,-0.155,-0.97,4.73,24.2,11.69,1785100089523.419
0.115,-0.151,-0.956,4.73,25.15,12.48,1785100089523.645
0.114,-0.148,-0.942,5.4,26.28,13.73,1785100089523.8718
0.111,-0.15,-0.944,5.74,27.56,15.14,1785100089524.087
0.112,-0.169,-0.961,5.8,29.36,15.78,1785100089524.3198
0.114,-0.196,-0.961,5.37,31.8,15.66,1785100089524.549
0.122,-0.214,-0.956,5.46,33.88,15.81,1785100089524.776
0.138,-0.221,-0.957,7.11,35.74,16.94,1785100089525.027
0.149,-0.223,-0.959,10.13,37.54,18.65,1785100089525.259
0.153,-0.231,-0.961,13.0,39.0,20.02,1785100089525.4888
0.157,-0.227,-0.961,14.86,40.5,21.21,1785100089525.7092
0.163,-0.217,-0.951,17.06,42.42,23.35,1785100089525.9368
0.162,-0.223,-0.933,20.72,44.74,25.21,1785100089526.165
0.164,-0.225,-0.906,24.05,46.27,26.46,1785100089526.3848
0.179,-0.225,-0.893,26.55,46.94,27.99,1785100089526.601
0.194,-0.23,-0.892,28.32,47.64,29.51,1785100089526.829
0.205,-0.236,-0.91,29.21,48.52,30.34,1785100089527.075
0.207,-0.242,-0.921,28.93,49.99,30.7,1785100089527.283
0.198,-0.25,-0.909,28.29,50.9,31.16,1785100089527.497
0.198,-0.262,-0.889,27.83,51.06,32.07,1785100089527.709
0.198,-0.272,-0.876,27.22,51.3,33.57,1785100089527.916
0.19,-0.28,-0.87,27.28,51.64,36.01,1785100089528.126
0.186,-0.284,-0.873,29.85,52.8,39.19,1785100089528.337
0.188,-0.299,-0.885,35.34,54.57,43.0,1785100089528.548
0.196,-0.316,-0.901,41.81,56.09,46.36,1785100089528.755
0.219,-0.327,-0.905,47.09,57.62,49.32,1785100089528.9622
0.258,-0.337,-0.854,56.83,57.07,53.71,1785100089529.373
0.265,-0.324,-0.831,63.36,55.79,54.78,1785100089529.602
0.266,-0.316,-0.817,-22.77,-9.86,-2.99,1785100089529.804
-0.027,-0.544,-0.93,-3.81,-9.19,-5.46,1785100089530.002
0.014,-0.513,-0.913,14.28,-8.85,-3.97,1785100089530.2222
-0.021,-0.463,-0.876,26.46,-11.41,-1.59,1785100089530.424
-0.072,-0.402,-0.925,30.18,-13.95,-0.06,1785100089530.778
-0.11,-0.39,-0.982,25.09,-13.58,-1.5,1785100089541.377
-0.154,-0.441,-1.002,13.31,-10.35,-8.51,1785100089551.911
-0.214,-0.551,-0.962,0.98,-5.58,-20.63,1785100089565.19
-0.266,-0.616,-0.916,-7.87,-1.98,-35.89,1785100089570.762
-0.232,-0.606,-0.93,-7.17,1.34,-48.34,1785100089581.114
-0.137,-0.568,-0.962,0.52,5.62,-56.98,1785100089591.6182
-0.11,-0.526,-0.982,5.49,8.18,-65.83,1785100089604.8691
-0.141,-0.501,-0.971,2.9,10.32,-74.25,1785100089610.542
-0.198,-0.506,-0.956,-5.43,10.32,-80.81,1785100089620.9868
-0.23,-0.506,-0.965,-16.42,9.19,-85.36,1785100089631.5251
-0.23,-0.496,-0.957,-26.58,9.61,-88.63,1785100089644.81
-0.209,-0.504,-0.957,-34.24,10.5,-90.43,1785100089650.551
-0.182,-0.506,-0.932,-41.05,10.96,-92.44,1785100089661.227
-0.149,-0.496,-0.899,-44.56,10.8,-94.85,1785100089671.8699
-0.103,-0.461,-0.871,-45.53,10.71,-96.8,1785100089685.125
-0.05,-0.445,-0.826,-44.19,9.55,-97.81,1785100089690.849
-0.027,-0.495,-0.795,-40.53,6.2,-99.64,1785100089701.534
-0.05,-0.562,-0.755,-35.8,1.13,-101.44,1785100089712.228
-0.074,-0.585,-0.741,-28.53,-4.12,-101.02,1785100089725.46
-0.06,-0.551,-0.789,-19.01,-6.53,-97.38,1785100089731.5212
-0.028,-0.429,-0.795,-14.19,-8.24,-91.74,1785100089741.7578
0.044,-0.335,-0.812,-12.48,-11.41,-85.09,1785100089755.168
0.118,-0.323,-0.839,-16.42,-14.5,-82.71,1785100089761.049
0.158,-0.309,-0.85,-31.07,-18.8,-84.38,1785100089771.4639
0.205,-0.29,-0.85,-49.2,-22.68,-83.9,1785100089782.076
0.231,-0.296,-0.862,-65.07,-24.63,-82.52,1785100089795.359
0.215,-0.293,-0.846,-80.17,-25.54,-81.27,1785100089801.322
0.19,-0.279,-0.802,-91.22,-27.07,-77.85,1785100089811.798
0.179,-0.303,-0.783,-93.45,-28.44,-73.12,1785100089825.021
0.188,-0.318,-0.804,-89.57,-28.38,-69.73,1785100089831.216
0.225,-0.284,-0.851,-85.45,-27.74,-66.07,1785100089841.4832
0.283,-0.167,-0.85,-86.79,-27.83,-60.24,1785100089852.114
0.344,-0.031,-0.821,-91.28,-30.67,-53.25,1785100089865.459
0.369,0.054,-0.817,-99.15,-32.99,-45.63,1785100089871.3237
0.381,-0.056,-0.823,-103.24,-31.4,-43.49,1785100089881.961
0.309,-0.174,-0.801,-105.2,-33.42,-51.09,1785100089895.228
0.277,-0.163,-0.768,-101.87,-34.42,-48.89,1785100089900.7822
0.293,-0.236,-0.785,-79.01,-35.04,-44.01,1785100089911.819
0.276,-0.191,-0.885,-58.14,-36.53,-42.76,1785100089925.091
0.307,-0.037,-0.989,-45.01,-35.13,-34.79,1785100089931.197
0.366,0.063,-1.036,-36.19,-33.02,-26.89,1785100089941.505
0.392,0.088,-1.016,-32.96,-32.23,-26.73,1785100089952.179
0.389,0.046,-0.979,-32.07,-33.11,-29.05,1785100089965.525
0.363,-0.008,-0.947,-31.31,-34.18,-30.46,1785100089971.352
0.335,-0.013,-0.904,-26.98,-35.52,-29.42,1785100089981.874
0.333,0.02,-0.889,-18.52,-37.81,-25.61,1785100089995.2952
0.341,0.083,-0.878,-14.1,-40.99,-20.26,1785100090001.1467
0.36,0.128,-0.947,-16.39,-43.92,-15.72,1785100090011.626
0.374,0.156,-1.057,-27.07,-42.57,-14.25,1785100090022.2202
0.368,0.16,-1.104,-41.11,-39.64,-13.21,1785100090035.5132
0.36,0.137,-1.09,-50.2,-38.36,-11.08,1785100090041.3708
0.349,0.064,-1.05,-48.19,-38.27,-10.07,1785100090051.939
0.323,0.019,-1.048,-37.39,-38.39,-10.86,1785100090065.407
0.316,0.058,-1.038,-22.89,-37.66,-7.81,1785100090071.125
0.315,0.084,-1.038,-5.55,-37.23,-2.81,1785100090081.3608
0.3,0.097,-1.07,6.01,-36.56,-0.55,1785100090091.7703
0.285,0.127,-1.087,8.55,-35.4,1.46,1785100090105.063
0.288,0.145,-1.103,7.81,-33.69,5.01,1785100090110.963
0.277,0.148,-1.115,6.07,-31.31,8.03,1785100090121.008
0.257,0.133,-1.118,3.02,-28.96,9.7,1785100090131.5059
0.239,0.117,-1.108,-0.43,-26.55,10.62,1785100090141.98
0.225,0.096,-1.115,-1.19,-23.74,11.72,1785100090155.279
0.205,0.065,-1.129,0.58,-19.81,12.94,1785100090161.175
0.169,0.031,-1.106,4.24,-15.75,14.13,1785100090171.488
0.149,-0.006,-1.071,10.35,-13.18,15.69,1785100090182.147
0.143,-0.027,-1.064,17.33,-11.32,17.12,1785100090195.385
0.14,-0.033,-1.05,25.36,-8.97,18.16,1785100090201.248
0.135,-0.048,-1.052,34.18,-7.48,18.25,1785100090211.6091
0.118,-0.03,-1.047,39.22,-6.87,17.88,1785100090222.162
0.113,-0.01,-1.055,41.02,-6.16,17.79,1785100090235.444
0.107,-0.034,-1.075,40.35,-4.67,15.5,1785100090241.375
0.094,-0.069,-1.097,36.07,-2.81,11.11,1785100090251.662
0.087,-0.088,-1.099,30.06,-0.64,7.72,1785100090262.093
0.086,-0.094,-1.096,25.54,1.34,5.43,1785100090275.306
0.089,-0.096,-1.106,22.71,3.02,3.36,1785100090281.1738
0.086,-0.099,-1.112,19.53,4.49,1.59,1785100090291.2449
0.077,-0.089,-1.109,14.53,5.86,0.55,1785100090301.7322
0.071,-0.082,-1.086,8.88,7.11,-0.09,1785100090312.121
0.065,-0.079,-1.06,3.08,7.54,-0.73,1785100090325.33
0.061,-0.061,-1.029,-2.81,7.14,-1.01,1785100090330.9922
0.055,-0.049,-1.007,-6.99,6.44,-1.28,1785100090341.023
0.051,-0.05,-0.991,-8.88,5.95,-2.29,1785100090351.39
0.036,-0.062,-0.964,-8.73,5.16,-4.0,1785100090361.8613
0.025,-0.082,-0.96,-6.53,4.03,-6.01,1785100090372.245
0.021,-0.089,-0.972,-4.09,3.39,-7.69,1785100090385.481
0.024,-0.091,-0.987,-2.35,3.08,-8.73,1785100090391.353
0.025,-0.082,-0.995,-1.5,2.62,-9.8,1785100090401.117
0.022,-0.071,-0.998,-2.11,1.89,-10.74,1785100090411.606
0.023,-0.06,-0.983,-4.36,1.07,-10.9,1785100090422.046
0.032,-0.054,-0.973,-6.78,0.37,-10.71,1785100090435.085
0.038,-0.056,-0.969,-9.0,0.58,-10.8,1785100090441.1033
0.039,-0.064,-0.968,-10.77,0.76,-11.11,1785100090451.289
0.037,-0.068,-0.961,-11.75,0.58,-11.05,1785100090461.865
0.037,-0.067,-0.949,-11.08,-0.49,-10.44,1785100090475.1282
0.043,-0.061,-0.947,-8.88,-1.34,-10.07,1785100090481.185
0.044,-0.056,-0.954,-6.47,-1.71,-9.92,1785100090491.221
0.042,-0.057,-0.961,-5.13,-1.8,-10.01,1785100090501.556
0.04,-0.051,-0.965,-5.34,-2.2,-9.98,1785100090511.9
0.044,-0.047,-0.968,-6.35,-2.87,-9.67,1785100090525.186
0.043,-0.05,-0.98,-7.75,-3.11,-10.28,1785100090531.242
0.041,-0.041,-0.978,-9.43,-2.84,-10.59,1785100090541.038
0.042,-0.042,-0.981,-9.83,-2.93,-10.04,1785100090551.511
0.05,-0.05,-0.996,-8.94,-2.75,-9.8,1785100090561.839
0.048,-0.055,-0.99,-8.09,-3.02,-9.64,1785100090575.1228
0.043,-0.058,-0.982,-7.23,-3.75,-9.09,1785100090580.9438
0.044,-0.054,-0.98,-6.68,-4.03,-8.45,1785100090590.755
0.041,-0.042,-0.984,-6.44,-4.09,-7.69,1785100090601.205
0.042,-0.03,-0.987,-6.16,-3.88,-6.68,1785100090611.63
0.05,-0.025,-0.995,-5.77,-3.42,-6.26,1785100090621.933
0.051,-0.025,-0.997,-5.62,-3.45,-6.04,1785100090635.172
0.052,-0.037,-1.006,-5.46,-3.36,-6.04,1785100090640.5188
0.046,-0.049,-1.014,-5.62,-2.69,-6.53,1785100090650.884
0.046,-0.049,-1.014,-5.49,-1.95,-6.78,1785100090661.216
0.04,-0.056,-1.019,-4.39,-1.46,-5.46,1785100090671.694
0.041,-0.056,-1.003,-1.01,-1.19,-3.91,1785100090682.097
0.047,-0.059,-0.995,2.17,-1.19,-2.78,1785100090695.2698
0.05,-0.052,-0.996,4.12,-1.1,-2.2,1785100090701.001
0.054,-0.044,-1.001,4.12,-1.1,-2.2,1785100090710.905
0.054,-0.041,-1.01,4.97,-0.79,-1.77,1785100090721.3162
0.06,-0.036,-1.025,4.85,-0.27,-0.98,1785100090731.678
0.057,-0.045,-1.032,4.79,0.85,-0.89,1785100090742.05
0.046,-0.054,-1.03,4.43,1.46,-1.59,1785100090755.31
0.043,-0.056,-1.02,3.33,1.68,-0.98,1785100090760.98
0.051,-0.061,-1.011,2.41,2.04,-0.31,1785100090771.002
0.049,-0.058,-1.0,1.1,1.86,-0.37,1785100090781.407
0.045,-0.053,-1.004,-0.52,1.28,-0.34,1785100090791.773
0.047,-0.049,-1.003,-2.38,1.56,-0.24,1785100090802.1902
0.04,-0.062,-0.999,-2.99,1.86,-0.4,1785100090815.458
0.033,-0.08,-1.012,-2.96,2.14,-1.16,1785100090821.0618
0.031,-0.083,-1.013,-2.96,2.62,-1.68,1785100090831.126
0.035,-0.087,-1.017,-0.76,4.24,-1.46,1785100090841.418
0.038,-0.096,-1.023,3.36,5.65,-0.89,1785100090851.869
0.037,-0.091,-1.038,7.66,6.99,-0.92,1785100090862.2388
0.032,-0.072,-1.044,9.8,8.76,-0.58,1785100090875.4402
0.032,-0.071,-1.04,10.16,10.71,-0.37,1785100090881.4258
0.036,-0.075,-1.076,8.39,11.84,-2.01,1785100090891.415
0.047,-0.068,-1.075,3.6,15.38,-4.76,1785100090901.893
0.048,-0.116,-1.088,1.68,18.83,-7.02,1785100090915.162
0.029,-0.143,-1.057,-1.28,19.68,-8.94,1785100090920.9568
0.037,-0.141,-1.034,-3.88,19.38,-10.13,1785100090931.267
0.046,-0.146,-1.014,-2.14,17.67,-10.9,1785100090941.73
0.073,-0.127,-0.999,0.34,15.59,-10.96,1785100090952.3062
0.085,-0.11,-0.979,3.66,14.77,-12.39,1785100090965.583
0.068,-0.07,-0.97,6.07,13.55,-12.76,1785100090971.4292
0.061,-0.028,-0.958,7.2,12.24,-9.92,1785100090981.667
0.075,-0.059,-0.979,9.83,11.32,-8.51,1785100090992.094
0.076,-0.079,-0.997,7.05,10.74,-12.7,1785100091005.346
0.067,-0.081,-0.992,1.13,11.17,-16.08,1785100091011.3
0.073,-0.105,-0.99,-1.83,11.35,-16.42,1785100091021.538
0.079,-0.113,-0.97,-2.9,10.86,-16.69,1785100091032.117
0.08,-0.12,-0.964,-1.37,9.64,-17.46,1785100091045.357
0.086,-0.129,-0.974,1.5,9.16,-18.4,1785100091051.2012
0.074,-0.094,-0.974,2.93,8.27,-18.68,1785100091061.2622
0.086,-0.058,-0.981,5.16,7.51,-17.3,1785100091071.772
0.104,-0.058,-0.984,8.45,7.14,-17.03,1785100091082.2048
0.109,-0.064,-0.99,10.68,6.78,-18.28,1785100091095.4968
0.098,-0.072,-0.977,13.79,6.44,-18.37,1785100091101.3582
0.091,-0.085,-0.991,19.38,6.38,-17.06,1785100091111.652
0.087,-0.068,-1.014,21.97,6.59,-16.39,1785100091122.179
0.107,-0.041,-1.042,19.1,7.81,-14.59,1785100091135.505
0.111,-0.051,-1.024,13.67,9.37,-14.19,1785100091141.428
0.094,-0.079,-0.979,7.81,8.39,-16.27,1785100091151.529
0.086,-0.095,-0.975,3.48,8.27,-17.79,1785100091161.8948
0.101,-0.083,-0.942,0.12,8.85,-16.6,1785100091175.3088
0.116,-0.072,-0.929,1.89,8.06,-14.5,1785100091181.063
0.121,-0.074,-0.954,6.81,7.87,-13.21,1785100091191.0059
0.112,-0.065,-0.999,11.63,8.33,-13.12,1785100091201.5159
0.106,-0.027,-0.999,12.57,9.61,-12.33,1785100091215.074
0.115,-0.033,-0.962,14.95,9.67,-11.32,1785100091221.004
0.125,-0.069,-0.973,19.1,8.82,-12.48,1785100091231.279
0.119,-0.074,-0.972,16.85,8.33,-12.82,1785100091241.782
0.126,-0.069,-0.987,11.66,9.7,-10.99,1785100091255.038
0.134,-0.069,-0.983,7.69,10.59,-9.03,1785100091261.054
0.132,-0.078,-0.99,7.51,10.86,-8.76,1785100091271.041
0.134,-0.084,-0.992,7.23,11.38,-8.91,1785100091281.5518
0.13,-0.09,-0.966,6.35,11.17,-8.55,1785100091292.016
0.129,-0.096,-0.967,5.83,10.62,-7.9,1785100091305.229
0.13,-0.092,-0.966,4.15,10.56,-7.63,1785100091311.083
0.128,-0.078,-0.974,3.05,10.07,-7.02,1785100091321.1619
0.142,-0.067,-0.984,2.14,10.07,-6.23,1785100091331.626
0.15,-0.065,-1.01,2.01,10.47,-6.2,1785100091342.148
0.152,-0.059,-1.016,0.61,11.66,-6.23,1785100091355.377
0.149,-0.08,-0.971,-1.13,12.3,-5.55,1785100091361.196
0.152,-0.105,-0.952,-0.15,12.18,-4.12,1785100091371.3223
0.15,-0.101,-0.94,1.22,11.47,-2.23,1785100091381.772
0.147,-0.086,-0.952,2.84,10.44,-0.58,1785100091392.2031
0.158,-0.063,-0.969,3.05,10.47,0.06,1785100091405.452
0.159,-0.06,-0.957,2.44,10.44,-0.43,1785100091411.3027
0.163,-0.078,-0.947,2.08,9.95,-1.71,1785100091421.294
0.147,-0.091,-0.936,1.13,8.85,-2.93,1785100091431.7231
0.149,-0.099,-0.926,1.62,7.75,-3.72,1785100091442.0637
0.169,-0.133,-0.936,4.82,7.05,-2.75,1785100091455.3289
0.167,-0.107,-0.939,6.84,5.89,-1.1,1785100091460.985
0.174,-0.096,-0.98,8.88,6.68,0.06,1785100091471.055
0.169,-0.09,-0.965,6.47,7.9,1.95,1785100091481.461
0.175,-0.102,-0.959,4.52,6.9,3.57,1785100091491.752
0.177,-0.11,-0.95,4.64,6.5,3.05,1785100091502.1948
0.169,-0.109,-0.933,5.71,6.01,2.08,1785100091515.484
0.174,-0.11,-0.927,6.41,5.22,1.8,1785100091521.039
0.172,-0.122,-0.919,6.26,4.12,1.62,1785100091531.085
0.175,-0.125,-0.94,5.86,3.42,1.13,1785100091541.457
0.179,-0.123,-0.95,4.85,3.08,0.64,1785100091551.868
0.178,-0.129,-0.929,4.06,2.11,0.61,1785100091562.253
0.185,-0.145,-0.944,5.62,1.19,1.1,1785100091575.4348
0.184,-0.135,-0.96,6.07,1.1,1.68,1785100091581.423
0.187,-0.124,-0.964,5.95,0.89,2.17,1785100091591.176
0.184,-0.113,-0.975,6.1,0.58,1.8,1785100091601.5269
0.184,-0.108,-0.999,4.36,0.79,1.56,1785100091611.9822
0.184,-0.122,-0.987,1.56,1.86,1.22,1785100091625.128
0.18,-0.143,-0.961,0.82,2.5,0.73,1785100091630.9177
0.184,-0.153,-0.976,2.84,2.38,0.64,1785100091640.795
0.18,-0.135,-0.987,2.69,2.69,0.92,1785100091651.211
0.183,-0.125,-0.983,0.98,3.08,1.77,1785100091661.5833
0.188,-0.113,-0.972,-0.7,3.17,2.04,1785100091671.958
0.191,-0.124,-0.946,0.0,3.08,1.83,1785100091685.208
0.188,-0.123,-0.953,2.32,2.96,0.89,1785100091690.847
0.184,-0.097,-0.946,2.26,2.62,1.19,1785100091700.9202
0.197,-0.112,-0.972,3.45,2.44,1.53,1785100091711.285
0.19,-0.132,-0.963,3.72,2.78,0.64,1785100091721.678
0.182,-0.141,-0.948,4.18,2.08,0.52,1785100091732.055
0.187,-0.135,-0.961,5.16,1.62,1.34,1785100091745.2952
0.197,-0.146,-0.997,6.13,2.41,1.37,1785100091750.926
0.178,-0.137,-0.991,3.02,2.59,0.85,1785100091760.9602
0.181,-0.118,-0.991,-0.64,2.41,2.11,1785100091771.3389
0.189,-0.114,-0.991,-2.81,2.59,2.78,1785100091781.7668
0.187,-0.119,-0.953,-4.15,2.32,2.47,1785100091792.2183
0.189,-0.146,-0.937,-1.43,1.89,1.83,1785100091805.3848
0.187,-0.148,-0.957,1.65,1.62,0.95,1785100091811.0708
0.186,-0.131,-0.967,1.22,1.8,1.16,1785100091821.066
0.195,-0.142,-0.993,0.37,2.08,1.07,1785100091831.4932
0.188,-0.127,-1.0,-2.56,2.44,0.31,1785100091841.804
0.186,-0.127,-0.985,-4.06,3.36,0.76,1785100091852.2073
0.186,-0.155,-0.937,-2.38,3.11,0.12,1785100091865.545
0.188,-0.178,-0.969,1.22,1.89,-0.76,1785100091871.115
0.182,-0.14,-0.995,0.67,1.92,-0.03,1785100091881.2092
0.187,-0.112,-0.996,-0.7,2.41,1.04,1785100091891.6301
0.194,-0.12,-0.961,-1.5,3.36,0.43,1785100091901.711
0.191,-0.15,-0.921,-0.55,2.26,-0.55,1785100091912.306
0.186,-0.148,-0.918,0.92,0.4,-0.61,1785100091925.502
0.191,-0.116,-0.92,1.31,-0.52,0.46,1785100091931.146
0.211,-0.118,-0.956,1.95,-0.67,0.06,1785100091941.205
0.211,-0.118,-0.956,-2.35,-0.37,-1.86,1785100091951.678
0.197,-0.108,-0.978,-7.29,-0.46,-1.01,1785100091961.8472
0.185,-0.101,-0.985,-6.13,0.98,-1.25,1785100091975.1948
0.205,-0.17,-1.008,-5.65,1.04,-2.93,1785100091980.9438
0.188,-0.188,-0.982,-5.65,1.04,-2.93,1785100091990.8591
0.183,-0.171,-0.97,-2.9,0.52,-0.79,1785100092001.3308
0.183,-0.149,-0.957,1.1,0.15,0.67,1785100092011.659
0.196,-0.123,-0.935,3.69,-0.46,1.37,1785100092022.047
0.214,-0.12,-0.96,5.55,-0.34,0.34,1785100092035.33
0.2,-0.117,-0.944,2.56,-0.95,-2.01,1785100092040.947
0.203,-0.113,-0.955,-0.15,-1.77,-2.81,1785100092050.942
0.197,-0.086,-0.953,-3.14,-1.4,-3.3,1785100092061.306
0.194,-0.077,-0.939,-3.63,-1.62,-2.87,1785100092071.685
0.198,-0.113,-0.99,-1.1,-0.95,-3.27,1785100092082.1619
0.182,-0.112,-0.991,-3.23,-0.79,-3.81,1785100092095.34
0.186,-0.116,-0.978,-4.61,-1.77,-2.04,1785100092100.9888
0.2,-0.133,-0.984,-4.15,-1.92,-1.53,1785100092110.985
0.207,-0.134,-1.006,-6.04,-0.89,-1.98,1785100092121.372
0.207,-0.131,-1.005,-11.11,0.49,-2.08,1785100092131.876
0.208,-0.131,-0.977,-15.17,1.04,-1.8,1785100092145.111
0.209,-0.131,-0.964,-16.72,0.34,-1.68,1785100092150.998
0.203,-0.12,-0.944,-18.56,-0.85,-0.61,1785100092161.057
0.2,-0.104,-0.936,-18.74,-1.25,0.7,1785100092171.6191
0.212,-0.094,-0.972,-19.04,0.4,0.21,1785100092182.026
0.197,-0.056,-1.002,-25.42,2.08,-2.14,1785100092195.2908
0.189,-0.031,-1.04,-37.69,2.11,-3.23,1785100092201.09
0.192,-0.018,-1.044,-54.93,1.62,-3.36,1785100092211.188
0.19,-0.005,-1.02,-72.94,-0.46,-3.33,1785100092221.668
0.19,0.018,-0.954,-86.09,-2.38,-1.8,1785100092232.0872
0.191,-0.013,-0.858,-86.21,-4.64,0.27,1785100092245.5151
0.192,-0.078,-0.765,-71.96,-7.6,0.55,1785100092251.188
0.197,-0.162,-0.696,-45.96,-11.02,0.79,1785100092261.407
0.192,-0.191,-0.765,-16.27,-15.2,0.61,1785100092271.977
0.169,-0.071,-0.873,2.2,-17.55,3.17,1785100092285.159
0.171,0.046,-0.97,9.95,-18.56,8.79,1785100092290.98
0.177,0.131,-1.055,7.69,-17.58,11.57,1785100092301.2522
0.183,0.125,-1.095,1.68,-15.5,11.11,1785100092311.785
0.171,0.066,-1.096,-8.27,-13.79,7.9,1785100092322.2231
0.156,0.024,-1.068,-20.78,-11.44,5.8,1785100092335.49
0.148,0.013,-1.007,-30.03,-10.1,6.68,1785100092341.397
0.164,-0.014,-0.922,-30.3,-10.13,9.13,1785100092351.704
0.183,-0.092,-0.884,-20.42,-11.11,8.67,1785100092362.3062
0.172,-0.128,-0.862,-9.0,-13.03,6.01,1785100092375.484
0.152,-0.102,-0.886,1.59,-15.08,6.23,1785100092381.3398
0.142,-0.027,-0.942,8.7,-15.81,10.32,1785100092391.4922
0.155,0.017,-1.001,14.47,-15.17,14.19,1785100092402.144
0.155,0.039,-1.05,16.3,-13.37,13.18,1785100092415.426
0.154,0.048,-1.079,14.04,-10.07,11.41,1785100092421.3218
0.154,0.015,-1.089,8.82,-6.74,10.93,1785100092431.694
0.145,-0.021,-1.053,2.01,-4.97,10.74,1785100092442.1538
0.151,-0.075,-1.012,0.34,-4.15,9.86,1785100092455.378
0.152,-0.119,-0.953,1.56,-4.97,7.32,1785100092461.035
0.138,-0.121,-0.907,4.85,-7.02,5.68,1785100092471.101
0.127,-0.096,-0.91,9.0,-9.37,6.5,1785100092481.4668
0.126,-0.022,-0.934,8.73,-12.48,8.64,1785100092491.949
0.133,0.052,-0.942,5.43,-14.92,11.84,1785100092505.2349
0.142,0.046,-0.974,1.37,-15.32,12.09,1785100092511.174
0.144,0.011,-1.009,-7.32,-13.92,6.56,1785100092521.2932
0.14,0.001,-1.008,-18.4,-12.24,1.83,1785100092531.92
0.131,-0.016,-1.012,-25.82,-11.11,1.37,1785100092545.107
0.126,-0.019,-1.004,-27.77,-10.5,3.6,1785100092551.025
0.131,-0.021,-1.012,-21.64,-9.8,6.29,1785100092561.156
0.125,-0.03,-1.015,-11.78,-7.69,6.87,1785100092571.7112
0.111,-0.054,-0.963,-3.51,-6.65,4.79,1785100092582.05
0.096,-0.075,-0.936,1.1,-9.46,1.83,1785100092595.27
0.102,-0.057,-0.922,1.5,-13.31,1.95,1785100092601.0251
0.125,-0.028,-0.928,2.44,-16.17,5.07,1785100092611.1182
0.134,0.009,-0.967,3.27,-16.17,6.87,1785100092621.598
0.132,0.046,-0.987,0.92,-15.23,7.87,1785100092632.097
0.113,0.052,-1.005,-2.66,-14.95,8.03,1785100092645.3801
0.105,0.024,-1.026,-6.35,-14.34,7.26,1785100092651.1582
0.104,0.006,-1.017,-10.99,-14.07,5.28,1785100092661.376
0.097,0.004,-0.986,-13.09,-14.19,3.91,1785100092671.938
0.086,-0.014,-0.985,-11.05,-13.7,2.35,1785100092685.189
0.075,-0.027,-0.964,-10.01,-14.22,0.76,1785100092691.057
0.07,-0.021,-0.968,-11.9,-17.21,0.0,1785100092701.3572
0.078,-0.001,-0.97,-17.67,-20.02,0.18,1785100092711.937
0.08,0.029,-0.978,-23.74,-22.1,0.34,1785100092725.139
0.073,0.044,-1.001,-27.38,-23.22,0.0,1785100092731.224
0.062,0.037,-1.012,-30.09,-24.05,-0.4,1785100092741.353
0.056,0.029,-1.017,-32.04,-25.57,0.61,1785100092751.968
0.057,0.047,-1.008,-31.77,-26.31,0.58,1785100092765.3171
0.041,0.043,-1.015,-29.21,-26.31,-2.5,1785100092771.1301
0.017,-0.006,-1.015,-28.29,-24.32,-5.46,1785100092781.416
0.011,-0.04,-0.991,-25.82,-23.87,-6.47,1785100092791.963
0.021,-0.019,-0.982,-16.24,-24.26,-5.25,1785100092805.186
0.042,0.005,-1.014,-1.28,-23.56,-2.62,1785100092811.1738
0.036,0.055,-1.061,7.2,-21.24,-2.44,1785100092821.222
0.017,0.11,-1.075,5.1,-17.7,-2.56,1785100092831.683
0.01,0.09,-1.09,-1.59,-14.68,-3.85,1785100092843.864
0.007,0.077,-1.07,-9.92,-12.57,-5.83,1785100092855.4348
0.008,0.088,-1.044,-16.91,-12.33,-3.91,1785100092861.6052
0.017,0.092,-1.051,-22.61,-11.02,-1.59,1785100092871.5261
0.005,0.075,-1.022,-27.1,-9.28,-2.01,1785100092881.976
-0.01,0.037,-0.992,-26.86,-7.42,-3.33,1785100092895.2188
-0.003,0.027,-0.98,-22.28,-6.41,-3.6,1785100092901.059
0.01,0.06,-0.977,-15.59,-6.9,-2.66,1785100092911.1528
0.018,0.099,-0.992,-10.35,-7.9,-1.31,1785100092921.609
0.018,0.125,-1.006,-8.48,-7.81,-0.55,1785100092931.9858
0.017,0.107,-1.019,-8.21,-6.01,-1.5,1785100092945.208
0.003,0.077,-1.026,-7.78,-4.39,-3.33,1785100092950.8748
0.002,0.072,-1.023,-5.07,-3.69,-3.14,1785100092960.896
0.008,0.081,-1.006,-1.56,-3.69,-1.43,1785100092971.277
0.01,0.11,-0.997,-1.56,-3.85,-0.52,1785100092981.686
0.014,0.141,-0.976,-5.65,-3.72,0.4,1785100092992.032
0.022,0.132,-0.989,-9.92,-3.02,0.58,1785100093005.2742
0.013,0.111,-0.994,-13.61,-2.72,-0.49,1785100093011.105
0.011,0.064,-1.022,-12.7,-2.9,-1.31,1785100093021.144
-0.002,0.055,-1.029,-8.76,-2.84,-1.77,1785100093031.5662
0.003,0.056,-1.01,-0.92,-2.62,-0.31,1785100093041.866
0.015,0.067,-0.996,7.42,-1.83,-0.06,1785100093052.329
0.016,0.114,-0.977,10.68,-2.08,0.31,1785100093065.711
0.027,0.129,-0.989,10.04,-2.41,1.28,1785100093071.3743
0.024,0.113,-1.006,6.13,-1.34,0.24,1785100093081.418
0.015,0.081,-1.01,2.81,0.21,-0.55,1785100093091.746
0.019,0.073,-1.007,1.59,0.85,-0.64,1785100093102.228
0.027,0.074,-1.012,1.89,0.92,-0.67,1785100093115.4502
0.026,0.071,-1.022,2.69,1.25,-1.65,1785100093121.487
0.021,0.075,-1.017,4.03,1.13,-1.62,1785100093131.18
0.028,0.069,-1.026,6.01,1.13,-0.61,1785100093141.471
0.023,0.084,-1.023,5.49,1.68,-1.04,1785100093151.805
0.02,0.096,-1.011,4.27,2.47,-0.76,1785100093162.147
0.025,0.09,-1.0,4.18,3.11,-0.46,1785100093175.552
0.03,0.091,-0.993,4.49,3.6,-0.76,1785100093181.3518
0.027,0.087,-0.982,5.19,4.09,-0.61,1785100093191.136
0.028,0.06,-0.999,6.04,4.12,-0.52,1785100093201.5989
0.031,0.059,-1.018,5.77,4.88,-1.8,1785100093212.0
0.037,0.064,-1.025,6.44,5.71,-2.01,1785100093225.18
0.037,0.064,-1.025,5.95,6.16,-1.83,1785100093230.976
0.03,0.068,-1.014,4.73,6.47,-1.25,1785100093240.8418
0.026,0.069,-1.004,4.18,6.44,-0.49,1785100093251.2078
0.038,0.072,-1.002,4.64,6.84,-0.27,1785100093261.667
0.044,0.067,-1.012,4.91,7.29,-0.55,1785100093271.965
0.033,0.073,-0.997,4.91,7.29,-0.55,1785100093285.2632
0.035,0.072,-0.988,5.07,7.23,0.03,1785100093290.996
0.042,0.072,-0.979,5.4,6.62,0.61,1785100093300.925
0.042,0.079,-0.977,6.16,6.07,0.49,1785100093311.376
0.043,0.082,-0.981,6.99,5.4,0.61,1785100093321.656
0.047,0.081,-0.986,7.17,4.97,0.46,1785100093332.0242
0.046,0.079,-1.004,6.23,4.85,-0.06,1785100093345.3262
0.045,0.085,-1.01,4.12,4.85,-0.43,1785100093350.923
0.042,0.079,-1.016,2.14,5.04,-0.34,1785100093360.938
0.037,0.074,-1.004,-0.12,5.22,-0.12,1785100093371.341
0.045,0.067,-0.987,-0.61,4.46,0.34,1785100093381.732
0.052,0.062,-0.983,0.64,3.75,0.21,1785100093392.092
0.047,0.067,-0.984,1.77,3.23,-0.18,1785100093406.6611
0.043,0.072,-0.981,1.65,2.75,0.06,1785100093411.0552
0.047,0.073,-0.977,1.4,2.32,0.79,1785100093421.0298
0.049,0.073,-0.976,1.62,2.04,1.31,1785100093431.398
0.046,0.068,-0.983,1.46,1.83,1.34,1785100093441.8418
0.045,0.066,-0.993,0.85,1.71,1.31,1785100093452.249
0.045,0.07,-0.994,0.61,1.68,1.43,1785100093465.488
0.046,0.064,-0.992,0.95,1.86,1.53,1785100093471.044
0.044,0.057,-0.997,0.79,1.95,1.34,1785100093481.176
0.046,0.06,-1.002,0.92,2.04,1.19,1785100093491.4902
0.041,0.062,-0.994,1.92,2.08,1.31,1785100093501.906
0.043,0.062,-0.99,2.75,2.01,1.4,1785100093512.356
0.044,0.063,-0.99,2.23,2.17,1.22,1785100093525.4897
0.044,0.066,-0.984,1.22,2.35,1.34,1785100093531.294
0.044,0.059,-0.989,1.34,2.53,1.43,1785100093541.177
0.042,0.056,-0.996,1.59,2.69,1.28,1785100093551.6318
0.043,0.056,-0.991,2.04,2.62,1.37,1785100093561.9468
0.049,0.054,-0.998,2.78,2.75,1.19,1785100093575.2002
0.047,0.056,-1.002,2.56,3.05,1.01,1785100093581.013
0.048,0.06,-0.996,2.41,3.23,1.25,1785100093590.8699
0.05,0.06,-0.992,2.35,3.2,1.37,1785100093601.274
0.05,0.061,-0.995,1.68,3.14,1.25,1785100093611.632
0.05,0.064,-0.992,1.28,2.96,1.13,1785100093622.019
0.05,0.066,-0.991,1.34,2.81,1.1,1785100093635.2583
0.049,0.063,-0.986,0.85,3.05,1.19,1785100093640.915
0.052,0.061,-0.979,0.76,2.99,1.16,1785100093650.941
0.052,0.059,-0.982,1.46,2.81,1.56,1785100093661.298
0.05,0.056,-0.98,2.47,2.78,1.98,1785100093671.7063
0.05,0.049,-0.984,3.72,2.78,1.86,1785100093682.156
0.049,0.051,-0.985,4.12,2.59,1.74,1785100093696.1182
0.048,0.055,-0.98,4.33,2.17,1.86,1785100093700.864
0.048,0.058,-0.979,4.36,1.65,1.89,1785100093711.0
0.052,0.059,-0.981,3.97,1.19,1.71,1785100093721.397
0.055,0.058,-0.982,3.14,0.89,1.4,1785100093731.869
0.053,0.057,-0.979,2.47,0.64,1.16,1785100093742.2002
0.054,0.054,-0.977,2.26,0.31,1.07,1785100093755.426
0.055,0.053,-0.977,1.92,-0.03,0.92,1785100093761.0781
0.058,0.059,-0.976,1.68,-0.55,1.19,1785100093771.126
0.06,0.054,-0.981,2.66,-0.92,1.37,1785100093781.4883
0.055,0.048,-0.985,3.17,-1.04,1.22,1785100093791.8357
0.052,0.044,-0.987,3.63,-1.28,1.31,1785100093802.2568
0.053,0.038,-0.988,4.79,-1.13,1.59,1785100093815.583
0.055,0.031,-0.989,6.99,-1.16,1.43,1785100093821.127
0.054,0.026,-0.984,9.31,-1.16,0.89,1785100093831.2212
0.054,0.029,-0.974,11.17,-1.43,0.85,1785100093841.597
0.056,0.03,-0.968,12.94,-2.11,0.98,1785100093852.103
0.055,0.039,-0.965,13.61,-2.32,1.16,1785100093865.418
0.057,0.03,-0.976,13.52,-2.62,0.76,1785100093871.1838
0.059,0.025,-0.989,12.24,-2.59,-0.18,1785100093881.344
0.067,0.044,-1.013,10.38,-2.44,0.18,1785100093891.731
0.065,0.067,-1.033,7.54,-1.53,1.4,1785100093902.1592
0.053,0.052,-1.032,3.72,-0.89,1.43,1785100093915.4219
0.046,0.026,-1.016,0.31,-0.58,0.52,1785100093920.996
0.052,0.012,-1.0,-0.7,-0.27,0.73,1785100093931.087
0.057,0.005,-0.991,0.79,-0.09,1.25,1785100093941.4048
0.057,0.02,-0.992,1.95,-0.18,1.25,1785100093951.846
0.058,0.033,-0.983,2.2,-0.46,1.86,1785100093962.2002
0.063,0.03,-0.984,2.81,-0.76,2.01,1785100093975.429
0.064,0.025,-0.99,3.27,-0.7,1.07,1785100093981.1553
0.063,0.018,-1.001,3.3,-0.52,0.4,1785100093991.0989
0.061,0.021,-1.006,3.05,-0.31,-0.12,1785100094001.713
0.058,0.022,-1.013,3.05,-0.15,-0.61,1785100094011.903
0.056,0.028,-1.015,2.01,-0.09,-0.98,1785100094022.165
0.056,0.036,-1.007,0.18,-0.15,-0.76,1785100094035.5698
0.062,0.032,-1.004,-1.25,-0.4,-0.52,1785100094041.481
0.065,0.03,-0.998,-1.56,-0.06,-0.76,1785100094051.218
0.062,0.024,-0.998,-0.95,-0.24,-0.98,1785100094061.602
0.058,0.026,-0.991,-0.4,-0.27,-0.85,1785100094071.981
0.055,0.026,-0.985,0.64,0.4,-0.67,1785100094085.2559
0.058,0.023,-0.993,1.5,0.98,-0.31,1785100094090.83
0.054,0.037,-0.997,1.65,1.62,-0.58,1785100094100.877
0.06,0.038,-1.004,2.62,2.32,-0.27,1785100094111.261
0.058,0.026,-1.015,3.39,2.23,-0.49,1785100094121.6199
0.048,0.021,-1.019,3.05,2.29,-0.52,1785100094132.019
0.046,0.023,-0.999,2.78,2.26,0.49,1785100094145.283
0.053,0.024,-0.987,4.36,2.08,0.89,1785100094150.949
0.059,0.027,-0.985,6.32,1.95,0.89,1785100094160.9622
0.056,0.04,-0.992,6.59,1.74,1.01,1785100094171.3547
0.057,0.044,-0.991,5.77,2.01,1.37,1785100094181.723
0.056,0.034,-0.991,5.95,1.43,1.53,1785100094192.105
0.053,0.024,-1.002,6.62,0.55,1.01,1785100094205.3289
0.05,0.023,-1.007,6.96,0.12,0.92,1785100094211.0159
0.046,0.021,-0.996,7.6,0.18,1.25,1785100094221.0188
0.049,0.025,-0.993,8.55,0.24,1.53,1785100094231.388
0.051,0.03,-0.986,7.84,0.15,1.86,1785100094241.7559
0.052,0.028,-0.988,5.83,-0.12,2.11,1785100094252.1348
0.051,0.021,-0.996,3.2,-0.18,1.83,1785100094265.366
0.05,0.016,-0.999,0.76,0.0,1.34,1785100094271.059
0.052,0.015,-0.996,-1.28,0.12,1.43,1785100094281.059
0.053,0.012,-0.988,-2.44,0.27,1.59,1785100094291.548
0.054,0.003,-0.987,-2.5,0.37,1.34,1785100094301.863
0.057,-0.003,-0.982,-2.17,0.46,1.34,1785100094312.35
0.056,-0.006,-0.977,-0.67,0.34,1.16,1785100094325.551
0.057,-0.007,-0.983,1.25,0.12,0.76,1785100094331.205
0.058,0.001,-0.986,2.26,0.18,0.85,1785100094341.517
0.06,0.008,-0.984,2.84,0.34,1.25,1785100094351.445
0.062,0.01,-0.986,2.9,0.49,1.37,1785100094361.8162
0.063,0.012,-0.987,1.92,0.52,1.28,1785100094372.316
0.066,0.009,-0.986,1.22,0.7,1.07,1785100094385.619
0.062,0.005,-0.989,1.04,0.95,0.73,1785100094391.191
0.057,-0.001,-0.99,1.07,0.98,0.52,1785100094401.221
0.059,-0.003,-0.991,1.19,0.7,0.27,1785100094411.649
0.062,0.0,-0.993,1.34,0.37,0.15,1785100094421.968
0.062,0.005,-0.99,1.62,0.09,0.09,1785100094435.324
0.065,0.011,-0.99,1.53,-0.09,-0.03,1785100094440.511
0.065,0.013,-0.99,1.04,-0.21,-0.06,1785100094450.912
0.065,0.014,-0.99,0.27,-0.43,-0.27,1785100094461.312
0.064,0.007,-0.995,-0.31,-0.43,-0.4,1785100094471.654
