ax,ay,az,gx,gy,gz,timestamp_ms
1.033,-1.194,0.98,-8.85,116.58,45.53,1784917311922.656
1.078,-1.127,1.345,5.49,103.21,39.31,1784917311923.2222
1.025,-1.122,1.609,16.48,83.01,27.62,1784917311923.7593
0.909,-1.102,1.79,22.55,55.7,11.75,1784917311924.282
0.82,-1.042,1.835,24.17,18.98,-4.36,1784917311924.802
0.762,-1.013,1.72,24.41,-21.49,-18.37,1784917311925.3262
0.698,-1.015,1.496,26.43,-61.25,-29.57,1784917311925.8472
0.626,-1.03,1.212,32.62,-98.73,-38.7,1784917311926.378
0.556,-1.042,0.898,40.93,-131.78,-46.08,1784917311926.944
0.483,-1.038,0.56,49.59,-159.95,-51.15,1784917311927.4858
0.406,-1.022,0.171,58.81,-182.29,-53.22,1784917311928.0168
0.328,-1.001,-0.245,67.29,-194.92,-52.89,1784917311929.354
0.231,-0.962,-0.66,71.63,-197.61,-49.62,1784917311929.992
0.167,-0.888,-0.982,68.67,-191.53,-42.51,1784917311930.5752
0.15,-0.819,-1.122,59.63,-181.1,-35.43,1784917311930.91
0.163,-0.794,-1.178,45.84,-165.84,-30.49,1784917311931.232
0.193,-0.896,-2.065,35.98,-133.46,-29.05,1784917311931.555
-0.156,-1.695,-4.0,54.87,-17.3,-41.35,1784917311931.8762
-0.691,-0.251,-1.992,-25.03,86.7,-29.82,1784917311932.1877
0.128,0.318,-1.589,-33.39,62.01,21.58,1784917311932.5881
0.611,-0.745,-1.738,-36.53,94.79,18.98,1784917311932.9338
0.209,-0.677,-0.903,-101.44,120.91,-5.43,1784917311933.258
0.055,-0.388,-0.552,-112.09,122.96,24.08,1784917311933.5789
0.162,-0.549,-0.435,-105.32,131.5,56.86,1784917311933.912
0.118,-0.699,-0.234,-111.88,133.52,48.77,1784917311934.2358
0.182,-0.784,-0.154,-107.55,129.06,39.98,1784917311934.5632
0.398,-0.901,-0.091,-92.26,127.38,43.86,1784917311934.876
0.581,-1.023,0.09,-75.08,125.86,47.18,1784917311935.1912
0.743,-1.126,0.388,-55.3,124.7,51.64,1784917311935.5142
0.885,-1.157,0.71,-34.18,122.35,53.93,1784917311935.837
0.978,-1.129,1.065,-16.14,112.49,52.43,1784917311936.1511
1.026,-1.133,1.356,-0.52,95.71,44.77,1784917311936.851
0.989,-1.122,1.57,8.33,75.84,31.25,1784917311937.292
0.898,-1.093,1.686,13.28,49.35,16.08,1784917311937.614
0.798,-1.07,1.66,18.43,15.96,0.7,1784917311937.938
0.73,-1.051,1.521,25.21,-19.62,-11.66,1784917311938.2542
0.689,-1.039,1.307,33.33,-54.35,-21.24,1784917311938.571
0.651,-1.045,1.049,41.2,-86.0,-29.73,1784917311938.88
0.592,-1.048,0.768,48.04,-114.23,-37.84,1784917311939.1958
0.507,-1.054,0.461,56.12,-139.04,-43.89,1784917311939.51
0.417,-1.047,0.102,66.35,-158.79,-47.18,1784917311939.826
0.314,-1.009,-0.3,77.24,-171.48,-47.61,1784917311940.142
0.231,-0.955,-0.718,82.8,-173.8,-43.79,1784917311940.46
0.182,-0.878,-1.002,78.22,-168.25,-37.72,1784917311940.779
0.193,-0.829,-1.128,67.66,-158.27,-32.53,1784917311941.0889
0.223,-0.82,-1.248,54.69,-141.76,-28.72,1784917311941.407
0.252,-0.784,-1.424,37.32,-114.66,-24.14,1784917311941.7378
0.244,-0.73,-1.631,16.17,-78.68,-20.63,1784917311942.053
0.208,-0.662,-1.779,-8.82,-40.68,-16.51,1784917311942.36
0.194,-0.601,-1.789,-32.62,-3.88,-7.81,1784917311942.6638
0.223,-0.593,-1.647,-48.43,29.88,1.95,1784917311942.971
0.217,-0.635,-1.477,-54.41,58.72,5.52,1784917311943.278
0.17,-0.605,-1.258,-59.88,82.64,8.94,1784917311943.582
0.163,-0.556,-1.019,-65.89,99.46,20.26,1784917311943.897
0.186,-0.601,-0.809,-66.99,112.52,30.0,1784917311944.212
0.209,-0.618,-0.617,-67.38,121.43,34.82,1784917311944.5232
0.271,-0.652,-0.451,-64.82,126.62,42.15,1784917311944.8362
0.357,-0.722,-0.275,-60.85,129.64,49.32,1784917311945.1511
0.476,-0.782,-0.066,-56.58,131.2,54.45,1784917311945.466
0.627,-0.861,0.196,-49.56,131.63,57.86,1784917311945.7751
0.789,-0.995,0.556,-40.04,129.03,58.93,1784917311946.092
0.941,-1.109,0.924,-29.76,121.07,55.94,1784917311946.4163
1.044,-1.16,1.235,-16.36,108.89,50.14,1784917311946.735
1.063,-1.217,1.442,3.85,92.04,41.11,1784917311947.1162
0.959,-1.215,1.546,23.38,67.87,24.29,1784917311947.4338
0.816,-1.162,1.581,35.71,36.13,7.05,1784917311947.764
0.745,-1.108,1.521,38.94,-0.46,-5.89,1784917311948.066
0.718,-1.085,1.388,36.41,-37.48,-16.45,1784917311948.3809
0.692,-1.104,1.203,35.34,-72.42,-26.49,1784917311948.69
0.63,-1.128,0.97,40.38,-104.5,-37.23,1784917311949.009
0.545,-1.135,0.679,51.24,-132.69,-46.48,1784917311949.3188
0.451,-1.111,0.309,65.19,-156.35,-52.64,1784917311950.05
0.351,-1.063,-0.136,77.36,-171.79,-54.32,1784917311950.3801
0.248,-0.982,-0.606,82.83,-176.95,-52.49,1784917311950.724
0.168,-0.862,-0.954,77.64,-173.25,-46.66,1784917311951.0332
0.166,-0.78,-1.137,66.01,-163.91,-39.4,1784917311951.353
0.201,-0.759,-1.254,49.2,-146.52,-34.76,1784917311951.6768
0.217,-0.749,-1.443,25.15,-117.77,-30.4,1784917311952.008
0.193,-0.724,-1.709,-3.6,-79.07,-26.03,1784917311952.3489
0.138,-0.636,-1.926,-33.42,-36.04,-21.36,1784917311952.668
0.128,-0.557,-1.993,-56.67,6.93,-10.74,1784917311952.975
0.141,-0.524,-1.806,-70.13,43.0,0.46,1784917311953.278
0.141,-0.591,-1.635,-72.02,76.6,4.94,1784917311953.582
0.078,-0.563,-1.381,-76.27,103.89,8.21,1784917311953.8901
0.08,-0.493,-1.087,-84.05,121.04,22.98,1784917311954.211
0.118,-0.607,-0.865,-80.63,136.14,33.88,1784917311954.523
0.157,-0.655,-0.639,-74.04,145.7,37.17,1784917311954.839
0.252,-0.663,-0.412,-64.94,149.82,44.28,1784917311955.159
0.39,-0.719,-0.196,-55.7,151.74,53.19,1784917311955.4717
0.558,-0.787,0.031,-48.46,152.65,59.94,1784917311955.783
0.725,-0.869,0.353,-40.53,152.44,64.0,1784917311956.156
0.868,-0.989,0.742,-31.62,147.68,65.77,1784917311956.471
0.983,-1.092,1.069,-23.38,137.49,64.73,1784917311956.779
1.013,-1.163,1.354,-10.65,121.98,57.59,1784917311957.106
0.937,-1.191,1.544,5.19,99.37,41.72,1784917311957.4102
0.822,-1.176,1.644,16.79,68.94,22.86,1784917311957.719
0.753,-1.122,1.662,19.56,31.4,7.05,1784917311958.0203
0.727,-1.098,1.587,17.52,-8.51,-4.85,1784917311958.3218
0.71,-1.126,1.434,17.91,-46.3,-15.26,1784917311958.6292
0.672,-1.159,1.23,25.48,-80.75,-26.37,1784917311958.936
0.612,-1.18,1.002,39.0,-111.51,-37.72,1784917311959.242
0.53,-1.181,0.733,56.92,-138.25,-47.4,1784917311959.554
0.449,-1.127,0.399,75.99,-159.95,-52.46,1784917311959.866
0.377,-1.057,0.007,92.47,-174.11,-53.56,1784917311960.175
0.293,-0.981,-0.449,101.54,-180.24,-51.91,1784917311960.4932
0.225,-0.887,-0.825,100.8,-176.85,-45.84,1784917311960.808
0.184,-0.8,-1.047,93.2,-169.13,-37.63,1784917311961.1243
0.193,-0.751,-1.149,80.36,-156.25,-30.64,1784917311961.4348
0.218,-0.756,-1.262,62.62,-135.04,-26.46,1784917311961.7468
0.231,-0.783,-1.444,39.34,-104.68,-24.02,1784917311962.07
0.204,-0.797,-1.619,11.72,-68.73,-21.94,1784917311962.388
0.155,-0.758,-1.687,-16.27,-32.47,-18.65,1784917311962.6948
0.147,-0.693,-1.658,-38.42,2.35,-10.38,1784917311963.0332
0.17,-0.621,-1.549,-53.47,32.9,-1.19,1784917311963.339
0.173,-0.564,-1.407,-63.6,60.21,6.32,1784917311963.647
0.161,-0.542,-1.214,-71.23,83.01,14.86,1784917311963.9521
0.162,-0.56,-1.013,-74.92,100.04,21.94,1784917311964.275
0.178,-0.582,-0.797,-75.44,112.67,27.83,1784917311964.591
0.239,-0.598,-0.585,-74.47,121.16,35.46,1784917311964.8992
0.239,-0.598,-0.585,-71.99,126.41,43.98,1784917311965.217
0.335,-0.626,-0.38,-67.11,129.22,51.76,1784917311965.551
0.444,-0.702,-0.171,-59.91,129.4,57.25,1784917311965.95
0.555,-0.805,0.08,-49.96,126.47,59.94,1784917311966.2678
0.673,-0.9,0.397,-37.66,119.69,60.82,1784917311966.619
0.809,-1.002,0.712,-37.66,119.69,60.82,1784917311966.948
0.935,-1.058,0.984,-26.73,109.53,59.39,1784917311967.274
0.984,-1.115,1.162,-13.7,95.03,56.7,1784917311967.587
0.926,-1.158,1.249,1.19,77.43,48.01,1784917311967.905
0.765,-1.163,1.302,11.54,54.32,31.83,1784917311968.231
0.67,-1.148,1.329,12.09,24.54,17.61,1784917311968.54
0.681,-1.127,1.302,7.57,-8.39,7.81,1784917311968.8452
0.705,-1.136,1.195,6.35,-39.52,-1.04,1784917311969.154
0.665,-1.146,1.043,11.23,-67.38,-12.18,1784917311969.472
0.598,-1.147,0.868,21.61,-92.59,-23.9,1784917311969.783
0.53,-1.123,0.684,35.0,-115.6,-33.88,1784917311970.1008
0.47,-1.054,0.485,48.8,-136.66,-39.4,1784917311970.419
0.412,-0.973,0.245,61.71,-154.33,-41.75,1784917311970.737
0.339,-0.893,-0.019,71.84,-167.79,-42.48,1784917311971.0532
0.269,-0.823,-0.319,76.48,-176.12,-40.07,1784917311971.3762
0.217,-0.758,-0.593,74.16,-177.01,-34.21,1784917311971.696
0.196,-0.702,-0.809,68.3,-171.82,-27.47,1784917311972.023
0.209,-0.664,-0.98,61.49,-160.62,-21.79,1784917311972.3352
0.246,-0.661,-1.075,54.02,-144.51,-17.3,1784917311972.656
0.292,-0.709,-1.083,44.86,-124.45,-15.35,1784917311972.97
0.267,-0.711,-1.368,30.21,-103.82,-16.39,1784917311973.286
0.269,-1.132,-2.222,31.31,-57.01,-18.95,1784917311973.608
0.042,-1.266,-2.588,30.18,23.07,-26.7,1784917311974.3481
0.052,-0.534,-1.813,1.31,69.03,-0.85,1784917311975.1638
0.367,-0.369,-1.413,-18.43,65.83,27.22,1784917311975.515
0.317,-0.549,-0.957,-39.92,79.59,26.52,1784917311975.96
0.223,-0.521,-0.535,-52.64,89.18,26.89,1784917311976.396
0.27,-0.553,-0.383,-50.78,91.77,41.14,1784917311976.7207
0.288,-0.689,-0.299,-53.25,95.1,47.06,1784917311977.0352
0.285,-0.819,-0.274,-53.19,96.01,42.39,1784917311977.3572
0.35,-0.902,-0.271,-47.12,94.7,41.9,1784917311977.715
0.44,-0.946,-0.241,-41.78,95.22,46.33,1784917311978.039
0.519,-0.967,-0.141,-39.22,98.42,53.22,1784917311978.351
0.604,-1.001,0.018,-36.62,101.26,58.87,1784917311978.6711
0.681,-1.032,0.257,-33.2,102.54,59.54,1784917311978.9922
0.743,-1.096,0.566,-26.25,100.41,56.67,1784917311979.31
0.793,-1.164,0.861,-16.82,92.53,50.81,1784917311979.626
0.835,-1.199,1.128,-5.43,79.1,41.17,1784917311979.9429
0.847,-1.224,1.293,9.58,59.88,27.1,1784917311980.258
0.802,-1.185,1.334,23.53,35.4,10.65,1784917311980.573
0.721,-1.102,1.273,32.29,6.84,-2.32,1784917311980.886
0.67,-1.036,1.148,33.51,-23.35,-9.55,1784917311981.207
0.651,-1.005,1.01,29.11,-52.06,-16.66,1784917311981.556
0.637,-1.014,0.854,24.29,-77.97,-24.9,1784917311981.9893
0.601,-1.042,0.698,23.62,-101.81,-33.48,1784917311982.354
0.536,-1.064,0.487,30.95,-123.14,-40.99,1784917311983.1082
0.402,-0.98,-0.14,57.83,-152.75,-49.44,1784917311983.4768
0.919,-1.161,1.185,-6.84,102.3,43.09,1784917311984.364
0.84,-1.169,1.363,10.1,80.2,31.62,1784917311984.732
0.738,-1.108,1.485,20.11,51.36,15.56,1784917311985.095
0.698,-1.03,1.51,22.89,15.78,1.07,1784917311985.452
0.682,-0.978,1.428,20.87,-20.87,-8.42,1784917311988.2651
0.645,-0.981,1.275,19.04,-56.28,-15.02,1784917311998.71
0.595,-0.99,1.096,19.81,-89.54,-22.58,1784917312009.343
0.542,-1.017,0.894,24.84,-118.84,-30.06,1784917312022.531
0.474,-1.036,0.631,35.31,-144.05,-36.19,1784917312028.2458
0.403,-1.001,0.283,48.8,-164.34,-38.51,1784917312038.9658
0.334,-0.928,-0.15,60.46,-176.64,-37.57,1784917312052.267
0.276,-0.85,-0.599,65.55,-178.84,-34.03,1784917312057.894
0.24,-0.761,-0.953,60.64,-172.37,-28.57,1784917312068.734
0.232,-0.712,-1.08,50.45,-160.74,-22.71,1784917312079.336
0.254,-0.74,-1.123,40.44,-145.97,-18.28,1784917312092.63
0.281,-0.804,-1.18,30.15,-121.65,-15.5,1784917312098.388
0.257,-0.804,-1.643,20.29,-86.98,-15.26,1784917312109.01
0.183,-1.272,-2.63,37.11,-22.89,-22.83,1784917312122.404
-0.112,-1.024,-2.548,27.47,50.97,-27.86,1784917312128.372
0.006,-0.381,-1.727,-9.52,81.39,-1.95,1784917312138.471
0.206,-0.513,-1.404,-30.12,90.06,15.56,1784917312148.8792
0.11,-0.58,-0.841,-52.71,107.7,17.24,1784917312162.3682
0.114,-0.514,-0.537,-49.07,113.86,25.12,1784917312168.169
0.23,-0.55,-0.484,-42.7,120.43,36.01,1784917312178.678
0.248,-0.671,-0.41,-48.25,128.15,36.35,1784917312189.4888
0.284,-0.811,-0.318,-48.55,130.07,34.76,1784917312202.666
0.392,-0.936,-0.235,-40.25,130.53,36.07,1784917312208.51
0.5,-0.991,-0.077,-33.23,132.39,39.7,1784917312219.0708
0.62,-1.002,0.172,-27.92,134.19,46.21,1784917312232.457
0.74,-1.066,0.508,-21.03,133.18,50.02,1784917312238.1958
0.843,-1.131,0.925,-14.83,125.06,47.12,1784917312248.8499
0.933,-1.169,1.307,-5.43,108.58,40.53,1784917312259.406
0.94,-1.202,1.516,9.98,86.98,29.63,1784917312272.765
0.814,-1.131,1.596,24.29,59.3,13.76,1784917312278.513
0.66,-1.029,1.594,32.78,24.35,-2.87,1784917312288.613
0.596,-0.968,1.494,33.3,-14.22,-14.68,1784917312299.366
0.617,-0.945,1.332,29.45,-52.06,-22.03,1784917312312.609
0.63,-0.961,1.133,26.58,-85.48,-29.05,1784917312318.075
0.588,-1.006,0.932,27.74,-113.04,-36.87,1784917312328.6182
0.512,-1.07,0.715,36.96,-137.42,-44.01,1784917312339.357
0.419,-1.078,0.437,52.52,-158.82,-48.31,1784917312352.793
0.326,-1.026,0.106,67.87,-175.36,-47.79,1784917312358.676
0.238,-0.971,-0.284,77.91,-185.52,-43.61,1784917312369.2168
0.157,-0.91,-0.678,78.98,-187.75,-38.0,1784917312382.3948
0.096,-0.839,-0.956,72.05,-183.29,-32.47,1784917312387.9712
0.09,-0.795,-1.138,60.7,-173.13,-25.82,1784917312398.9438
0.139,-0.792,-1.266,45.93,-152.81,-18.31,1784917312409.575
0.195,-0.837,-1.277,27.04,-123.26,-14.28,1784917312422.804
0.16,-1.061,-2.733,13.4,-73.12,-19.65,1784917312428.8198
-0.224,-1.062,-3.353,-20.2,32.47,-24.11,1784917312439.033
-0.104,-0.193,-2.056,-91.46,88.2,1.01,1784917312449.478
0.374,-0.515,-1.565,-83.01,86.61,20.39,1784917312462.561
0.232,-0.873,-1.012,-72.18,107.03,10.13,1784917312468.769
0.017,-0.579,-0.483,-64.03,118.05,13.52,1784917312479.1191
0.153,-0.477,-0.396,-46.69,122.59,40.44,1784917312492.4878
0.231,-0.575,-0.33,-53.99,130.07,46.54,1784917312498.564
0.231,-0.575,-0.33,-66.47,130.68,40.56,1784917312508.915
0.253,-0.72,-0.232,-64.36,129.15,42.18,1784917312519.49
0.377,-0.864,-0.139,-53.04,128.09,45.81,1784917312532.9258
0.546,-0.948,0.047,-39.28,125.43,48.46,1784917312538.82
0.705,-0.961,0.313,-39.28,125.43,48.46,1784917312549.1992
0.841,-0.996,0.706,-29.51,119.3,51.21,1784917312562.628
0.926,-1.073,1.139,-28.9,103.34,51.64,1784917312568.5771
0.958,-1.172,1.497,-26.7,81.27,46.51,1784917312578.541
0.946,-1.25,1.717,-18.1,53.13,33.63,1784917312589.3262
0.894,-1.244,1.77,-6.74,20.11,14.83,1784917312602.814
0.799,-1.211,1.68,8.55,-13.61,-3.23,1784917312608.308
0.707,-1.166,1.484,24.69,-47.91,-17.88,1784917312618.679
0.663,-1.112,1.223,37.11,-79.26,-29.3,1784917312629.428
0.641,-1.067,0.931,44.68,-105.69,-38.15,1784917312639.8542
0.606,-1.031,0.645,49.29,-126.41,-44.68,1784917312653.202
0.532,-1.017,0.337,55.64,-142.4,-49.32,1784917312659.12
0.425,-0.989,-0.002,62.11,-154.94,-51.06,1784917312669.6838
0.302,-0.939,-0.363,64.82,-163.18,-48.43,1784917312682.6128
0.182,-0.863,-0.682,61.68,-166.88,-42.88,1784917312688.854
0.106,-0.809,-0.993,53.19,-165.81,-37.78,1784917312699.6409
0.09,-0.805,-1.277,38.61,-154.18,-34.33,1784917312712.6929
0.11,-0.903,-1.355,19.53,-127.38,-27.44,1784917312718.857
0.083,-1.032,-2.42,5.71,-87.5,-24.38,1784917312738.6492
-0.244,-1.642,-3.929,11.81,15.05,-33.88,1784917312739.735
-0.466,-0.245,-1.943,-71.57,92.23,-33.05,1784917312752.285
0.255,-0.028,-1.496,-51.12,74.13,-1.16,1784917312758.072
0.42,-0.799,-1.439,-46.51,101.2,2.78,1784917312768.3342
0.078,-0.528,-0.713,-95.8,119.69,1.83,1784917312779.161
0.111,-0.409,-0.511,-95.77,120.64,28.23,1784917312792.363
0.158,-0.566,-0.434,-100.41,124.85,37.81,1784917312798.32
0.115,-0.691,-0.299,-110.39,125.25,30.21,1784917312809.0151
0.216,-0.796,-0.235,-101.44,123.6,29.6,1784917312819.7708
0.374,-0.889,-0.13,-81.82,121.98,31.01,1784917312833.087
0.515,-0.958,0.089,-58.75,119.51,33.14,1784917312838.871
0.688,-1.027,0.385,-35.25,116.7,37.17,1784917312849.49
0.895,-1.06,0.752,-20.11,111.3,39.43,1784917312862.865
1.101,-1.088,1.156,-14.13,100.07,39.86,1784917312868.6763
1.249,-1.144,1.465,-11.08,82.55,36.1,1784917312879.124
1.246,-1.188,1.631,-3.75,60.76,25.3,1784917312889.494
1.068,-1.19,1.67,14.89,34.36,8.03,1784917312902.802
0.873,-1.17,1.564,41.41,3.45,-10.44,1784917312908.5923
0.764,-1.078,1.361,63.54,-27.47,-26.09,1784917312918.81
0.724,-0.996,1.099,75.9,-55.82,-37.54,1784917312929.427
0.686,-0.956,0.852,76.69,-82.25,-46.94,1784917312942.668
0.618,-0.938,0.63,70.62,-105.93,-53.65,1784917312948.641
0.519,-0.938,0.391,64.36,-127.38,-56.52,1784917312958.941
0.399,-0.944,0.107,60.43,-147.28,-55.33,1784917312969.999
0.271,-0.951,-0.244,57.28,-163.46,-50.54,1784917312982.9912
0.129,-0.916,-0.622,51.06,-173.13,-44.34,1784917312988.8699
0.01,-0.871,-0.949,41.66,-176.21,-35.68,1784917312999.339
-0.009,-0.856,-1.194,33.66,-171.91,-27.44,1784917313012.896
0.043,-0.852,-1.202,28.53,-156.01,-21.61,1784917313018.369
0.079,-1.022,-2.713,38.7,-115.24,-17.98,1784917313028.9731
-0.295,-1.602,-3.875,45.78,6.16,-28.26,1784917313039.364
-0.479,0.237,-1.724,-53.13,68.39,-22.71,1784917313052.6409
0.287,0.049,-1.687,-26.0,57.1,20.94,1784917313058.374
0.393,-0.754,-1.492,-41.51,93.26,24.2,1784917313068.8472
0.043,-0.44,-0.733,-94.85,110.14,16.45,1784917313079.531
0.11,-0.305,-0.502,-103.95,110.35,43.15,1784917313092.8308
0.27,-0.508,-0.394,-119.11,117.74,60.98,1784917313098.525
0.298,-0.753,-0.299,-125.49,125.64,54.2,1784917313109.505
0.445,-0.9,-0.188,-110.51,128.36,53.47,1784917313123.042
0.656,-1.036,-0.072,-80.75,128.48,56.12,1784917313128.635
0.806,-1.156,0.146,-45.87,130.53,59.3,1784917313139.4648
0.893,-1.2,0.416,-12.02,131.32,61.01,1784917313152.5051
0.928,-1.156,0.739,10.13,128.54,58.32,1784917313158.293
0.964,-1.149,1.049,17.55,118.81,53.59,1784917313168.999
0.993,-1.185,1.295,17.73,104.13,42.54,1784917313179.669
0.944,-1.181,1.516,18.74,84.32,25.36,1784917313192.95
0.85,-1.141,1.634,24.11,56.09,8.36,1784917313198.677
0.768,-1.106,1.609,34.42,22.13,-6.29,1784917313208.888
0.709,-1.067,1.459,46.57,-13.31,-20.97,1784917313219.401
0.662,-1.034,1.238,56.58,-46.51,-33.81,1784917313232.78
0.617,-1.02,1.007,61.49,-75.84,-43.31,1784917313238.522
0.55,-1.012,0.8,62.56,-101.78,-50.29,1784917313248.944
0.474,-1.001,0.562,64.79,-126.07,-53.68,1784917313259.672
0.401,-0.981,0.262,68.88,-147.28,-53.83,1784917313272.9658
0.317,-0.948,-0.089,71.41,-164.04,-51.91,1784917313278.773
0.233,-0.899,-0.457,69.25,-173.5,-47.64,1784917313289.288
0.162,-0.846,-0.761,62.01,-176.37,-41.54,1784917313302.643
0.121,-0.8,-0.961,53.5,-174.26,-34.61,1784917313308.331
0.141,-0.794,-1.087,47.85,-164.31,-28.78,1784917313318.993
0.172,-0.799,-1.218,40.89,-144.11,-24.87,1784917313337.6838
0.194,-0.866,-1.925,33.2,-110.02,-22.22,1784917313342.711
-0.027,-1.578,-3.835,44.74,-24.35,-32.38,1784917313348.4001
-0.334,-0.576,-2.348,-34.7,58.17,-41.66,1784917313359.03
0.136,0.35,-1.39,-91.13,51.52,-0.58,1784917313369.793
0.495,-0.626,-1.584,-81.27,77.15,29.39,1784917313383.028
0.258,-0.658,-0.905,-122.96,102.3,22.25,1784917313389.041
0.14,-0.472,-0.632,-118.66,103.55,31.5,1784917313399.4749
0.202,-0.549,-0.529,-111.48,111.18,50.54,1784917313412.95
0.195,-0.651,-0.354,-115.63,117.44,50.75,1784917313418.5833
0.251,-0.741,-0.247,-104.89,118.96,49.47,1784917313429.638
