ax,ay,az,gx,gy,gz,timestamp_ms
-0.698,0.198,0.659,-4.27,2.38,-0.67,1784840959283.5322
-0.694,0.223,0.69,-3.51,0.92,-0.95,1784840959284.153
-0.701,0.236,0.703,-0.4,-0.21,-2.44,1784840959284.7258
-0.718,0.238,0.706,2.41,-1.34,-4.03,1784840959285.2961
-0.736,0.236,0.699,4.46,-2.23,-6.53,1784840959285.8638
-0.735,0.223,0.673,6.65,-2.11,-9.8,1784840959286.458
-0.71,0.203,0.649,6.87,-1.68,-9.49,1784840959287.0269
-0.703,0.205,0.635,4.79,-2.14,-6.71,1784840959287.585
-0.698,0.22,0.639,2.9,-2.69,-4.52,1784840959288.659
-0.692,0.234,0.651,1.95,-3.36,-3.39,1784840959289.247
-0.687,0.238,0.665,2.14,-4.09,-2.62,1784840959289.739
-0.693,0.236,0.669,3.57,-4.03,-1.92,1784840959290.217
-0.697,0.23,0.665,5.25,-3.88,-1.22,1784840959290.6958
-0.699,0.218,0.653,5.83,-3.85,0.0,1784840959291.189
-0.705,0.208,0.637,4.82,-3.6,1.62,1784840959291.652
-0.709,0.2,0.625,2.87,-3.14,3.27,1784840959292.1191
-0.708,0.196,0.615,1.68,-2.66,4.24,1784840959292.5862
-0.717,0.188,0.612,0.85,-2.08,4.82,1784840959293.0552
-0.723,0.188,0.611,-0.12,-1.62,4.52,1784840959293.535
-0.716,0.188,0.614,-0.61,-0.64,3.88,1784840959294.017
-0.724,0.194,0.633,-0.76,-0.34,3.36,1784840959294.487
-0.733,0.21,0.656,-1.1,-0.46,1.25,1784840959294.949
-0.704,0.217,0.671,-1.07,-0.09,-1.65,1784840959295.421
-0.705,0.209,0.674,-0.24,-0.15,-2.56,1784840959295.888
-0.721,0.207,0.666,-0.46,0.09,-3.3,1784840959296.358
-0.699,0.203,0.655,-1.01,0.21,-4.09,1784840959296.822
-0.699,0.205,0.651,-1.07,0.34,-3.66,1784840959297.2942
-0.7,0.21,0.645,0.03,0.55,-2.56,1784840959297.7632
-0.7,0.206,0.637,1.13,0.61,-2.32,1784840959298.2249
-0.701,0.204,0.631,2.93,0.73,-2.9,1784840959298.693
-0.697,0.196,0.635,4.36,0.58,-2.84,1784840959299.169
-0.697,0.187,0.647,3.63,-0.09,-2.04,1784840959299.646
-0.709,0.19,0.661,1.77,-0.49,-1.04,1784840959300.119
-0.744,0.217,0.676,0.21,-0.52,-1.89,1784840959301.131
-0.724,0.246,0.681,-0.27,-0.12,-5.89,1784840959301.7822
-0.701,0.25,0.674,0.61,0.7,-7.48,1784840959302.316
-0.726,0.247,0.662,2.08,0.61,-8.3,1784840959302.729
-0.716,0.251,0.66,2.93,0.64,-9.83,1784840959303.147
-0.707,0.237,0.651,6.26,1.1,-10.19,1784840959303.571
-0.724,0.196,0.637,10.44,1.04,-10.25,1784840959303.992
-0.721,0.163,0.624,12.3,1.1,-10.44,1784840959304.4119
-0.718,0.153,0.62,11.08,1.34,-9.22,1784840959304.843
-0.711,0.152,0.619,8.36,1.59,-7.14,1784840959305.2568
-0.714,0.173,0.626,5.43,1.95,-5.95,1784840959305.6697
-0.693,0.184,0.624,1.34,1.5,-5.07,1784840959306.098
-0.704,0.211,0.643,-5.34,1.01,-4.21,1784840959306.528
-0.677,0.225,0.677,-11.41,0.61,-5.13,1784840959306.953
-0.682,0.234,0.707,-14.1,0.82,-6.07,1784840959307.3809
-0.695,0.237,0.722,-12.18,-0.52,-8.33,1784840959307.809
-0.703,0.229,0.698,-4.27,-0.89,-10.71,1784840959308.2083
-0.712,0.181,0.65,6.84,-1.01,-12.39,1784840959308.615
-0.719,0.118,0.615,13.92,-1.25,-12.42,1784840959309.0369
-0.728,0.092,0.598,14.13,-1.13,-10.9,1784840959309.469
-0.717,0.096,0.589,9.16,-0.46,-7.93,1784840959310.407
-0.718,0.132,0.591,1.98,0.55,-4.12,1784840959310.843
-0.721,0.185,0.6,-3.36,1.31,-1.56,1784840959311.2659
-0.712,0.209,0.609,-7.14,1.71,-0.55,1784840959311.683
-0.713,0.206,0.634,-13.34,1.5,0.49,1784840959312.106
-0.716,0.233,0.652,-17.94,1.13,2.96,1784840959312.521
-0.715,0.265,0.665,-16.69,0.73,4.52,1784840959313.066
-0.719,0.269,0.675,-11.32,0.89,4.3,1784840959313.426
-0.725,0.265,0.685,-4.94,0.95,3.57,1784840959313.7869
-0.728,0.255,0.682,1.56,1.01,3.05,1784840959314.1492
-0.72,0.235,0.665,4.64,1.83,3.75,1784840959314.505
-0.718,0.205,0.649,2.23,3.85,5.28,1784840959314.916
-0.729,0.186,0.635,-3.05,6.26,6.47,1784840959315.714
-0.729,0.171,0.602,-5.74,8.97,8.67,1784840959316.093
-0.728,0.155,0.593,-9.34,10.16,10.71,1784840959316.619
-0.734,0.158,0.601,-13.15,10.9,12.51,1784840959316.9548
-0.728,0.168,0.596,-13.92,10.9,14.25,1784840959317.282
-0.722,0.167,0.602,-14.22,10.07,14.37,1784840959317.608
-0.716,0.163,0.624,-13.49,9.83,12.91,1784840959317.9277
-0.711,0.165,0.641,-10.68,9.28,10.25,1784840959318.25
-0.713,0.162,0.655,-6.32,8.58,7.45,1784840959318.5688
-0.716,0.158,0.667,-1.86,7.93,5.25,1784840959318.8833
-0.716,0.157,0.67,1.68,7.05,3.97,1784840959319.2
-0.715,0.164,0.67,3.78,5.55,3.54,1784840959319.52
-0.716,0.18,0.668,5.13,4.03,3.27,1784840959319.916
-0.715,0.194,0.667,5.46,3.2,3.08,1784840959320.2341
-0.717,0.208,0.668,4.76,2.72,2.59,1784840959320.592
-0.723,0.216,0.663,4.21,2.5,2.29,1784840959320.956
-0.726,0.218,0.651,3.63,1.98,2.5,1784840959321.3142
-0.732,0.219,0.637,1.89,0.85,2.66,1784840959321.6792
-0.735,0.22,0.627,-0.43,0.52,2.99,1784840959322.045
-0.734,0.22,0.614,-1.92,0.67,3.42,1784840959322.3838
-0.731,0.218,0.612,-2.59,0.61,3.23,1784840959322.691
-0.728,0.214,0.621,-2.56,1.53,2.66,1784840959322.999
-0.729,0.203,0.62,-1.19,2.04,2.41,1784840959323.3071
-0.72,0.194,0.617,-0.55,1.59,2.17,1784840959323.612
-0.722,0.202,0.625,-2.26,1.59,2.2,1784840959323.927
-0.727,0.218,0.642,-1.62,2.96,2.26,1784840959324.234
-0.727,0.218,0.642,1.04,2.81,0.55,1784840959324.543
-0.732,0.212,0.635,3.17,2.66,-1.19,1784840959324.851
-0.735,0.201,0.62,4.46,2.41,-1.77,1784840959325.2107
-0.727,0.187,0.611,5.43,2.17,-1.5,1784840959325.518
-0.722,0.172,0.611,5.43,2.17,-1.5,1784840959325.83
-0.728,0.166,0.61,5.13,1.07,-0.58,1784840959326.138
-0.725,0.17,0.614,2.47,0.82,0.37,1784840959326.446
-0.721,0.18,0.622,-0.79,0.79,1.25,1784840959326.7551
-0.72,0.198,0.635,-3.02,0.34,1.22,1784840959327.065
-0.725,0.208,0.647,-3.69,0.7,0.18,1784840959327.369
-0.725,0.207,0.654,-2.9,1.46,-0.85,1784840959327.6748
-0.729,0.201,0.65,-1.31,1.13,-0.92,1784840959327.986
-0.732,0.194,0.638,-0.34,0.49,-0.4,1784840959328.295
-0.733,0.197,0.626,-0.37,0.4,0.18,1784840959328.5989
-0.733,0.199,0.617,0.06,1.01,0.64,1784840959328.916
-0.728,0.204,0.615,0.34,1.62,0.61,1784840959329.227
-0.727,0.211,0.619,-0.21,1.89,-0.18,1784840959329.533
-0.733,0.21,0.625,0.79,2.41,-1.13,1784840959329.8408
-0.732,0.205,0.632,1.28,2.9,-1.89,1784840959330.1648
-0.731,0.2,0.629,1.53,2.44,-1.53,1784840959330.4783
-0.733,0.202,0.617,0.82,0.92,-0.49,1784840959330.7852
-0.728,0.205,0.62,-0.15,1.5,0.09,1784840959331.0989
-0.724,0.205,0.623,-0.03,1.89,0.12,1784840959331.409
-0.726,0.203,0.627,1.1,1.31,0.18,1784840959331.716
-0.726,0.197,0.623,2.2,1.13,0.4,1784840959332.141
-0.727,0.194,0.625,2.26,0.92,0.34,1784840959332.4531
-0.729,0.192,0.627,2.04,0.7,0.24,1784840959332.765
-0.732,0.189,0.621,1.59,0.31,0.7,1784840959333.068
-0.727,0.19,0.623,0.37,0.24,0.82,1784840959333.3772
-0.731,0.189,0.628,-0.21,0.15,1.16,1784840959333.698
-0.731,0.188,0.62,-0.09,0.24,1.8,1784840959334.002
-0.725,0.194,0.621,0.06,0.37,1.98,1784840959334.306
-0.731,0.193,0.618,0.43,-0.4,2.26,1784840959334.6228
-0.73,0.2,0.632,0.49,0.24,2.04,1784840959334.935
-0.731,0.202,0.637,1.01,0.0,2.01,1784840959335.238
-0.734,0.203,0.627,1.65,-0.27,1.92,1784840959335.546
-0.731,0.211,0.621,2.23,-0.03,1.62,1784840959335.851
-0.731,0.205,0.619,2.01,0.67,0.67,1784840959336.1567
-0.735,0.193,0.616,1.04,1.53,0.49,1784840959336.468
-0.728,0.207,0.615,-0.15,1.07,1.19,1784840959336.7761
-0.72,0.211,0.612,-0.31,0.73,1.37,1784840959337.0938
-0.728,0.204,0.607,0.21,0.95,0.55,1784840959337.398
-0.733,0.198,0.611,0.37,1.37,-0.34,1784840959337.708
-0.735,0.197,0.623,0.43,0.92,-0.27,1784840959338.035
-0.74,0.204,0.618,0.89,0.15,-0.09,1784840959338.358
-0.736,0.2,0.613,0.58,0.49,0.03,1784840959338.7341
-0.73,0.201,0.611,0.21,0.4,0.12,1784840959339.0442
-0.728,0.2,0.61,0.37,-0.12,-0.4,1784840959339.355
-0.734,0.198,0.619,0.98,-0.12,-0.67,1784840959339.673
-0.735,0.2,0.643,0.27,-0.15,-0.67,1784840959339.982
-0.735,0.205,0.647,-0.18,-0.43,-0.31,1784840959340.295
-0.732,0.209,0.637,-0.12,0.46,-0.4,1784840959340.608
-0.729,0.205,0.635,-0.18,1.43,-0.82,1784840959340.919
-0.731,0.204,0.631,-0.34,1.1,-0.64,1784840959341.227
-0.729,0.201,0.625,-0.21,0.34,-0.18,1784840959341.539
-0.725,0.201,0.62,-0.46,0.31,0.03,1784840959341.8428
-0.725,0.203,0.617,0.15,-0.06,0.03,1784840959342.156
-0.727,0.202,0.621,1.25,-0.7,-0.12,1784840959342.4692
-0.731,0.2,0.628,1.77,-1.07,-0.43,1784840959342.7808
-0.733,0.197,0.625,1.65,-1.22,-0.55,1784840959343.0981
-0.731,0.199,0.624,0.89,-0.85,-0.73,1784840959343.411
-0.733,0.2,0.624,0.15,-0.89,-0.61,1784840959343.7231
-0.735,0.202,0.631,-0.55,-1.34,-0.49,1784840959344.0261
-0.734,0.207,0.631,-0.18,-0.98,-0.46,1784840959344.3389
-0.73,0.206,0.627,0.79,-0.52,-0.61,1784840959344.6501
-0.733,0.204,0.621,0.95,-0.4,-0.82,1784840959344.9531
-0.732,0.21,0.628,0.31,-0.15,-0.85,1784840959345.261
-0.733,0.205,0.624,0.76,0.12,-1.13,1784840959345.569
-0.734,0.189,0.609,0.98,0.76,-1.98,1784840959345.876
-0.737,0.19,0.608,-0.18,0.85,-2.14,1784840959346.1802
-0.733,0.2,0.609,-0.15,0.7,-1.5,1784840959346.488
-0.732,0.209,0.618,1.31,1.04,-1.62,1784840959346.803
-0.735,0.207,0.618,3.54,1.19,-2.01,1784840959347.1082
-0.733,0.2,0.616,3.94,1.01,-2.17,1784840959347.424
-0.734,0.196,0.618,2.62,1.13,-1.68,1784840959347.7349
-0.735,0.198,0.623,1.5,1.5,-1.04,1784840959348.0598
-0.731,0.201,0.625,0.61,1.43,-0.31,1784840959348.375
-0.729,0.205,0.638,-0.61,1.71,-0.06,1784840959348.702
-0.735,0.204,0.638,-0.73,1.77,-0.03,1784840959349.0132
-0.734,0.204,0.623,0.4,1.59,0.24,1784840959349.3718
-0.729,0.199,0.609,1.59,1.31,0.4,1784840959349.687
-0.73,0.191,0.599,1.86,1.01,0.49,1784840959349.9907
-0.737,0.206,0.635,0.34,-0.15,0.18,1784840959350.5989
-0.739,0.207,0.635,1.43,0.52,-0.37,1784840959350.9053
-0.727,0.209,0.66,2.72,1.74,-0.89,1784840959351.3633
-0.73,0.191,0.638,4.52,3.14,-1.22,1784840959351.667
-0.735,0.185,0.626,3.33,4.27,-1.31,1784840959351.97
-0.735,0.185,0.626,0.89,4.43,-0.09,1784840959352.28
-0.735,0.203,0.616,1.04,3.94,0.09,1784840959352.585
-0.687,0.224,0.618,4.27,2.53,-1.22,1784840959360.3762
-0.728,0.193,0.59,3.72,3.45,-1.83,1784840959365.7588
-0.741,0.192,0.604,2.72,1.98,-0.82,1784840959375.941
-0.707,0.187,0.61,2.72,1.98,-0.82,1784840959386.3062
-0.726,0.187,0.626,1.5,1.83,-2.29,1784840959396.688
-0.72,0.186,0.627,1.19,1.98,-1.92,1784840959407.064
-0.72,0.195,0.64,-0.89,1.4,-1.04,1784840959420.423
-0.731,0.212,0.659,-1.46,1.59,-0.49,1784840959425.7312
-0.717,0.219,0.664,0.34,2.72,0.15,1784840959435.9849
-0.73,0.215,0.662,2.32,3.36,1.19,1784840959446.4053
-0.726,0.204,0.676,2.9,3.91,3.45,1784840959456.77
-0.744,0.198,0.672,3.14,3.97,4.33,1784840959467.146
-0.746,0.192,0.653,2.93,5.37,5.01,1784840959480.5
-0.754,0.212,0.625,2.14,7.26,6.01,1784840959485.8901
-0.753,0.256,0.604,3.75,7.9,9.0,1784840959496.153
-0.713,0.214,0.522,3.51,9.16,9.31,1784840959506.521
-0.7,0.176,0.541,-10.1,9.95,5.22,1784840959517.0469
-0.693,0.2,0.599,-21.61,5.62,6.04,1784840959530.444
-0.674,0.234,0.624,-23.87,1.31,6.84,1784840959536.0962
-0.679,0.23,0.621,-20.66,-0.49,2.59,1784840959546.3591
-0.695,0.21,0.656,-18.4,-1.5,-1.37,1784840959556.7412
-0.718,0.202,0.689,-17.03,-3.36,-2.35,1784840959567.289
-0.699,0.206,0.696,-13.25,-5.04,-1.01,1784840959580.678
-0.7,0.205,0.686,-9.46,-7.75,-1.31,1784840959586.0989
-0.73,0.194,0.678,-7.54,-8.24,-2.69,1784840959596.222
-0.744,0.192,0.661,-8.51,-8.0,-2.26,1784840959606.7231
-0.706,0.228,0.634,-8.73,-7.39,-1.4,1784840959616.895
-0.697,0.236,0.621,-6.62,-7.29,-2.96,1784840959627.292
-0.723,0.22,0.623,-2.56,-7.32,-6.56,1784840959640.6199
-0.753,0.196,0.615,2.62,-7.54,-8.09,1784840959646.1802
-0.757,0.164,0.597,4.46,-7.6,-7.69,1784840959656.229
-0.746,0.159,0.595,3.14,-7.14,-7.45,1784840959666.6948
-0.728,0.169,0.615,2.23,-6.29,-8.12,1784840959677.0452
-0.732,0.17,0.624,3.14,-4.73,-8.88,1784840959687.3113
-0.74,0.166,0.631,4.18,-2.75,-8.7,1784840959700.735
-0.754,0.169,0.638,3.63,-0.73,-7.78,1784840959706.092
-0.748,0.183,0.642,3.02,1.04,-5.34,1784840959716.396
-0.737,0.205,0.637,3.45,2.78,-3.05,1784840959726.722
-0.732,0.221,0.627,4.36,4.3,-1.43,1784840959737.005
-0.723,0.222,0.625,4.64,6.04,-0.49,1784840959750.476
-0.713,0.214,0.616,4.06,6.53,-0.12,1784840959755.911
-0.715,0.209,0.607,3.48,6.13,0.21,1784840959766.039
-0.716,0.209,0.598,2.41,5.95,1.16,1784840959776.382
-0.713,0.206,0.599,1.16,5.83,1.98,1784840959786.724
-0.709,0.206,0.619,-0.03,4.79,2.5,1784840959797.218
-0.707,0.207,0.642,-0.49,3.51,2.75,1784840959810.451
-0.709,0.203,0.659,0.09,2.2,2.99,1784840959816.311
-0.711,0.203,0.675,0.76,1.53,3.14,1784840959826.0833
-0.713,0.204,0.695,0.73,0.79,3.14,1784840959836.405
-0.722,0.196,0.685,2.2,0.34,2.9,1784840959846.908
-0.728,0.185,0.668,3.02,0.24,2.99,1784840959857.3281
-0.736,0.185,0.654,1.53,-0.64,3.81,1784840959870.523
-0.724,0.176,0.638,1.07,-0.85,4.0,1784840959876.044
-0.727,0.179,0.637,-0.34,-0.46,2.59,1784840959886.171
-0.745,0.191,0.654,-1.62,-1.46,2.53,1784840959896.753
-0.733,0.203,0.642,0.24,-1.74,2.59,1784840959907.078
-0.727,0.197,0.624,2.66,-1.19,1.83,1784840959917.332
-0.729,0.19,0.621,3.33,-1.1,1.25,1784840959930.722
-0.731,0.194,0.617,3.39,-0.73,1.07,1784840959936.133
-0.729,0.198,0.615,3.11,-0.18,1.22,1784840959946.403
-0.724,0.202,0.618,2.26,0.18,1.71,1784840959956.679
-0.72,0.207,0.623,1.31,0.31,1.8,1784840959967.473
-0.722,0.209,0.622,1.65,0.85,1.46,1784840959977.4028
-0.719,0.205,0.62,1.77,0.92,1.34,1784840959990.7598
-0.717,0.204,0.624,0.76,0.43,1.5,1784840959996.4932
-0.716,0.209,0.63,0.27,0.58,1.31,1784840960006.492
-0.725,0.206,0.636,0.52,0.76,0.55,1784840960016.809
-0.737,0.191,0.632,0.46,1.25,0.67,1784840960027.072
-0.714,0.194,0.63,-2.08,1.59,2.26,1784840960040.385
-0.706,0.211,0.638,-4.58,0.49,2.81,1784840960045.9731
-0.716,0.222,0.649,-4.79,-0.31,2.41,1784840960055.9138
-0.708,0.224,0.645,-3.69,-1.1,1.89,1784840960066.483
-0.702,0.219,0.64,-1.98,-2.93,1.01,1784840960076.801
-0.714,0.208,0.642,0.03,-4.58,0.12,1784840960087.0718
-0.725,0.199,0.642,1.98,-5.28,-0.24,1784840960100.425
-0.732,0.188,0.643,2.75,-5.22,0.06,1784840960105.917
-0.734,0.178,0.647,2.26,-4.15,0.55,1784840960116.1091
-0.726,0.196,0.65,1.16,-2.96,1.5,1784840960126.454
-0.721,0.212,0.648,1.43,-2.99,2.17,1784840960136.7769
-0.719,0.198,0.631,2.44,-2.56,2.23,1784840960147.205
-0.719,0.187,0.624,0.82,-1.95,1.83,1784840960160.4512
-0.721,0.191,0.623,-1.65,-2.08,1.71,1784840960166.116
-0.719,0.196,0.626,-2.44,-1.98,1.8,1784840960176.265
-0.72,0.199,0.624,-1.89,-1.71,1.62,1784840960186.477
-0.723,0.198,0.626,-1.19,-1.4,1.31,1784840960196.9731
-0.726,0.196,0.631,-0.55,-0.85,0.98,1784840960207.41
-0.723,0.198,0.631,-0.73,-0.46,0.95,1784840960220.6199
-0.727,0.199,0.628,-0.98,-0.06,0.82,1784840960225.962
-0.726,0.196,0.629,-1.34,1.1,0.92,1784840960236.146
-0.728,0.194,0.633,-2.11,2.41,0.85,1784840960246.628
-0.723,0.196,0.637,-3.72,3.2,1.34,1784840960256.918
-0.716,0.204,0.634,-4.97,3.39,1.83,1784840960267.373
-0.72,0.211,0.638,-5.07,3.14,2.08,1784840960280.674
-0.721,0.209,0.635,-4.94,3.08,2.29,1784840960286.169
-0.712,0.203,0.632,-4.97,2.9,2.08,1784840960296.261
-0.715,0.206,0.633,-4.52,2.32,1.59,1784840960306.596
-0.72,0.204,0.637,-3.39,1.95,1.46,1784840960316.979
-0.715,0.204,0.636,-2.11,1.53,1.53,1784840960327.487
-0.714,0.207,0.636,-1.1,0.85,1.22,1784840960340.857
-0.717,0.204,0.635,-0.03,0.43,0.98,1784840960346.3062
-0.719,0.201,0.639,0.34,0.4,0.98,1784840960356.294
-0.715,0.201,0.643,-0.21,0.34,0.98,1784840960366.813
-0.715,0.203,0.642,-0.7,0.0,0.85,1784840960377.096
-0.714,0.203,0.639,-1.04,-0.46,0.85,1784840960390.381
-0.712,0.205,0.638,-0.95,-0.89,0.73,1784840960395.9758
-0.719,0.2,0.64,-0.85,-1.19,0.55,1784840960406.168
-0.719,0.199,0.643,-0.49,-1.25,0.76,1784840960416.332
-0.717,0.2,0.638,-0.09,-1.43,0.89,1784840960426.801
-0.714,0.199,0.636,0.21,-1.31,0.67,1784840960437.179
-0.717,0.197,0.633,0.52,-1.34,0.4,1784840960450.471
-0.718,0.198,0.632,0.82,-1.4,0.52,1784840960456.043
-0.719,0.198,0.629,0.43,-1.43,0.58,1784840960466.04
-0.72,0.201,0.627,-0.18,-1.25,0.49,1784840960476.445
-0.716,0.203,0.631,-0.34,-1.22,0.27,1784840960486.83
-0.719,0.204,0.63,-0.06,-1.34,0.15,1784840960497.288
-0.716,0.203,0.63,0.52,-1.16,0.37,1784840960510.544
-0.717,0.201,0.632,1.28,-1.01,0.49,1784840960516.135
-0.719,0.201,0.626,1.01,-0.73,0.43,1784840960526.1892
-0.723,0.201,0.629,0.55,-0.34,0.24,1784840960536.517
-0.725,0.203,0.63,0.15,-0.03,0.31,1784840960547.009
-0.729,0.201,0.631,0.0,0.06,0.12,1784840960557.281
-0.729,0.197,0.631,0.03,0.34,0.24,1784840960570.6921
-0.73,0.199,0.632,-0.64,0.67,0.27,1784840960576.051
-0.729,0.2,0.635,-0.79,1.04,0.64,1784840960586.178
-0.727,0.203,0.641,-0.67,1.16,0.82,1784840960596.6458
-0.72,0.206,0.641,0.03,0.95,1.1,1784840960606.932
-0.717,0.208,0.638,0.89,0.67,1.31,1784840960617.547
-0.717,0.208,0.638,1.19,0.34,1.16,1784840960630.6428
-0.715,0.21,0.643,2.08,0.64,0.76,1784840960636.1401
-0.712,0.211,0.637,2.87,0.4,0.61,1784840960646.4219
-0.706,0.202,0.626,2.11,-0.31,0.43,1784840960656.775
-0.71,0.196,0.626,2.11,-0.31,0.43,1784840960667.004
-0.714,0.2,0.631,1.25,-0.12,0.03,1784840960677.58
-0.713,0.204,0.637,1.16,-0.31,0.21,1784840960690.8018
-0.715,0.204,0.637,1.83,-0.52,0.12,1784840960696.328
-0.72,0.199,0.633,2.14,-0.15,-0.46,1784840960706.297
-0.719,0.197,0.632,1.56,-0.24,-0.49,1784840960716.733
-0.722,0.196,0.633,1.13,-0.15,-0.58,1784840960727.16
-0.724,0.197,0.636,0.76,0.15,-0.61,1784840960740.4038
-0.721,0.201,0.639,0.7,0.09,-0.55,1784840960746.073
-0.721,0.203,0.634,1.25,0.18,-0.55,1784840960756.236
-0.72,0.202,0.631,1.53,0.43,-0.67,1784840960766.387
-0.719,0.202,0.631,1.62,0.46,-0.85,1784840960785.0728
-0.72,0.201,0.632,1.68,0.46,-0.85,1784840960788.457
-0.724,0.2,0.634,1.43,0.52,-0.92,1784840960800.582
-0.729,0.2,0.637,1.04,0.73,-0.55,1784840960806.036
-0.726,0.205,0.638,0.27,1.5,-0.06,1784840960816.1
-0.726,0.207,0.638,-0.7,2.08,0.09,1784840960826.5579
-0.725,0.208,0.637,-1.31,2.32,0.27,1784840960836.8718
-0.724,0.209,0.641,-1.31,2.66,0.18,1784840960847.271
-0.725,0.204,0.64,-1.43,2.66,0.24,1784840960860.654
-0.727,0.203,0.636,-1.83,2.62,0.52,1784840960866.126
-0.721,0.202,0.635,-2.04,2.84,0.4,1784840960876.21
-0.725,0.203,0.636,-1.95,2.72,0.03,1784840960886.505
-0.722,0.202,0.633,-1.25,2.2,0.37,1784840960897.168
-0.72,0.2,0.63,-0.67,1.8,0.31,1784840960907.455
-0.722,0.201,0.633,-0.95,1.74,-0.03,1784840960920.717
-0.726,0.204,0.635,-0.58,1.56,0.24,1784840960926.172
-0.723,0.201,0.632,-0.21,1.4,0.34,1784840960936.394
-0.727,0.2,0.632,-0.67,1.25,0.09,1784840960946.8547
-0.727,0.202,0.633,-1.59,1.37,0.06,1784840960956.9211
-0.724,0.203,0.636,-2.17,1.25,0.24,1784840960967.545
-0.725,0.205,0.631,-1.86,0.89,0.37,1784840960980.84
-0.728,0.203,0.629,-1.62,0.73,0.43,1784840960986.426
-0.725,0.206,0.631,-1.19,0.7,0.46,1784840960996.5068
-0.723,0.207,0.631,-0.49,0.58,0.52,1784840961007.003
-0.722,0.208,0.629,0.15,0.31,0.15,1784840961017.201
-0.722,0.205,0.625,0.37,0.27,-0.24,1784840961030.3792
-0.723,0.202,0.626,0.21,0.31,-0.31,1784840961035.8037
-0.723,0.198,0.626,-0.21,0.37,-0.34,1784840961046.0002
-0.722,0.198,0.627,-0.46,0.12,-0.06,1784840961056.3208
-0.724,0.203,0.627,-0.52,0.03,0.0,1784840961066.658
-0.722,0.206,0.63,-0.12,0.06,-0.12,1784840961077.068
-0.721,0.204,0.631,0.34,-0.03,-0.31,1784840961090.2642
-0.725,0.203,0.635,0.61,-0.27,-0.43,1784840961095.784
-0.727,0.201,0.634,0.95,-0.18,-0.34,1784840961105.992
-0.724,0.2,0.634,0.55,0.0,-0.18,1784840961116.384
-0.724,0.201,0.631,0.21,0.03,-0.03,1784840961126.749
-0.725,0.202,0.631,0.0,0.06,-0.06,1784840961137.106
-0.724,0.202,0.637,-0.31,0.09,0.15,1784840961150.525
-0.724,0.2,0.634,-0.55,0.09,0.31,1784840961156.021
-0.725,0.201,0.632,-0.7,-0.15,0.27,1784840961166.125
-0.724,0.202,0.633,-0.43,-0.31,0.21,1784840961176.4678
-0.726,0.2,0.631,-0.21,-0.34,0.09,1784840961186.84
-0.725,0.201,0.633,-0.09,-0.46,0.34,1784840961197.265
-0.724,0.202,0.633,0.03,-0.49,0.46,1784840961210.6318
-0.721,0.202,0.631,-0.03,-0.31,0.46,1784840961216.3047
-0.723,0.2,0.63,0.12,0.12,0.46,1784840961226.304
-0.722,0.2,0.626,-0.03,0.52,0.37,1784840961236.7449
-0.725,0.196,0.627,-0.64,0.49,0.27,1784840961247.214
-0.729,0.198,0.629,-1.19,0.27,0.34,1784840961257.312
-0.728,0.198,0.628,-1.19,0.21,0.27,1784840961270.688
-0.727,0.2,0.63,-1.19,0.18,0.06,1784840961276.09
-0.73,0.202,0.636,-0.58,-0.12,-0.12,1784840961286.3638
-0.728,0.202,0.636,0.18,-0.27,-0.09,1784840961296.691
-0.727,0.202,0.637,0.49,-0.31,-0.12,1784840961307.023
-0.726,0.203,0.635,0.27,-0.27,0.0,1784840961317.6
-0.721,0.204,0.635,-0.21,-0.4,0.18,1784840961330.9062
-0.72,0.203,0.632,-0.27,-0.55,0.18,1784840961336.254
-0.722,0.203,0.633,-0.21,-0.64,0.34,1784840961346.507
-0.72,0.206,0.634,-0.03,-0.7,0.34,1784840961356.941
-0.719,0.204,0.633,0.31,-0.67,0.43,1784840961367.252
-0.72,0.205,0.63,0.43,-0.76,0.52,1784840961380.3608
-0.722,0.201,0.624,0.37,-0.79,0.52,1784840961385.977
-0.724,0.197,0.622,0.03,-0.7,0.4,1784840961396.091
-0.726,0.198,0.623,-0.43,-0.79,0.52,1784840961406.373
-0.727,0.198,0.624,-0.79,-0.58,0.49,1784840961416.8582
-0.726,0.202,0.626,-0.76,-0.4,0.46,1784840961427.302
-0.727,0.203,0.628,-0.37,-0.27,0.34,1784840961440.5608
-0.726,0.202,0.629,0.21,-0.12,0.12,1784840961446.1372
-0.724,0.2,0.627,0.49,0.09,0.06,1784840961456.1711
-0.723,0.198,0.629,0.52,0.12,0.03,1784840961466.603
-0.723,0.197,0.63,0.52,0.21,0.06,1784840961476.9631
-0.722,0.198,0.63,0.24,0.24,0.06,1784840961487.29
-0.722,0.199,0.631,0.06,0.18,0.03,1784840961500.632
-0.726,0.2,0.633,-0.03,0.06,-0.06,1784840961506.1318
-0.729,0.2,0.634,0.24,-0.12,-0.12,1784840961516.223
-0.73,0.198,0.64,0.4,0.0,-0.09,1784840961526.651
-0.726,0.199,0.64,0.06,0.12,0.12,1784840961536.942
-0.725,0.203,0.639,-0.09,0.06,0.37,1784840961547.326
-0.724,0.202,0.636,-0.03,0.06,0.34,1784840961560.785
-0.72,0.202,0.633,0.21,0.06,0.27,1784840961566.189
-0.719,0.2,0.631,0.27,-0.27,0.4,1784840961576.3462
-0.72,0.2,0.629,0.03,-0.67,0.4,1784840961586.7258
-0.72,0.2,0.629,-0.12,-0.82,0.27,1784840961597.0408
-0.72,0.2,0.628,-0.15,-0.89,0.15,1784840961607.376
-0.722,0.198,0.627,0.15,-0.98,-0.03,1784840961620.854
-0.724,0.199,0.625,0.34,-1.07,-0.27,1784840961626.377
-0.724,0.202,0.626,0.43,-1.1,-0.34,1784840961636.3362
-0.727,0.203,0.626,0.49,-1.07,-0.52,1784840961650.473
-0.73,0.2,0.63,0.64,-0.58,-0.52,1784840961656.9338
-0.727,0.196,0.634,0.18,0.09,-0.12,1784840961670.271
-0.732,0.197,0.636,-1.07,0.27,0.03,1784840961675.9412
-0.725,0.203,0.636,-1.83,0.4,0.27,1784840961686.034
-0.724,0.205,0.631,-2.01,0.79,0.27,1784840961696.366
-0.72,0.201,0.632,-1.59,1.13,0.21,1784840961706.6592
-0.721,0.197,0.632,-0.98,0.79,0.21,1784840961717.292
-0.725,0.196,0.627,-0.37,0.52,0.21,1784840961730.5322
-0.723,0.199,0.627,0.06,0.43,0.43,1784840961736.017
-0.722,0.2,0.626,0.12,0.27,0.4,1784840961746.397
-0.724,0.201,0.63,0.06,0.15,0.06,1784840961756.736
-0.726,0.198,0.63,0.4,0.09,-0.24,1784840961766.9592
-0.726,0.196,0.632,0.67,0.21,-0.4,1784840961777.3582
-0.725,0.197,0.631,0.95,0.03,-0.46,1784840961790.745
