ax,ay,az,gx,gy,gz,timestamp_ms
0.347,-0.328,-0.916,0.73,5.37,4.49,1784845334941.4202
0.358,-0.335,-0.908,0.43,5.55,5.1,1784845334942.2651
0.369,-0.342,-0.893,0.76,6.07,5.31,1784845334943.1272
0.376,-0.349,-0.881,1.59,6.74,4.88,1784845334943.8027
0.373,-0.355,-0.875,3.27,7.6,3.85,1784845334944.6243
0.364,-0.358,-0.872,5.71,8.45,2.78,1784845334945.586
0.353,-0.358,-0.877,8.12,8.82,1.68,1784845334946.287
0.356,-0.344,-0.887,9.52,8.58,1.04,1784845334946.989
0.365,-0.33,-0.899,9.16,8.21,1.07,1784845334948.075
0.367,-0.321,-0.906,6.56,7.78,0.67,1784845334948.686
0.372,-0.323,-0.907,2.93,7.14,0.03,1784845334949.454
0.382,-0.332,-0.903,0.06,6.71,-0.7,1784845334950.951
0.382,-0.337,-0.905,-1.71,6.23,-1.4,1784845334952.4
0.377,-0.341,-0.913,-2.75,6.01,-2.11,1784845334953.068
0.373,-0.345,-0.911,-3.75,6.01,-2.75,1784845334953.55
0.373,-0.351,-0.907,-4.43,6.1,-3.11,1784845334954.2698
0.371,-0.349,-0.901,-4.33,6.68,-3.42,1784845334955.342
0.374,-0.346,-0.899,-3.08,7.51,-3.33,1784845334955.898
0.381,-0.336,-0.9,-2.23,8.27,-3.36,1784845334956.379
0.383,-0.328,-0.899,-2.04,8.85,-3.48,1784845334956.8708
0.382,-0.321,-0.907,-1.59,9.64,-3.85,1784845334957.429
0.385,-0.313,-0.91,-1.68,10.19,-4.09,1784845334957.952
0.382,-0.309,-0.901,-2.53,10.59,-3.94,1784845334958.4329
0.386,-0.308,-0.889,-3.57,10.9,-3.91,1784845334958.908
0.388,-0.311,-0.883,-3.36,11.08,-4.0,1784845334959.384
0.382,-0.308,-0.878,-2.14,11.72,-4.21,1784845334959.852
0.381,-0.3,-0.87,-0.79,12.57,-4.27,1784845334960.331
0.38,-0.291,-0.862,0.73,13.03,-3.85,1784845334960.8152
0.376,-0.286,-0.855,1.86,13.34,-3.45,1784845334961.6648
0.372,-0.281,-0.85,2.08,13.52,-2.96,1784845334962.2458
0.374,-0.281,-0.834,1.95,13.52,-2.38,1784845334962.827
0.379,-0.283,-0.823,2.93,13.4,-2.26,1784845334963.31
0.381,-0.285,-0.822,4.0,13.06,-2.75,1784845334963.794
0.384,-0.283,-0.83,4.03,12.57,-3.02,1784845334964.295
0.386,-0.282,-0.837,3.88,12.12,-3.23,1784845334964.801
0.381,-0.283,-0.845,3.3,11.47,-3.02,1784845334965.2202
0.379,-0.284,-0.842,2.35,10.86,-2.72,1784845334965.62
0.384,-0.291,-0.831,1.53,10.35,-2.69,1784845334966.025
0.392,-0.299,-0.817,1.77,9.86,-2.62,1784845334966.424
0.4,-0.296,-0.807,3.05,9.52,-2.44,1784845334966.982
0.413,-0.286,-0.812,4.24,9.28,-2.44,1784845334967.953
0.415,-0.279,-0.831,4.3,8.82,-2.75,1784845334968.3699
0.407,-0.276,-0.849,2.62,8.27,-3.08,1784845334968.769
0.408,-0.276,-0.851,0.46,7.81,-3.17,1784845334969.16
0.412,-0.277,-0.845,-0.4,7.32,-2.81,1784845334969.5571
0.411,-0.283,-0.838,-0.4,6.99,-2.59,1784845334969.957
0.414,-0.291,-0.83,-0.79,6.68,-2.38,1784845334970.368
0.427,-0.301,-0.824,-0.4,6.29,-1.8,1784845334970.788
0.439,-0.298,-0.83,1.8,6.04,-1.22,1784845334971.2131
0.439,-0.285,-0.844,3.63,6.16,-0.55,1784845334971.694
0.44,-0.276,-0.857,3.54,6.16,-0.21,1784845334972.112
0.439,-0.271,-0.865,1.83,5.68,0.18,1784845334972.5298
0.442,-0.274,-0.857,-0.15,5.46,0.82,1784845334972.935
0.449,-0.286,-0.845,-1.53,5.68,1.31,1784845334973.3499
0.45,-0.298,-0.83,-1.19,6.1,1.59,1784845334973.763
0.446,-0.302,-0.821,0.34,6.5,1.83,1784845334974.1702
0.445,-0.305,-0.818,2.2,6.74,2.41,1784845334974.612
0.451,-0.303,-0.832,3.69,6.74,3.05,1784845334978.34
0.457,-0.296,-0.847,4.24,6.81,3.88,1784845334979.465
0.458,-0.294,-0.85,3.66,7.02,4.58,1784845334982.613
0.457,-0.295,-0.845,2.69,6.74,4.82,1784845334985.846
0.452,-0.299,-0.835,1.74,6.32,4.88,1784845334986.447
0.455,-0.308,-0.831,1.4,5.89,4.88,1784845334987.003
0.449,-0.309,-0.829,1.4,5.86,4.36,1784845334987.3691
0.441,-0.298,-0.825,1.71,5.86,4.0,1784845334987.8171
0.439,-0.29,-0.832,1.53,5.62,4.49,1784845335012.554
0.428,-0.294,-0.829,0.0,5.37,5.07,1784845335013.109
0.431,-0.302,-0.829,-1.65,5.04,5.77,1784845335014.2
0.433,-0.315,-0.828,-2.01,5.1,6.35,1784845335014.7788
0.423,-0.328,-0.826,-0.67,5.43,6.62,1784845335015.1191
0.424,-0.333,-0.821,1.13,5.92,6.93,1784845335015.435
0.435,-0.334,-0.818,2.93,6.29,6.93,1784845335015.752
0.436,-0.331,-0.823,4.7,6.44,6.71,1784845335016.0608
0.433,-0.323,-0.833,5.55,6.38,6.87,1784845335016.649
0.437,-0.317,-0.837,4.91,5.92,6.99,1784845335017.3398
0.444,-0.317,-0.836,3.3,5.31,6.84,1784845335018.281
0.449,-0.321,-0.83,1.98,4.82,6.38,1784845335018.6748
0.45,-0.326,-0.827,1.53,4.55,5.58,1784845335019.0762
0.444,-0.328,-0.822,1.37,4.3,5.1,1784845335019.5178
0.442,-0.334,-0.818,1.31,4.12,4.91,1784845335020.062
0.451,-0.336,-0.818,1.56,3.54,4.97,1784845335020.411
0.459,-0.336,-0.826,2.11,3.48,5.07,1784845335020.7732
0.452,-0.338,-0.836,2.17,3.54,5.46,1784845335021.096
0.448,-0.34,-0.843,1.22,3.33,6.32,1784845335021.465
0.457,-0.343,-0.843,0.0,2.87,6.87,1784845335021.987
0.469,-0.341,-0.841,-0.76,2.47,6.84,1784845335022.3901
0.472,-0.341,-0.841,-1.62,2.47,6.68,1784845335022.746
0.463,-0.344,-0.844,-2.84,2.2,6.44,1784845335023.103
0.46,-0.35,-0.841,-4.39,1.8,6.23,1784845335023.831
0.466,-0.353,-0.844,-5.77,1.43,6.01,1784845335024.148
0.468,-0.357,-0.844,-6.01,1.59,5.62,1784845335024.561
0.464,-0.363,-0.838,-5.1,2.08,5.19,1784845335027.3499
0.464,-0.367,-0.83,-3.27,2.69,4.91,1784845335027.6743
0.468,-0.368,-0.827,-0.92,3.39,4.36,1784845335028.138
0.468,-0.369,-0.829,1.62,4.24,4.0,1784845335028.5618
0.463,-0.365,-0.832,3.81,5.01,3.91,1784845335028.915
0.462,-0.353,-0.834,5.25,5.43,3.94,1784845335029.6252
0.459,-0.342,-0.83,5.43,5.55,4.0,1784845335030.271
0.461,-0.339,-0.828,4.82,5.34,3.85,1784845335030.684
0.462,-0.337,-0.822,3.91,4.82,3.57,1784845335031.075
0.459,-0.337,-0.822,2.81,4.36,3.48,1784845335032.2822
0.461,-0.341,-0.82,1.59,3.91,3.51,1784845335036.607
0.466,-0.345,-0.813,0.4,3.6,3.33,1784845335039.331
0.467,-0.349,-0.802,0.21,3.3,3.23,1784845335040.8828
0.467,-0.349,-0.791,0.95,3.17,3.51,1784845335041.524
0.47,-0.344,-0.788,1.71,2.78,3.97,1784845335041.9167
0.47,-0.341,-0.787,1.98,2.14,4.33,1784845335042.415
0.464,-0.341,-0.787,1.77,1.8,4.52,1784845335042.8213
0.464,-0.347,-0.786,1.71,1.46,4.73,1784845335043.1948
0.465,-0.354,-0.786,1.74,1.1,4.7,1784845335045.522
0.465,-0.355,-0.778,2.11,0.95,5.04,1784845335046.8118
0.463,-0.356,-0.784,3.08,0.67,6.1,1784845335047.477
0.454,-0.359,-0.79,3.27,0.34,7.26,1784845335048.408
0.448,-0.371,-0.792,2.93,0.09,8.06,1784845335049.086
0.449,-0.374,-0.793,2.41,-0.21,8.91,1784845335049.957
0.457,-0.387,-0.794,2.78,-0.43,9.49,1784845335051.26
0.462,-0.402,-0.79,3.97,-0.55,8.97,1784845335051.885
0.464,-0.398,-0.787,5.4,-0.82,7.9,1784845335052.272
0.459,-0.387,-0.799,6.68,-1.28,6.78,1784845335053.15
0.449,-0.381,-0.811,6.23,-2.01,5.58,1784845335053.6409
0.449,-0.378,-0.818,3.78,-3.05,4.73,1784845335054.2632
0.447,-0.38,-0.814,1.28,-4.09,3.94,1784845335054.621
0.446,-0.389,-0.813,-0.09,-4.64,3.08,1784845335054.9739
0.446,-0.389,-0.813,-0.43,-4.52,2.17,1784845335055.327
0.449,-0.397,-0.816,0.06,-4.43,0.98,1784845335055.6792
0.449,-0.4,-0.813,1.04,-4.94,0.03,1784845335056.0342
0.452,-0.39,-0.821,1.37,-5.13,-0.55,1784845335056.391
0.449,-0.375,-0.832,0.31,-5.25,-0.82,1784845335056.745
0.439,-0.365,-0.835,0.31,-5.25,-0.82,1784845335057.0933
0.439,-0.36,-0.836,-1.37,-5.89,-1.19,1784845335057.446
0.441,-0.359,-0.837,-2.75,-6.5,-1.62,1784845335057.7988
0.442,-0.365,-0.835,-4.15,-6.65,-1.92,1784845335058.147
0.446,-0.369,-0.83,-4.49,-6.93,-2.26,1784845335058.503
0.453,-0.361,-0.834,-3.66,-7.11,-2.29,1784845335058.8523
0.451,-0.356,-0.835,-2.87,-6.71,-2.2,1784845335059.2
0.449,-0.36,-0.832,-2.44,-6.13,-2.29,1784845335059.545
0.449,-0.366,-0.824,-1.4,-5.8,-2.56,1784845335059.895
0.455,-0.367,-0.827,1.01,-5.4,-2.66,1784845335060.3188
0.452,-0.36,-0.832,3.42,-4.49,-2.5,1784845335060.714
0.446,-0.35,-0.838,4.91,-3.72,-2.26,1784845335061.0981
0.438,-0.341,-0.841,5.65,-3.14,-1.8,1784845335061.502
0.429,-0.341,-0.839,5.01,-3.05,-1.59,1784845335061.9268
0.425,-0.346,-0.83,4.43,-2.84,-1.19,1784845335062.536
0.424,-0.352,-0.811,5.04,-2.5,-1.07,1784845335062.922
0.419,-0.349,-0.799,6.65,-2.23,-1.16,1784845335063.2751
0.408,-0.342,-0.788,8.91,-1.59,-1.53,1784845335063.624
0.398,-0.335,-0.774,11.78,-0.79,-1.65,1784845335063.981
0.39,-0.324,-0.757,14.8,-0.18,-1.46,1784845335064.3389
0.379,-0.319,-0.738,17.46,0.27,-1.46,1784845335064.6929
0.359,-0.32,-0.711,20.54,0.79,-1.71,1784845335065.0518
0.339,-0.322,-0.678,24.81,1.25,-2.29,1784845335065.418
0.318,-0.323,-0.634,30.76,1.71,-3.17,1784845335065.772
0.3,-0.316,-0.579,38.79,2.04,-4.58,1784845335066.179
0.297,-0.295,-0.516,48.62,1.28,-5.8,1784845335066.53
0.283,-0.27,-0.466,59.02,-0.58,-6.68,1784845335067.34
0.246,-0.246,-0.423,68.58,-3.27,-7.51,1784845335067.6968
0.194,-0.225,-0.394,76.24,-7.17,-8.09,1784845335068.042
0.149,-0.203,-0.379,81.85,-12.3,-8.7,1784845335068.398
0.113,-0.181,-0.366,86.25,-18.49,-8.73,1784845335068.7517
0.084,-0.172,-0.354,89.54,-25.33,-6.35,1784845335069.108
0.071,-0.161,-0.351,91.53,-33.05,-5.77,1784845335069.4568
0.012,-0.151,-0.342,90.82,-40.56,-9.86,1784845335069.809
-0.036,-0.173,-0.315,87.25,-48.68,-9.64,1784845335070.171
-0.067,-0.209,-0.284,83.77,-57.86,-9.37,1784845335070.525
-0.099,-0.237,-0.238,81.76,-67.96,-10.19,1784845335070.909
-0.113,-0.267,-0.22,82.37,-78.65,-9.77,1784845335071.2659
-0.13,-0.292,-0.224,85.3,-88.32,-9.0,1784845335071.6182
-0.17,-0.302,-0.246,88.17,-97.2,-8.09,1784845335071.9731
-0.202,-0.301,-0.298,90.24,-104.43,-5.37,1784845335072.322
-0.236,-0.292,-0.343,90.4,-109.2,-0.31,1784845335072.681
-0.27,-0.293,-0.37,87.28,-112.49,6.47,1784845335073.038
-0.308,-0.321,-0.378,82.89,-115.05,13.7,1784845335073.396
-0.341,-0.384,-0.327,80.54,-117.04,21.21,1784845335073.75
-0.359,-0.507,-0.263,90.12,-124.88,39.49,1784845335074.5852
-0.378,-0.545,-0.27,101.14,-127.45,52.46,1784845335075.202
-0.766,-0.624,-0.141,13.12,14.28,1.16,1784845335076.195
-0.76,-0.62,-0.142,11.87,14.89,0.52,1784845335076.554
-0.762,-0.621,-0.141,8.76,14.98,0.76,1784845335076.9292
-0.765,-0.626,-0.139,5.89,15.5,1.25,1784845335077.2832
-0.779,-0.626,-0.141,3.85,16.39,1.74,1784845335077.631
-0.788,-0.618,-0.138,2.26,17.3,2.59,1784845335077.978
-0.78,-0.612,-0.134,1.56,17.64,3.23,1784845335078.324
-0.769,-0.603,-0.126,1.89,17.18,3.17,1784845335078.67
-0.759,-0.591,-0.122,2.08,16.21,2.75,1784845335079.0442
-0.749,-0.587,-0.119,0.95,14.5,2.2,1784845335079.409
-0.745,-0.589,-0.119,-1.1,11.87,0.95,1784845335079.7551
-0.748,-0.595,-0.125,-3.23,8.73,-0.24,1784845335080.1877
-0.759,-0.607,-0.133,-4.82,6.56,-1.01,1784845335090.508
-0.768,-0.618,-0.136,-4.79,5.01,-1.31,1784845335100.7612
-0.777,-0.619,-0.151,-3.2,4.12,-1.4,1784845335111.167
-0.785,-0.627,-0.177,-0.82,3.88,-0.89,1784845335121.598
-0.797,-0.644,-0.218,2.17,5.25,-1.5,1784845335135.062
-0.812,-0.64,-0.266,6.13,8.48,-2.59,1784845335140.417
-0.816,-0.632,-0.323,10.16,13.12,-2.41,1784845335150.767
-0.853,-0.591,-0.392,13.25,18.86,-2.23,1784845335161.314
-0.874,-0.548,-0.468,16.88,28.05,0.15,1784845335171.785
-0.879,-0.529,-0.539,21.64,39.52,2.35,1784845335185.0022
-0.882,-0.52,-0.601,28.87,52.58,3.75,1784845335190.6108
-0.857,-0.547,-0.731,40.31,69.89,5.83,1784845335201.1787
-0.9,-0.533,-0.809,54.9,92.32,6.5,1784845335211.7498
-0.911,-0.44,-0.78,77.46,114.69,12.42,1784845335224.979
-0.874,-0.357,-0.775,107.15,136.45,23.41,1784845335230.918
-0.89,-0.36,-0.797,133.98,158.33,31.74,1784845335244.3699
-0.939,-0.397,-0.836,148.87,178.26,32.93,1784845335250.3848
-0.987,-0.428,-0.886,153.05,193.55,30.61,1784845335261.3662
-0.984,-0.49,-0.973,151.98,204.6,28.14,1784845335274.848
-0.963,-0.575,-1.087,148.72,214.18,23.56,1784845335282.68
-0.949,-0.661,-1.169,147.56,222.72,17.46,1784845335291.7559
-0.96,-0.723,-1.225,147.68,229.62,10.86,1784845335305.0198
-0.995,-0.773,-1.242,149.48,236.52,4.58,1784845335310.724
-1.002,-0.839,-1.238,153.51,242.38,-1.86,1784845335321.7761
-0.998,-0.882,-1.211,154.88,249.12,-10.93,1784845335335.1282
-1.034,-0.916,-1.118,154.36,254.04,-20.66,1784845335340.9001
-1.03,-0.948,-1.057,145.63,254.92,-29.79,1784845335354.479
-1.007,-1.012,-0.999,128.97,255.78,-41.17,1784845335360.439
-0.998,-1.097,-0.947,111.79,256.72,-53.71,1784845335371.359
-0.987,-1.167,-0.911,98.33,259.16,-63.72,1784845335384.6982
-0.981,-1.22,-0.861,92.81,263.71,-70.77,1784845335390.3967
-0.989,-1.249,-0.781,96.07,268.53,-77.55,1784845335401.52
-0.99,-1.256,-0.691,106.42,272.16,-85.21,1784845335414.741
-0.981,-1.246,-0.637,118.9,274.3,-92.93,1784845335422.175
-0.972,-1.226,-0.576,128.42,274.82,-99.22,1784845335431.731
-0.939,-1.214,-0.497,131.2,272.26,-105.53,1784845335444.8408
-0.903,-1.207,-0.426,128.24,266.58,-114.66,1784845335451.018
-0.87,-1.195,-0.358,121.83,260.14,-122.87,1784845335464.447
-0.838,-1.168,-0.311,114.96,254.25,-129.0,1784845335470.456
-0.834,-1.123,-0.268,109.35,248.73,-131.75,1784845335481.6538
-0.818,-1.047,-0.205,104.01,241.65,-129.4,1784845335494.9949
-0.793,-0.993,-0.213,96.65,229.74,-132.42,1784845335501.08
-0.739,-0.979,-0.197,86.03,219.0,-136.94,1784845335514.43
-0.682,-0.951,-0.188,78.43,210.58,-139.01,1784845335531.6758
-0.65,-0.899,-0.203,75.93,205.15,-137.27,1784845335532.4822
-0.634,-0.834,-0.225,75.35,201.27,-132.15,1784845335544.763
-0.633,-0.755,-0.225,70.16,194.92,-127.69,1784845335550.9272
-0.626,-0.668,-0.166,51.39,183.05,-123.94,1784845335561.8691
-0.582,-0.607,-0.069,18.22,166.66,-118.26,1784845335574.8743
-0.509,-0.59,0.014,-19.96,148.59,-110.11,1784845335580.7449
-0.417,-0.591,0.07,-53.8,131.84,-101.32,1784845335591.86
-0.334,-0.61,0.093,-78.92,117.71,-93.72,1784845335605.137
-0.27,-0.631,0.113,-95.83,106.33,-86.49,1784845335611.245
-0.229,-0.657,0.104,-103.76,95.8,-80.05,1784845335621.809
-0.206,-0.696,0.068,-104.19,87.65,-74.65,1784845335635.112
-0.172,-0.751,0.066,-99.22,82.19,-70.47,1784845335640.7712
-0.172,-0.751,0.066,-85.91,78.59,-68.42,1784845335651.7817
-0.125,-0.817,0.095,-64.39,76.36,-67.17,1784845335664.895
-0.08,-0.88,0.12,-38.67,75.47,-67.45,1784845335671.156
-0.038,-0.897,0.151,-10.07,75.17,-66.9,1784845335681.3152
0.006,-0.888,0.172,15.32,73.73,-65.68,1784845335691.8489
0.04,-0.875,0.179,15.32,73.73,-65.68,1784845335705.272
0.077,-0.875,0.196,34.58,70.44,-65.22,1784845335711.1318
0.107,-0.881,0.247,49.04,66.23,-66.53,1784845335721.5847
0.104,-0.864,0.275,61.16,59.82,-68.76,1784845335735.294
0.088,-0.85,0.25,72.63,51.91,-70.07,1784845335740.949
0.087,-0.837,0.21,79.26,42.66,-70.44,1784845335751.528
0.098,-0.799,0.184,78.43,31.74,-70.5,1784845335764.595
0.124,-0.754,0.167,72.79,19.84,-71.02,1784845335770.4202
0.152,-0.727,0.157,65.61,6.81,-71.9,1784845335781.2622
0.177,-0.711,0.151,55.24,-5.8,-72.21,1784845335791.414
0.208,-0.706,0.134,41.87,-17.55,-70.86,1784845335805.149
0.224,-0.72,0.105,27.41,-28.44,-68.91,1784845335811.004
0.217,-0.737,0.07,15.26,-38.42,-68.06,1784845335821.25
0.218,-0.753,0.037,9.03,-46.05,-66.93,1784845335831.663
0.242,-0.759,0.008,6.81,-51.76,-65.34,1784845335845.292
0.283,-0.729,-0.024,5.19,-57.31,-63.88,1784845335851.3657
0.318,-0.685,-0.052,0.24,-63.33,-61.89,1784845335861.4358
0.335,-0.674,-0.13,-8.55,-70.28,-60.12,1784845335871.865
0.335,-0.7,-0.216,-19.07,-75.84,-59.79,1784845335885.192
0.333,-0.727,-0.274,-28.78,-79.59,-60.95,1784845335890.95
0.323,-0.728,-0.318,-33.88,-81.51,-63.39,1784845335901.519
0.325,-0.734,-0.339,-31.25,-80.66,-65.37,1784845335914.816
0.344,-0.73,-0.349,-26.09,-78.95,-66.44,1784845335920.5242
0.36,-0.71,-0.359,-23.13,-78.07,-66.71,1784845335931.375
0.379,-0.693,-0.37,-21.33,-77.76,-65.8,1784845335941.955
0.407,-0.676,-0.404,-20.36,-78.28,-64.18,1784845335955.1182
0.422,-0.657,-0.463,-21.27,-78.31,-62.93,1784845335960.8
0.412,-0.637,-0.509,-25.27,-77.64,-62.38,1784845335971.487
0.396,-0.636,-0.536,-31.56,-77.09,-62.38,1784845335984.781
0.387,-0.651,-0.534,-37.97,-76.63,-62.81,1784845335990.5012
0.404,-0.678,-0.512,-41.41,-75.84,-63.05,1784845336001.2468
0.417,-0.713,-0.492,-40.01,-73.89,-63.57,1784845336011.892
0.42,-0.726,-0.46,-33.08,-70.56,-62.53,1784845336024.9758
0.432,-0.726,-0.437,-19.81,-67.48,-60.52,1784845336030.8171
0.434,-0.72,-0.473,-6.29,-64.88,-59.24,1784845336041.3042
0.42,-0.691,-0.495,2.75,-61.46,-58.02,1784845336054.6912
0.41,-0.668,-0.501,7.32,-58.84,-54.63,1784845336060.3142
0.398,-0.661,-0.52,6.84,-57.68,-52.46,1784845336070.773
0.393,-0.656,-0.504,4.7,-56.22,-51.36,1784845336081.5251
0.408,-0.661,-0.5,3.81,-55.54,-49.71,1784845336094.748
0.429,-0.664,-0.484,5.4,-54.9,-48.8,1784845336100.503
0.455,-0.666,-0.48,10.28,-54.29,-48.07,1784845336111.037
0.46,-0.676,-0.506,13.34,-54.14,-47.4,1784845336121.6782
0.43,-0.692,-0.543,12.24,-54.23,-48.13,1784845336134.938
0.43,-0.688,-0.545,10.96,-52.49,-49.96,1784845336140.705
0.444,-0.682,-0.526,12.3,-49.65,-53.44,1784845336151.367
0.393,-0.664,-0.542,12.36,-51.3,-52.8,1784845336164.9102
0.439,-0.687,-0.54,11.9,-54.57,-39.49,1784845336170.5178
0.48,-0.635,-0.542,12.33,-53.32,-40.53,1784845336181.221
0.446,-0.598,-0.544,10.53,-51.39,-46.3,1784845336191.6643
0.445,-0.651,-0.556,4.64,-53.62,-43.67,1784845336205.083
0.453,-0.67,-0.563,-2.01,-57.1,-44.5,1784845336210.772
0.446,-0.668,-0.574,-5.01,-58.47,-46.75,1784845336221.271
0.436,-0.688,-0.586,-5.22,-57.19,-45.5,1784845336231.97
0.44,-0.693,-0.578,-2.69,-55.3,-43.06,1784845336245.0781
0.455,-0.674,-0.574,1.43,-53.22,-42.85,1784845336251.1758
0.459,-0.658,-0.571,4.61,-50.51,-44.25,1784845336261.196
0.449,-0.649,-0.571,6.13,-50.36,-44.19,1784845336271.8599
0.451,-0.642,-0.596,6.41,-52.46,-42.76,1784845336285.0718
0.453,-0.625,-0.626,5.65,-53.29,-43.03,1784845336290.852
0.44,-0.621,-0.656,2.62,-53.25,-44.56,1784845336301.209
0.424,-0.618,-0.662,-2.11,-52.92,-45.5,1784845336311.734
0.423,-0.616,-0.638,-4.58,-52.31,-45.72,1784845336324.894
0.426,-0.618,-0.635,-4.3,-52.58,-46.14,1784845336331.179
0.446,-0.619,-0.634,-2.72,-52.28,-44.53,1784845336341.133
0.452,-0.616,-0.649,-0.89,-51.45,-44.53,1784845336352.208
0.441,-0.603,-0.684,-0.37,-51.0,-45.75,1784845336364.996
0.435,-0.584,-0.697,1.01,-49.99,-46.11,1784845336370.787
0.44,-0.586,-0.709,2.53,-48.95,-46.63,1784845336381.4988
0.433,-0.596,-0.717,1.56,-48.13,-48.43,1784845336391.697
0.433,-0.595,-0.709,0.95,-47.3,-48.68,1784845336412.1567
0.439,-0.586,-0.704,2.66,-46.14,-47.36,1784845336415.0898
0.438,-0.58,-0.725,3.91,-45.5,-45.87,1784845336421.286
0.444,-0.572,-0.753,3.17,-46.17,-44.37,1784845336431.6301
0.454,-0.564,-0.772,0.55,-46.63,-42.51,1784845336445.089
0.456,-0.556,-0.778,-3.88,-46.05,-41.69,1784845336451.019
0.448,-0.553,-0.759,-6.68,-44.92,-42.15,1784845336461.21
0.444,-0.563,-0.736,-5.95,-43.4,-43.37,1784845336471.77
0.445,-0.577,-0.713,-3.36,-40.93,-44.65,1784845336485.0718
0.441,-0.591,-0.688,1.56,-38.3,-45.2,1784845336490.596
0.442,-0.584,-0.698,6.93,-36.77,-44.98,1784845336501.619
0.441,-0.559,-0.741,9.77,-35.95,-44.28,1784845336512.0718
0.439,-0.542,-0.774,9.09,-35.43,-43.67,1784845336524.936
0.445,-0.532,-0.79,5.4,-35.98,-43.37,1784845336530.814
0.441,-0.521,-0.792,0.79,-36.53,-43.61,1784845336541.145
0.431,-0.518,-0.778,-3.54,-36.5,-43.55,1784845336554.1592
0.429,-0.519,-0.751,-7.84,-36.07,-43.4,1784845336565.063
0.434,-0.529,-0.703,-9.31,-35.92,-43.46,1784845336570.789
0.456,-0.546,-0.69,-5.8,-35.89,-43.46,1784845336581.1719
0.452,-0.558,-0.714,-1.1,-35.04,-44.16,1784845336591.679
0.439,-0.557,-0.743,0.89,-33.75,-42.85,1784845336605.418
0.436,-0.538,-0.743,1.86,-32.84,-40.56,1784845336610.805
0.431,-0.522,-0.73,1.62,-32.29,-39.86,1784845336621.307
0.429,-0.51,-0.712,0.61,-32.23,-39.67,1784845336631.7341
0.42,-0.505,-0.691,0.7,-32.26,-40.59,1784845336645.136
0.408,-0.497,-0.668,1.68,-32.47,-41.51,1784845336656.4
0.412,-0.498,-0.659,2.35,-33.6,-41.72,1784845336660.997
0.421,-0.495,-0.676,1.92,-35.1,-42.21,1784845336671.7373
0.405,-0.483,-0.7,0.85,-36.29,-42.24,1784845336685.037
0.389,-0.476,-0.724,-3.23,-37.9,-41.66,1784845336690.76
0.388,-0.47,-0.733,-10.71,-39.95,-42.05,1784845336701.324
0.375,-0.467,-0.71,-17.12,-41.75,-44.16,1784845336712.1501
0.378,-0.478,-0.664,-19.17,-42.97,-43.73,1784845336725.281
0.391,-0.475,-0.65,-16.36,-44.31,-44.71,1784845336730.999
0.39,-0.464,-0.673,-11.75,-45.35,-46.54,1784845336741.652
0.365,-0.444,-0.7,-9.98,-46.05,-47.09,1784845336755.01
0.365,-0.42,-0.746,-13.31,-47.67,-46.48,1784845336760.7
0.37,-0.406,-0.796,-18.65,-49.1,-45.99,1784845336771.2532
0.35,-0.39,-0.801,-24.48,-49.68,-45.96,1784845336782.0852
0.353,-0.373,-0.79,-31.19,-51.39,-46.3,1784845336795.1638
0.352,-0.37,-0.786,-37.29,-53.87,-48.16,1784845336801.054
0.345,-0.392,-0.774,-42.24,-55.54,-47.64,1784845336811.698
0.38,-0.404,-0.808,-44.95,-56.86,-47.76,1784845336824.7737
0.407,-0.4,-0.878,-43.82,-56.03,-49.71,1784845336831.1191
0.374,-0.385,-0.882,-41.17,-52.31,-51.12,1784845336841.206
0.321,-0.364,-0.832,-36.87,-48.86,-51.39,1784845336852.087
0.4,-0.405,-0.873,-23.59,-43.86,-48.68,1784845336865.3599
0.428,-0.429,-0.821,-10.44,-41.75,-54.35,1784845336871.628
0.403,-0.44,-0.849,14.95,-38.15,-60.95,1784845336881.728
0.402,-0.428,-0.931,37.39,-31.4,-62.14,1784845336894.982
0.388,-0.357,-1.025,48.22,-26.28,-61.37,1784845336900.9211
0.364,-0.28,-1.088,49.96,-21.85,-58.08,1784845336911.42
0.344,-0.221,-1.105,44.34,-19.1,-54.05,1784845336924.609
0.331,-0.181,-1.096,33.72,-18.92,-51.21,1784845336930.4268
0.331,-0.181,-1.096,21.79,-20.42,-49.01,1784845336940.9531
0.322,-0.168,-1.061,11.08,-22.34,-46.88,1784845336951.79
0.335,-0.173,-1.036,1.31,-24.14,-45.23,1784845336965.142
0.35,-0.19,-1.031,-7.75,-25.21,-43.34,1784845336970.731
0.344,-0.214,-1.004,-12.85,-25.39,-40.38,1784845336981.4
0.356,-0.256,-0.981,-12.85,-25.39,-40.38,1784845336991.942
0.357,-0.276,-0.957,-14.28,-23.93,-37.48,1784845337005.234
0.35,-0.27,-0.934,-12.51,-21.67,-34.36,1784845337011.033
0.36,-0.252,-0.944,-9.25,-19.41,-31.62,1784845337021.534
0.358,-0.227,-0.964,-7.9,-17.58,-29.82,1784845337035.011
0.343,-0.211,-0.97,-9.61,-16.02,-27.89,1784845337040.58
0.332,-0.207,-0.953,-13.49,-15.41,-25.73,1784845337051.0762
0.335,-0.204,-0.932,-17.52,-14.77,-23.9,1784845337061.755
0.339,-0.212,-0.896,-18.49,-13.58,-21.49,1784845337075.0872
0.37,-0.223,-0.881,-16.05,-11.9,-19.96,1784845337080.685
0.372,-0.213,-0.9,-12.45,-9.64,-19.99,1784845337091.209
0.338,-0.202,-0.895,-10.68,-8.45,-16.91,1784845337101.9368
0.34,-0.203,-0.896,-11.96,-9.25,-12.7,1784845337115.187
0.345,-0.21,-0.893,-13.58,-9.67,-10.86,1784845337129.402
0.351,-0.222,-0.873,-11.38,-9.31,-9.67,1784845337131.082
0.347,-0.221,-0.848,-6.87,-8.51,-9.22,1784845337141.433
0.355,-0.199,-0.859,-4.61,-7.81,-8.27,1784845337151.896
0.36,-0.204,-0.876,-5.07,-7.78,-8.09,1784845337165.105
0.366,-0.21,-0.887,-7.63,-8.36,-8.91,1784845337170.4968
0.37,-0.203,-0.885,-9.34,-8.7,-10.04,1784845337180.838
0.363,-0.205,-0.876,-9.67,-8.97,-11.08,1784845337191.32
0.366,-0.226,-0.876,-9.64,-9.49,-11.44,1784845337201.923
0.359,-0.229,-0.867,-10.07,-9.7,-11.35,1784845337215.1758
0.361,-0.228,-0.869,-10.53,-9.98,-10.83,1784845337220.9148
0.37,-0.235,-0.885,-10.86,-9.74,-10.99,1784845337231.421
0.388,-0.243,-0.897,-10.5,-8.82,-11.38,1784845337241.853
0.396,-0.238,-0.896,-8.12,-7.6,-11.66,1784845337255.3
0.384,-0.223,-0.887,-5.1,-6.53,-12.12,1784845337260.821
0.375,-0.213,-0.907,-4.49,-6.62,-12.42,1784845337271.2178
0.365,-0.215,-0.933,-6.93,-6.87,-12.12,1784845337281.7102
0.355,-0.222,-0.942,-10.86,-7.14,-11.08,1784845337294.92
0.36,-0.233,-0.917,-14.1,-7.48,-8.97,1784845337301.42
0.378,-0.242,-0.895,-14.92,-7.72,-6.41,1784845337310.7632
0.386,-0.249,-0.887,-13.92,-6.87,-4.7,1784845337321.281
0.39,-0.268,-0.887,-10.8,-5.71,-3.54,1784845337331.792
0.398,-0.277,-0.897,-6.35,-5.01,-2.99,1784845337345.1143
0.389,-0.254,-0.902,-1.71,-3.63,-2.9,1784845337351.061
0.376,-0.23,-0.905,0.95,-1.92,-2.53,1784845337360.7249
0.374,-0.232,-0.914,0.4,-1.31,-2.17,1784845337371.267
0.381,-0.246,-0.91,-2.23,-1.04,-2.5,1784845337390.437
0.389,-0.267,-0.892,-2.69,-0.64,-2.5,1784845337392.192
0.397,-0.273,-0.884,0.0,-0.03,-2.2,1784845337405.109
0.397,-0.255,-0.883,2.99,0.61,-2.5,1784845337410.929
0.393,-0.234,-0.894,4.33,0.49,-3.14,1784845337420.7627
0.388,-0.219,-0.911,3.17,0.03,-3.72,1784845337431.138
0.375,-0.217,-0.909,0.34,-0.73,-3.85,1784845337441.4429
0.371,-0.212,-0.891,-3.2,-2.04,-3.45,1784845337451.9749
0.376,-0.21,-0.875,-6.5,-3.33,-2.59,1784845337465.1467
0.386,-0.22,-0.871,-8.85,-3.81,-2.11,1784845337470.696
0.387,-0.237,-0.874,-9.13,-3.48,-2.35,1784845337480.779
0.381,-0.242,-0.876,-7.69,-3.39,-3.11,1784845337491.17
0.381,-0.236,-0.891,-5.95,-3.39,-3.08,1784845337501.8362
0.373,-0.227,-0.903,-5.37,-2.87,-2.32,1784845337511.9722
0.36,-0.22,-0.897,-6.71,-2.78,-1.34,1784845337525.1938
0.356,-0.216,-0.872,-8.58,-3.39,-0.34,1784845337530.687
0.361,-0.223,-0.852,-9.46,-4.3,0.64,1784845337540.822
0.363,-0.232,-0.842,-9.4,-4.7,1.43,1784845337551.251
0.363,-0.24,-0.845,-7.87,-4.55,1.53,1784845337561.5999
0.359,-0.234,-0.859,-5.19,-4.52,1.46,1784845337574.861
0.355,-0.226,-0.867,-2.72,-4.76,2.11,1784845337580.395
0.357,-0.224,-0.874,-2.59,-5.34,3.2,1784845337590.603
0.359,-0.232,-0.88,-3.94,-5.77,4.21,1784845337601.1892
0.357,-0.238,-0.886,-4.58,-5.62,5.16,1784845337611.316
0.36,-0.239,-0.886,-3.94,-5.28,5.98,1784845337621.6782
0.365,-0.243,-0.889,-3.14,-4.91,6.74,1784845337634.9941
0.364,-0.248,-0.892,-2.93,-4.61,7.32,1784845337640.476
0.364,-0.253,-0.895,-3.14,-3.91,7.51,1784845337650.905
0.366,-0.257,-0.893,-2.66,-3.66,8.09,1784845337664.179
0.373,-0.259,-0.891,-1.4,-3.51,8.82,1784845337671.487
0.387,-0.261,-0.894,-0.03,-3.08,9.4,1784845337681.777
0.387,-0.265,-0.902,0.95,-2.47,9.31,1784845337694.9927
0.377,-0.265,-0.902,2.11,-1.71,9.06,1784845337700.938
0.373,-0.256,-0.903,3.08,-1.56,9.37,1784845337710.699
0.381,-0.248,-0.912,3.14,-1.71,9.98,1784845337721.058
0.39,-0.252,-0.931,1.62,-1.86,10.44,1784845337731.6611
0.385,-0.262,-0.938,-1.34,-2.04,10.86,1784845337744.904
0.387,-0.279,-0.934,-3.2,-2.08,11.57,1784845337750.526
0.393,-0.293,-0.922,-2.87,-1.8,11.93,1784845337761.0051
0.397,-0.298,-0.914,-1.31,-1.1,11.72,1784845337771.174
0.399,-0.296,-0.919,0.95,-0.4,11.29,1784845337781.62
0.396,-0.291,-0.928,2.59,0.03,10.93,1784845337795.167
0.39,-0.287,-0.939,2.75,0.43,10.68,1784845337801.2732
0.377,-0.283,-0.937,1.46,0.98,10.19,1784845337810.852
0.378,-0.286,-0.926,-0.09,1.13,9.98,1784845337821.462
0.381,-0.293,-0.915,-0.37,1.4,9.37,1784845337831.9429
0.378,-0.295,-0.907,1.13,2.14,8.18,1784845337845.0989
0.373,-0.292,-0.912,3.23,3.05,7.29,1784845337850.38
0.368,-0.282,-0.924,3.69,3.36,6.78,1784845337861.0088
0.364,-0.269,-0.931,2.14,3.17,6.9,1784845337871.036
0.363,-0.266,-0.926,-0.52,2.93,7.39,1784845337881.313
0.366,-0.275,-0.911,-2.41,2.81,7.45,1784845337891.6118
0.369,-0.285,-0.892,-2.11,2.9,7.08,1784845337905.2888
0.365,-0.287,-0.875,0.06,3.33,6.56,1784845337910.4587
0.361,-0.281,-0.869,2.75,3.88,6.07,1784845337920.872
0.358,-0.269,-0.886,4.85,4.18,5.49,1784845337931.073
0.347,-0.255,-0.897,5.37,4.24,5.49,1784845337941.386
