ax,ay,az,gx,gy,gz,timestamp_ms
0.42,-0.12,-0.906,-15.93,-3.33,2.26,1784845328689.016
0.422,-0.112,-0.9,-14.31,-2.75,1.46,1784845328689.666
0.426,-0.105,-0.903,-12.91,-1.89,0.55,1784845328690.192
0.423,-0.107,-0.906,-11.72,-1.65,0.82,1784845328690.722
0.423,-0.101,-0.911,-9.89,-2.17,1.5,1784845328691.253
0.416,-0.092,-0.907,-8.42,-1.71,1.31,1784845328691.768
0.416,-0.089,-0.902,-7.81,-1.53,1.56,1784845328692.0771
0.421,-0.086,-0.906,-7.17,-1.59,2.38,1784845328692.38
0.421,-0.076,-0.906,-6.32,-0.95,2.84,1784845328692.6838
0.419,-0.071,-0.904,-6.47,-0.79,3.23,1784845328692.988
0.423,-0.08,-0.899,-6.71,-1.46,3.42,1784845328693.2932
0.424,-0.088,-0.903,-5.31,-1.65,3.05,1784845328693.596
0.421,-0.089,-0.907,-3.45,-0.98,2.56,1784845328693.9011
0.425,-0.091,-0.91,-1.8,-0.43,2.69,1784845328694.698
0.427,-0.094,-0.905,0.03,0.4,2.96,1784845328695.117
0.425,-0.096,-0.905,2.01,1.37,3.48,1784845328695.6338
0.428,-0.102,-0.909,3.57,2.14,4.03,1784845328695.9429
0.435,-0.103,-0.916,5.1,2.84,4.18,1784845328696.3142
0.435,-0.089,-0.916,6.53,3.75,3.81,1784845328696.616
0.432,-0.075,-0.915,6.71,4.24,3.63,1784845328696.954
0.424,-0.075,-0.915,5.25,4.33,3.54,1784845328697.262
0.418,-0.082,-0.907,3.27,4.33,3.11,1784845328697.567
0.424,-0.092,-0.906,2.44,4.03,2.99,1784845328698.2861
0.422,-0.099,-0.91,2.72,3.72,3.11,1784845328698.6292
0.426,-0.101,-0.915,3.11,3.54,3.33,1784845328699.04
0.433,-0.1,-0.918,3.14,3.54,3.85,1784845328699.348
0.434,-0.099,-0.912,3.39,3.72,4.27,1784845328699.7603
0.436,-0.103,-0.9,3.51,4.0,4.33,1784845328700.328
0.446,-0.107,-0.899,3.6,4.03,3.75,1784845328701.0989
0.442,-0.105,-0.895,4.39,4.12,2.81,1784845328701.502
0.439,-0.101,-0.896,5.28,4.39,2.17,1784845328701.823
0.436,-0.101,-0.9,5.43,4.7,1.62,1784845328702.145
0.427,-0.107,-0.893,5.4,4.76,1.22,1784845328702.4583
0.429,-0.112,-0.88,5.86,4.73,1.34,1784845328702.777
0.432,-0.108,-0.88,7.02,4.36,1.8,1784845328703.0981
0.431,-0.107,-0.885,7.14,3.97,2.26,1784845328703.431
0.427,-0.107,-0.886,6.29,3.51,2.11,1784845328703.745
0.422,-0.106,-0.882,6.04,3.11,1.65,1784845328704.066
0.427,-0.097,-0.882,6.01,2.69,1.46,1784845328704.391
0.427,-0.091,-0.88,4.79,2.29,1.1,1784845328704.705
0.419,-0.089,-0.876,3.17,2.08,0.61,1784845328705.025
0.414,-0.09,-0.871,1.98,1.95,0.12,1784845328705.3389
0.407,-0.096,-0.861,1.83,1.92,-0.24,1784845328705.6538
0.4,-0.1,-0.846,3.42,1.95,-0.18,1784845328705.9688
0.394,-0.096,-0.833,6.26,2.23,0.24,1784845328706.288
0.382,-0.085,-0.819,9.67,2.47,0.52,1784845328706.6082
0.371,-0.072,-0.809,13.15,2.29,1.1,1784845328706.93
0.355,-0.072,-0.802,16.39,2.66,0.95,1784845328707.2551
0.323,-0.067,-0.782,19.5,3.48,0.43,1784845328707.573
0.3,-0.072,-0.74,23.44,4.52,-0.12,1784845328707.8918
0.277,-0.09,-0.685,29.66,5.77,-1.83,1784845328708.2188
0.242,-0.091,-0.622,38.39,7.32,-4.43,1784845328708.543
0.206,-0.091,-0.559,49.56,8.94,-7.29,1784845328708.863
0.17,-0.094,-0.506,63.23,10.25,-10.62,1784845328709.188
0.139,-0.094,-0.464,78.1,11.6,-14.1,1784845328709.5107
0.097,-0.097,-0.424,93.2,12.85,-17.79,1784845328709.8398
0.052,-0.1,-0.382,108.95,12.97,-21.64,1784845328710.166
0.007,-0.09,-0.358,124.24,12.05,-24.99,1784845328710.5432
-0.03,-0.073,-0.34,134.56,9.95,-27.25,1784845328710.8647
-0.07,-0.073,-0.32,138.4,6.23,-30.3,1784845328711.183
-0.124,-0.068,-0.301,139.47,2.35,-33.36,1784845328711.4958
-0.173,-0.03,-0.277,141.85,-0.92,-32.69,1784845328711.81
-0.211,-0.014,-0.258,145.42,-5.1,-27.41,1784845328712.1248
-0.222,-0.007,-0.241,146.31,-10.74,-22.1,1784845328712.4438
-0.274,-0.006,-0.188,144.05,-17.4,-20.91,1784845328712.7612
-0.298,-0.037,-0.132,143.1,-25.97,-13.64,1784845328713.0999
-0.303,-0.065,-0.12,145.33,-35.22,-1.86,1784845328713.449
-0.338,-0.055,-0.108,146.37,-44.47,11.54,1784845328713.771
-0.368,-0.062,-0.095,143.07,-55.24,27.74,1784845328714.108
-0.384,-0.125,-0.065,135.41,-68.3,42.6,1784845328714.4312
-0.401,-0.214,-0.005,127.84,-82.03,54.9,1784845328714.7542
-0.393,-0.32,0.014,127.84,-96.41,66.62,1784845328715.0688
-0.39,-0.427,-0.048,136.48,-109.62,78.43,1784845328715.3909
-0.415,-0.493,-0.151,146.67,-119.85,91.13,1784845328715.786
-0.438,-0.52,-0.271,154.82,-128.45,106.72,1784845328716.12
-0.462,-0.53,-0.355,158.15,-137.82,124.36,1784845328716.489
-0.462,-0.53,-0.355,156.68,-148.96,142.49,1784845328717.2952
-0.5,-0.547,-0.434,147.37,-158.67,161.47,1784845328717.6477
-0.533,-0.578,-0.506,131.47,-167.61,181.43,1784845328718.0312
-0.572,-0.633,-0.557,112.31,-176.06,201.03,1784845328718.377
-0.6,-0.734,-0.634,112.31,-176.06,201.03,1784845328718.7158
-0.664,-0.85,-0.689,90.15,-182.32,215.64,1784845328719.05
-0.745,-0.996,-0.708,69.46,-187.72,225.29,1784845328719.373
-0.813,-1.188,-0.687,53.96,-193.55,231.45,1784845328719.695
-0.862,-1.395,-0.648,47.03,-198.95,235.11,1784845328720.073
-0.908,-1.577,-0.621,53.07,-201.82,240.27,1784845328720.3982
-0.957,-1.729,-0.59,72.27,-199.47,249.46,1784845328720.722
-0.989,-1.82,-0.572,101.54,-193.43,259.93,1784845328721.0469
-1.002,-1.857,-0.622,133.27,-185.43,274.15,1784845328721.3691
-1.025,-1.837,-0.643,163.64,-173.53,288.13,1784845328721.6958
-1.072,-1.786,-0.639,187.48,-163.15,296.46,1784845328722.019
-1.119,-1.706,-0.641,195.38,-156.5,303.72,1784845328722.344
-1.154,-1.657,-0.638,183.42,-150.88,313.73,1784845328722.6628
-1.181,-1.622,-0.635,160.25,-149.27,315.99,1784845328722.9978
-1.2,-1.606,-0.712,129.25,-151.95,312.17,1784845328723.3228
-1.221,-1.639,-0.906,92.38,-153.63,302.9,1784845328723.6428
-1.252,-1.664,-1.09,48.86,-151.13,287.97,1784845328723.9602
-1.251,-1.631,-1.113,3.66,-149.14,268.75,1784845328724.278
-1.215,-1.567,-1.02,-30.79,-151.74,245.31,1784845328724.601
-1.173,-1.508,-0.95,-48.28,-153.2,220.53,1784845328724.926
-1.143,-1.458,-0.872,-52.34,-149.24,195.99,1784845328725.244
-1.126,-1.385,-0.815,-44.04,-143.01,171.12,1784845328725.564
-1.056,-1.36,-0.8,-26.8,-132.73,148.14,1784845328725.888
-0.899,-1.493,-0.687,32.2,-115.91,123.72,1784845328726.2148
-0.605,-2.452,-0.659,314.34,-61.49,85.09,1784845328726.5269
-0.361,-3.097,-1.583,736.63,43.46,18.07,1784845328726.8428
-0.641,-1.793,-2.267,870.66,148.78,21.64,1784845328727.165
-0.708,-0.951,-1.848,703.39,196.14,101.93,1784845328727.489
-0.858,-0.559,-1.168,491.71,185.89,115.09,1784845328727.8699
-0.76,-0.383,-0.782,332.32,134.77,71.72,1784845328728.201
-0.59,-0.571,-0.677,205.39,84.54,2.93,1784845328728.5813
-0.658,-0.715,-0.678,75.75,46.08,-57.01,1784845328728.9028
-0.675,-0.851,-0.677,-52.71,17.67,-70.01,1784845328729.217
-0.596,-0.994,-0.628,-155.89,-6.56,-58.2,1784845328729.534
-0.509,-1.107,-0.538,-204.63,-15.78,-42.05,1784845328729.908
-0.467,-1.155,-0.411,-203.04,-13.12,-31.92,1784845328730.232
-0.484,-1.064,-0.28,-173.8,-7.14,-33.11,1784845328730.5652
-0.541,-0.93,-0.237,-133.55,-0.98,-33.48,1784845328730.8818
-0.601,-0.807,-0.246,-101.6,6.01,-25.36,1784845328731.1968
-0.644,-0.69,-0.246,-85.97,12.91,-13.86,1784845328731.5251
-0.662,-0.616,-0.21,-80.29,17.37,-4.3,1784845328731.859
-0.672,-0.605,-0.177,-76.6,20.51,1.62,1784845328732.175
-0.678,-0.624,-0.131,-73.49,25.12,6.1,1784845328732.503
-0.693,-0.64,-0.089,-68.03,30.7,10.16,1784845328732.845
-0.711,-0.638,-0.055,-58.78,35.28,13.43,1784845328733.176
-0.736,-0.619,-0.059,-48.07,36.74,14.89,1784845328733.7769
-0.75,-0.593,-0.082,-38.82,37.32,13.79,1784845328734.888
-0.753,-0.563,-0.097,-31.56,37.9,10.35,1784845328735.411
-0.777,-0.544,-0.1,-26.58,38.12,5.98,1784845328735.965
-0.796,-0.532,-0.094,-25.03,37.26,4.3,1784845328736.3699
-0.811,-0.522,-0.097,-26.83,34.46,1.71,1784845328736.6882
-0.821,-0.516,-0.096,-32.11,30.67,-0.92,1784845328737.0452
-0.825,-0.525,-0.091,-37.97,26.25,-2.47,1784845328737.3582
-0.822,-0.543,-0.083,-42.05,21.58,-4.0,1784845328737.675
-0.822,-0.561,-0.076,-43.64,17.09,-5.74,1784845328737.987
-0.827,-0.573,-0.064,-41.41,12.94,-7.02,1784845328738.292
-0.825,-0.582,-0.061,-34.55,9.31,-8.06,1784845328738.5972
-0.824,-0.575,-0.067,-24.6,6.41,-11.2,1784845328738.9062
-0.845,-0.55,-0.081,-13.7,2.5,-15.93,1784845328739.2212
-0.864,-0.528,-0.102,-3.85,-2.2,-19.68,1784845328739.5232
-0.878,-0.513,-0.12,4.03,-6.68,-22.71,1784845328739.828
-0.893,-0.493,-0.136,10.71,-11.35,-25.85,1784845328740.141
-0.901,-0.473,-0.156,16.85,-16.05,-29.11,1784845328740.46
-0.9,-0.452,-0.18,23.41,-19.62,-32.56,1784845328740.77
-0.891,-0.436,-0.214,29.08,-21.79,-35.86,1784845328741.086
-0.873,-0.419,-0.244,31.95,-23.5,-38.48,1784845328741.4011
-0.855,-0.402,-0.269,31.68,-25.15,-39.83,1784845328741.712
-0.844,-0.402,-0.28,29.3,-26.15,-39.7,1784845328742.018
-0.839,-0.402,-0.284,24.48,-26.61,-38.76,1784845328742.329
-0.835,-0.393,-0.279,18.04,-27.44,-37.23,1784845328742.6418
-0.831,-0.381,-0.276,10.71,-28.78,-35.86,1784845328742.954
-0.828,-0.376,-0.276,1.65,-30.58,-34.46,1784845328743.259
-0.823,-0.385,-0.271,-8.61,-31.89,-31.74,1784845328743.571
-0.811,-0.403,-0.269,-18.31,-32.53,-28.69,1784845328743.881
-0.825,-0.419,-0.268,-26.92,-33.14,-25.48,1784845328744.1963
-0.833,-0.442,-0.273,-33.6,-32.69,-19.29,1784845328744.5051
-0.847,-0.459,-0.272,-38.27,-30.61,-12.24,1784845328744.8179
-0.848,-0.472,-0.265,-40.01,-26.76,-4.36,1784845328745.127
-0.839,-0.474,-0.267,-38.51,-22.31,2.14,1784845328745.433
-0.828,-0.459,-0.274,-35.62,-19.87,5.46,1784845328745.744
-0.811,-0.439,-0.291,-33.3,-20.66,5.01,1784845328746.1792
-0.824,-0.407,-0.318,-33.27,-23.71,0.61,1784845328746.591
-0.858,-0.393,-0.332,-36.53,-26.15,-1.8,1784845328746.897
-0.853,-0.428,-0.312,-39.03,-25.54,0.92,1784845328747.209
-0.839,-0.46,-0.287,-35.71,-22.25,3.69,1784845328747.562
-0.84,-0.47,-0.286,-28.26,-18.71,5.65,1784845328747.874
-0.84,-0.47,-0.291,-21.88,-16.75,6.62,1784845328748.199
-0.842,-0.463,-0.296,-18.8,-15.5,5.68,1784845328748.648
-0.838,-0.457,-0.295,-18.56,-14.59,4.21,1784845328749.08
-0.832,-0.457,-0.286,-19.1,-13.4,2.5,1784845328749.408
-0.828,-0.46,-0.278,-18.65,-11.69,1.22,1784845328749.713
-0.683,-0.685,-0.184,27.56,22.16,-0.79,1784845328750.5112
-0.687,-0.682,-0.179,27.25,21.33,-1.56,1784845328750.872
-0.699,-0.682,-0.171,26.43,20.11,-2.29,1784845328751.2231
-0.713,-0.682,-0.166,25.73,18.56,-3.2,1784845328751.6182
-0.726,-0.687,-0.163,24.84,17.24,-3.78,1784845328751.924
-0.732,-0.697,-0.162,24.48,16.33,-4.09,1784845328764.3918
-0.732,-0.708,-0.167,24.87,15.66,-4.0,1784845328771.348
-0.724,-0.714,-0.173,25.18,15.35,-3.36,1784845328783.385
-0.718,-0.718,-0.181,24.93,15.23,-2.38,1784845328791.169
-0.709,-0.715,-0.185,23.83,15.17,-1.22,1784845328805.413
-0.698,-0.707,-0.186,22.13,14.74,-0.31,1784845328813.8518
-0.689,-0.702,-0.185,19.84,14.19,0.06,1784845328820.6877
-0.682,-0.698,-0.183,17.27,13.37,-0.06,1784845328831.094
-0.676,-0.697,-0.179,15.47,12.51,-0.52,1784845328844.474
-0.67,-0.694,-0.172,14.59,11.81,-1.19,1784845328850.218
-0.67,-0.691,-0.171,14.34,11.17,-1.8,1784845328860.6
-0.672,-0.687,-0.172,14.65,10.56,-2.23,1784845328871.1328
-0.674,-0.684,-0.177,15.2,9.92,-2.59,1784845328881.5999
-0.679,-0.684,-0.183,15.69,9.16,-2.93,1784845328894.902
-0.682,-0.685,-0.196,16.05,8.64,-3.05,1784845328900.783
-0.681,-0.687,-0.218,15.93,8.61,-2.9,1784845328910.785
-0.686,-0.693,-0.232,15.72,9.4,-2.99,1784845328921.189
-0.703,-0.693,-0.246,15.99,10.59,-2.69,1784845328934.6912
-0.708,-0.698,-0.259,15.66,12.36,-1.98,1784845328940.346
-0.711,-0.709,-0.274,15.41,14.62,-1.8,1784845328950.793
-0.722,-0.726,-0.285,16.42,17.4,-1.8,1784845328961.8882
-0.718,-0.743,-0.321,18.43,20.48,-1.53,1784845328974.708
-0.699,-0.747,-0.392,19.5,25.27,-2.01,1784845328981.501
-0.703,-0.733,-0.444,19.29,31.34,-2.41,1784845328990.893
-0.695,-0.727,-0.501,18.07,37.45,-2.56,1784845329001.525
-0.691,-0.749,-0.561,19.04,44.65,-5.1,1784845329014.694
-0.703,-0.793,-0.621,24.84,52.34,-8.82,1784845329020.556
-0.709,-0.835,-0.688,33.75,60.73,-12.42,1784845329030.828
-0.694,-0.872,-0.765,43.18,69.98,-16.39,1784845329041.797
-0.68,-0.9,-0.835,52.95,78.74,-21.36,1784845329054.898
-0.67,-0.907,-0.933,62.62,86.4,-25.79,1784845329060.544
-0.682,-0.89,-1.039,67.69,95.07,-29.21,1784845329071.281
-0.692,-0.872,-1.127,65.19,104.01,-31.95,1784845329084.667
-0.682,-0.882,-1.15,57.77,112.92,-37.2,1784845329090.308
-0.653,-0.917,-1.145,50.48,120.24,-45.26,1784845329101.4458
-0.627,-0.968,-1.16,44.43,128.7,-53.41,1784845329114.53
-0.628,-1.033,-1.201,42.12,139.81,-59.97,1784845329120.4438
-0.645,-1.102,-1.264,45.14,153.23,-65.22,1784845329131.225
-0.682,-1.144,-1.291,50.39,167.97,-69.49,1784845329144.569
-0.702,-1.15,-1.277,54.81,181.95,-71.6,1784845329150.408
-0.699,-1.151,-1.246,58.57,196.02,-72.85,1784845329161.248
-0.705,-1.142,-1.195,62.78,209.91,-75.87,1784845329174.678
-0.725,-1.145,-1.158,68.06,222.94,-79.29,1784845329180.4731
-0.754,-1.161,-1.103,72.63,234.93,-83.1,1784845329191.388
-0.754,-1.161,-1.103,74.8,245.19,-87.19,1784845329204.672
-0.77,-1.175,-1.043,74.5,254.86,-91.46,1784845329210.2651
-0.786,-1.177,-0.952,74.22,262.76,-94.15,1784845329221.2678
-0.79,-1.17,-0.838,74.43,267.95,-95.22,1784845329234.586
-0.777,-1.161,-0.774,75.01,273.02,-95.77,1784845329240.331
-0.773,-1.157,-0.725,75.01,273.02,-95.77,1784845329251.2231
-0.776,-1.162,-0.686,76.39,276.89,-96.9,1784845329264.4329
-0.786,-1.162,-0.646,77.61,280.07,-98.85,1784845329270.2688
-0.798,-1.121,-0.573,76.85,281.35,-100.04,1784845329281.2778
-0.797,-1.072,-0.501,74.19,280.01,-99.46,1784845329294.475
-0.776,-1.051,-0.492,70.13,278.66,-98.21,1784845329300.3252
-0.779,-1.038,-0.437,65.58,278.91,-98.51,1784845329311.303
-0.78,-1.03,-0.332,62.29,276.74,-97.72,1784845329324.488
-0.748,-1.013,-0.269,60.12,272.77,-94.79,1784845329330.343
-0.685,-0.987,-0.245,58.44,270.24,-90.21,1784845329341.0671
-0.639,-0.961,-0.223,56.67,267.34,-86.37,1784845329354.8633
-0.602,-0.936,-0.263,50.66,263.1,-83.38,1784845329360.513
-0.587,-0.906,-0.276,40.68,259.96,-80.81,1784845329371.0771
-0.605,-0.855,-0.203,28.75,255.87,-75.93,1784845329382.061
-0.608,-0.814,-0.12,17.98,248.79,-68.76,1784845329395.2683
-0.593,-0.797,-0.081,10.25,241.49,-60.67,1784845329401.333
-0.569,-0.791,-0.076,3.75,233.83,-53.04,1784845329411.7507
-0.541,-0.788,-0.071,-3.05,227.3,-44.56,1784845329424.832
-0.506,-0.786,-0.07,-10.07,220.86,-36.74,1784845329431.0332
-0.479,-0.786,-0.056,-16.51,213.29,-33.33,1784845329441.549
-0.477,-0.764,-0.01,-23.26,205.33,-32.41,1784845329454.855
-0.45,-0.732,0.049,-30.76,196.91,-30.12,1784845329460.4958
-0.4,-0.708,0.108,-36.07,187.96,-27.01,1784845329471.7551
-0.329,-0.7,0.155,-37.26,179.33,-22.13,1784845329484.832
-0.242,-0.713,0.2,-34.67,171.51,-16.69,1784845329490.6619
-0.179,-0.74,0.251,-26.83,163.3,-14.53,1784845329501.77
-0.126,-0.766,0.296,-12.39,154.73,-15.66,1784845329514.783
-0.09,-0.76,0.355,5.58,147.19,-18.49,1784845329520.499
-0.047,-0.709,0.382,23.53,138.65,-21.12,1784845329531.706
-0.001,-0.678,0.366,39.22,128.54,-22.83,1784845329544.679
0.029,-0.661,0.351,47.55,117.37,-24.78,1784845329550.571
0.043,-0.654,0.351,48.04,105.41,-26.28,1784845329561.2231
0.082,-0.674,0.363,43.98,93.84,-25.03,1784845329574.7102
0.125,-0.702,0.371,37.6,82.55,-24.2,1784845329581.053
0.151,-0.707,0.377,30.3,71.54,-25.15,1784845329590.9287
0.168,-0.726,0.373,24.54,61.19,-25.51,1784845329601.7039
0.182,-0.741,0.391,16.08,52.22,-26.15,1784845329615.003
0.193,-0.757,0.433,4.39,41.2,-26.46,1784845329620.7202
0.245,-0.809,0.488,-8.79,29.82,-25.3,1784845329631.204
0.288,-0.88,0.6,-23.5,17.7,-24.11,1784845329644.429
0.308,-0.979,0.709,-35.07,3.72,-23.44,1784845329650.423
0.27,-1.072,0.775,-41.47,-11.17,-23.47,1784845329660.9878
0.265,-1.19,0.856,-38.7,-26.18,-21.76,1784845329671.6108
0.301,-1.278,0.888,-26.49,-39.43,-27.28,1784845329684.795
0.33,-1.313,0.906,-7.93,-47.24,-36.38,1784845329690.6829
0.321,-1.319,0.875,11.66,-55.51,-44.83,1784845329701.386
0.296,-1.295,0.768,24.11,-66.65,-51.0,1784845329711.841
0.281,-1.256,0.678,27.13,-75.78,-55.02,1784845329724.957
0.273,-1.232,0.641,23.19,-86.03,-60.64,1784845329730.505
0.27,-1.238,0.619,14.19,-98.33,-69.58,1784845329741.282
0.219,-1.236,0.653,3.48,-110.26,-79.04,1784845329754.6199
0.166,-1.26,0.647,-1.19,-122.07,-85.27,1784845329760.252
0.138,-1.274,0.597,-0.18,-131.63,-89.66,1784845329771.03
0.12,-1.261,0.54,5.01,-139.19,-91.77,1784845329781.6829
0.099,-1.237,0.461,13.03,-145.82,-93.94,1784845329794.935
0.077,-1.204,0.38,20.08,-152.53,-96.62,1784845329800.686
0.041,-1.178,0.325,21.58,-159.58,-98.88,1784845329811.6602
0.013,-1.171,0.268,18.74,-166.91,-101.9,1784845329824.93
-0.008,-1.168,0.226,16.27,-172.46,-105.99,1784845329830.822
-0.038,-1.154,0.205,17.21,-176.21,-110.57,1784845329844.385
-0.063,-1.115,0.163,20.39,-180.82,-114.6,1784845329850.335
-0.075,-1.074,0.096,26.12,-184.12,-117.83,1784845329861.301
-0.105,-1.025,0.046,32.53,-185.34,-120.7,1784845329874.64
-0.117,-0.994,-0.056,38.73,-187.54,-123.05,1784845329880.4678
-0.121,-0.974,-0.153,41.11,-188.48,-125.22,1784845329891.505
-0.116,-0.951,-0.202,35.86,-189.98,-127.14,1784845329904.881
-0.1,-0.951,-0.268,28.2,-192.27,-128.51,1784845329910.7468
-0.101,-0.944,-0.299,20.17,-192.88,-129.64,1784845329921.7588
-0.097,-0.919,-0.305,13.0,-193.27,-129.92,1784845329935.084
-0.085,-0.887,-0.345,9.52,-193.49,-130.53,1784845329940.8179
-0.1,-0.847,-0.342,11.51,-191.93,-130.83,1784845329954.388
-0.08,-0.809,-0.395,17.12,-191.11,-130.34,1784845329960.3179
-0.038,-0.787,-0.516,21.73,-189.34,-131.38,1784845329971.315
-0.05,-0.76,-0.581,18.31,-187.26,-132.3,1784845329984.666
-0.061,-0.717,-0.633,1.89,-189.06,-132.24,1784845329990.402
-0.04,-0.719,-0.692,-18.43,-192.69,-133.27,1784845330001.5503
-0.023,-0.754,-0.725,-35.65,-194.98,-136.57,1784845330014.7659
-0.042,-0.763,-0.707,-51.67,-195.2,-142.58,1784845330020.822
-0.003,-0.752,-0.726,-59.27,-193.4,-148.93,1784845330031.6602
0.001,-0.73,-0.729,-51.97,-187.75,-155.67,1784845330045.0151
-0.023,-0.681,-0.728,-41.2,-181.49,-159.12,1784845330050.914
-0.012,-0.654,-0.757,-32.69,-175.48,-158.85,1784845330064.384
-0.014,-0.676,-0.796,-23.71,-168.83,-158.18,1784845330070.323
-0.046,-0.673,-0.767,-19.5,-163.67,-157.84,1784845330081.4058
-0.036,-0.646,-0.803,-12.12,-159.67,-156.01,1784845330094.691
-0.018,-0.599,-0.854,-2.96,-154.64,-155.61,1784845330100.638
0.018,-0.525,-0.965,1.01,-150.58,-156.87,1784845330111.467
0.023,-0.45,-1.041,-0.55,-143.56,-160.62,1784845330124.559
-0.04,-0.38,-1.016,-3.2,-134.98,-168.37,1784845330130.723
-0.109,-0.348,-0.954,-4.18,-130.47,-170.6,1784845330141.7039
-0.064,-0.399,-0.922,2.2,-127.45,-162.66,1784845330154.504
0.007,-0.393,-1.014,16.72,-122.99,-155.98,1784845330160.388
0.026,-0.305,-1.156,30.34,-114.17,-152.07,1784845330171.329
-0.012,-0.195,-1.233,36.84,-103.85,-149.48,1784845330184.855
-0.013,-0.085,-1.283,35.34,-99.37,-146.15,1784845330190.53
0.012,0.008,-1.301,29.63,-95.37,-143.01,1784845330201.631
0.021,0.026,-1.308,26.64,-88.05,-135.62,1784845330214.895
0.061,0.001,-1.312,26.46,-81.73,-122.17,1784845330220.617
0.087,0.037,-1.323,31.34,-74.31,-113.32,1784845330231.6548
0.084,0.121,-1.334,36.93,-64.76,-111.0,1784845330244.8918
0.083,0.189,-1.358,37.66,-57.68,-105.47,1784845330250.567
0.111,0.218,-1.401,31.74,-53.29,-93.84,1784845330261.513
0.128,0.233,-1.406,23.71,-48.07,-84.93,1784845330274.539
0.143,0.238,-1.382,18.89,-41.47,-78.07,1784845330280.214
0.161,0.224,-1.361,16.36,-35.95,-69.22,1784845330291.039
0.162,0.224,-1.339,14.95,-32.32,-58.9,1784845330301.763
0.184,0.233,-1.316,14.53,-28.66,-48.25,1784845330315.147
0.219,0.234,-1.288,12.42,-24.32,-39.8,1784845330320.8152
0.245,0.223,-1.247,8.94,-20.29,-33.45,1784845330331.478
0.267,0.195,-1.219,7.11,-16.24,-27.44,1784845330344.711
0.271,0.172,-1.173,6.93,-11.51,-22.31,1784845330350.416
0.275,0.153,-1.114,8.12,-7.54,-17.52,1784845330360.9338
0.287,0.12,-1.068,11.17,-4.58,-12.02,1784845330371.23
0.293,0.083,-1.027,13.7,-1.89,-6.65,1784845330381.8582
0.289,0.056,-0.985,14.71,0.64,-2.2,1784845330395.081
0.301,0.037,-0.957,15.81,2.44,2.62,1784845330400.744
0.324,0.01,-0.935,17.15,3.85,8.09,1784845330411.011
0.338,-0.018,-0.907,17.24,4.82,12.12,1784845330421.475
0.326,-0.041,-0.88,15.44,5.49,15.14,1784845330434.8918
0.348,-0.092,-0.865,11.41,3.66,21.91,1784845330440.4932
0.368,-0.131,-0.847,6.71,3.48,24.57,1784845330450.902
0.375,-0.178,-0.816,3.94,5.62,23.26,1784845330461.3308
0.375,-0.212,-0.756,3.23,8.61,16.69,1784845330471.6968
0.294,-0.31,-0.733,3.23,0.73,25.3,1784845330485.227
0.294,-0.31,-0.733,6.38,-10.28,56.49,1784845330490.953
0.383,-0.451,-0.717,18.31,-6.38,54.87,1784845330501.515
0.43,-0.437,-0.733,29.45,1.62,39.16,1784845330511.8762
0.397,-0.396,-0.77,28.63,3.78,33.69,1784845330524.9897
0.372,-0.419,-0.776,20.94,-0.15,37.05,1784845330531.237
0.376,-0.465,-0.747,20.94,-0.15,37.05,1784845330541.085
0.423,-0.522,-0.723,17.76,-3.05,42.3,1784845330552.054
0.454,-0.559,-0.685,23.16,0.95,40.53,1784845330564.895
0.43,-0.548,-0.679,31.8,4.82,32.78,1784845330570.7449
0.407,-0.528,-0.725,34.3,1.83,28.02,1784845330581.2932
0.418,-0.547,-0.773,29.79,-2.53,26.15,1784845330591.6282
0.425,-0.57,-0.789,22.46,-4.27,22.22,1784845330605.4539
0.427,-0.584,-0.785,16.27,-5.46,17.91,1784845330611.212
0.422,-0.587,-0.797,11.14,-7.9,16.3,1784845330621.179
0.419,-0.573,-0.824,3.94,-12.27,18.65,1784845330631.8818
0.43,-0.573,-0.828,-4.73,-15.69,21.0,1784845330645.267
0.447,-0.581,-0.813,-10.83,-16.94,17.98,1784845330651.339
0.461,-0.569,-0.811,-12.88,-18.19,11.93,1784845330661.3582
0.468,-0.545,-0.822,-13.82,-18.77,6.74,1784845330674.5999
0.447,-0.526,-0.824,-16.21,-18.04,1.68,1784845330680.801
0.433,-0.508,-0.816,-18.25,-17.0,-1.77,1784845330690.766
0.44,-0.493,-0.823,-17.82,-16.48,-3.45,1784845330701.659
0.428,-0.481,-0.838,-15.72,-14.62,-4.24,1784845330714.9592
0.396,-0.471,-0.856,-14.71,-12.57,-4.12,1784845330720.397
0.37,-0.452,-0.867,-15.66,-12.54,-2.72,1784845330730.96
0.364,-0.45,-0.848,-17.15,-13.31,-0.03,1784845330741.286
0.374,-0.456,-0.826,-16.82,-13.49,2.32,1784845330754.725
0.386,-0.447,-0.807,-12.45,-11.81,3.2,1784845330760.3508
0.383,-0.433,-0.798,-5.37,-9.16,2.84,1784845330770.73
0.373,-0.436,-0.81,1.86,-7.51,3.36,1784845330781.29
0.357,-0.432,-0.817,6.9,-6.56,4.76,1784845330791.272
0.352,-0.414,-0.837,10.35,-5.71,6.71,1784845330804.748
0.346,-0.393,-0.873,11.96,-4.73,7.81,1784845330810.6028
0.327,-0.379,-0.887,10.16,-3.42,7.63,1784845330820.655
0.319,-0.38,-0.874,5.34,-3.51,7.63,1784845330830.814
0.337,-0.395,-0.857,0.52,-4.85,8.09,1784845330841.519
0.344,-0.417,-0.858,-1.77,-6.16,8.03,1784845330851.913
0.327,-0.434,-0.877,-3.6,-6.81,7.72,1784845330864.896
0.317,-0.446,-0.876,-6.16,-7.6,7.78,1784845330871.025
0.325,-0.46,-0.869,-7.02,-8.12,7.9,1784845330880.6409
0.329,-0.456,-0.871,-5.65,-8.18,7.84,1784845330890.9912
0.333,-0.445,-0.886,-4.24,-7.84,8.09,1784845330901.481
0.339,-0.44,-0.91,-4.97,-7.81,8.03,1784845330912.009
0.34,-0.428,-0.933,-7.75,-8.64,7.66,1784845330924.999
0.345,-0.419,-0.954,-12.36,-9.31,8.06,1784845330930.461
0.351,-0.423,-0.967,-19.1,-9.64,8.15,1784845330940.7942
0.357,-0.444,-0.955,-25.94,-9.86,7.39,1784845330951.409
0.376,-0.459,-0.939,-28.53,-9.89,6.68,1784845330961.729
0.397,-0.461,-0.926,-26.83,-8.45,6.56,1784845330975.231
0.392,-0.458,-0.887,-23.65,-6.47,6.41,1784845330981.2478
0.383,-0.459,-0.826,-19.44,-5.62,6.84,1784845330990.936
0.388,-0.467,-0.806,-12.73,-5.71,7.75,1784845331001.556
0.394,-0.461,-0.841,-4.03,-5.83,8.61,1784845331015.1128
0.401,-0.434,-0.898,1.98,-5.71,9.95,1784845331020.2073
0.412,-0.402,-0.954,2.47,-6.23,11.41,1784845331030.384
0.416,-0.37,-1.0,-2.96,-7.35,12.12,1784845331041.136
0.405,-0.366,-1.022,-13.06,-8.39,12.24,1784845331062.711
0.383,-0.385,-1.013,-25.61,-8.85,11.78,1784845331064.848
0.372,-0.419,-0.975,-36.87,-8.79,11.2,1784845331070.402
0.372,-0.465,-0.925,-42.54,-8.09,9.7,1784845331080.863
0.372,-0.5,-0.88,-41.38,-6.2,6.74,1784845331091.316
0.356,-0.512,-0.847,-34.94,-3.05,4.06,1784845331102.0688
0.336,-0.506,-0.826,-25.09,0.49,2.11,1784845331115.156
0.321,-0.484,-0.818,-14.86,4.06,0.18,1784845331120.9321
0.316,-0.457,-0.822,-5.89,7.11,-1.01,1784845331131.03
0.312,-0.426,-0.828,1.04,9.46,-1.95,1784845331141.488
0.31,-0.4,-0.83,5.04,10.74,-2.66,1784845331151.858
0.31,-0.37,-0.832,5.98,10.62,-3.78,1784845331165.2969
0.306,-0.338,-0.844,4.58,9.49,-5.04,1784845331170.7578
0.297,-0.309,-0.845,0.76,7.84,-5.89,1784845331180.949
0.299,-0.293,-0.825,-5.01,5.55,-5.74,1784845331191.3337
0.316,-0.3,-0.81,-9.8,2.93,-5.07,1784845331201.739
0.326,-0.313,-0.806,-11.9,1.1,-4.49,1784845331215.1912
0.332,-0.316,-0.811,-12.79,-0.64,-3.51,1784845331220.685
0.348,-0.312,-0.829,-12.63,-2.66,-2.14,1784845331230.633
0.362,-0.305,-0.85,-11.84,-4.27,-1.37,1784845331241.3289
0.364,-0.294,-0.866,-11.23,-5.71,-1.43,1784845331251.932
0.362,-0.276,-0.886,-11.78,-6.99,-1.86,1784845331265.126
0.364,-0.26,-0.908,-13.86,-7.9,-1.92,1784845331270.6858
0.367,-0.263,-0.924,-17.76,-8.3,-2.11,1784845331280.8599
0.366,-0.27,-0.94,-21.76,-8.36,-2.44,1784845331291.293
0.364,-0.274,-0.944,-24.2,-7.93,-2.04,1784845331301.983
0.363,-0.28,-0.932,-24.72,-6.68,-1.59,1784845331315.092
0.364,-0.285,-0.924,-23.26,-5.28,-0.98,1784845331321.564
0.362,-0.293,-0.924,-20.81,-3.6,-0.34,1784845331331.1191
0.359,-0.299,-0.92,-17.15,-1.68,0.18,1784845331341.5208
0.358,-0.302,-0.908,-12.15,0.49,0.4,1784845331354.722
0.35,-0.295,-0.893,-6.04,2.72,0.09,1784845331360.575
0.34,-0.281,-0.882,-0.09,4.91,-0.24,1784845331370.6438
0.327,-0.264,-0.883,4.58,6.47,-0.34,1784845331381.107
0.31,-0.254,-0.888,7.11,7.23,0.09,1784845331391.326
0.301,-0.254,-0.897,6.81,7.08,0.98,1784845331401.664
0.313,-0.257,-0.901,4.79,6.5,2.23,1784845331415.178
0.33,-0.26,-0.895,3.3,5.95,3.6,1784845331420.4001
0.336,-0.256,-0.882,2.38,5.49,4.39,1784845331430.714
0.343,-0.254,-0.876,1.07,4.49,4.88,1784845331440.8162
0.355,-0.25,-0.872,-0.89,3.05,4.73,1784845331451.3171
0.36,-0.256,-0.876,-3.23,1.83,4.06,1784845331461.7979
0.351,-0.272,-0.876,-5.1,1.28,3.08,1784845331474.915
0.346,-0.284,-0.867,-6.2,0.82,2.69,1784845331480.969
0.348,-0.285,-0.858,-6.01,0.24,2.59,1784845331490.6199
0.353,-0.28,-0.851,-5.16,0.03,2.53,1784845331501.048
0.357,-0.282,-0.85,-4.73,-0.18,2.2,1784845331511.358
0.358,-0.288,-0.857,-4.46,-0.73,1.68,1784845331521.898
0.355,-0.288,-0.868,-3.85,-0.89,1.13,1784845331535.0962
0.362,-0.288,-0.872,-3.6,-1.01,1.46,1784845331540.5813
0.374,-0.293,-0.877,-4.27,-1.28,2.35,1784845331550.627
0.374,-0.3,-0.873,-4.36,-1.04,2.59,1784845331561.196
0.368,-0.313,-0.869,-2.93,-0.58,2.5,1784845331571.386
0.363,-0.327,-0.873,-0.95,0.03,1.86,1784845331581.729
0.362,-0.33,-0.873,1.56,0.67,1.1,1784845331595.356
0.363,-0.325,-0.87,4.55,1.46,0.61,1784845331601.384
0.364,-0.313,-0.878,6.9,2.01,0.24,1784845331610.791
0.365,-0.305,-0.888,7.87,2.41,0.24,1784845331621.111
0.366,-0.304,-0.899,7.39,2.53,0.37,1784845331631.5642
0.37,-0.309,-0.898,6.2,2.29,0.03,1784845331645.7432
0.371,-0.316,-0.892,5.4,1.77,-0.79,1784845331650.29
0.372,-0.329,-0.891,6.78,1.43,-1.74,1784845331660.445
0.37,-0.326,-0.897,9.13,1.86,-3.05,1784845331670.82
0.37,-0.311,-0.905,10.8,2.41,-4.33,1784845331681.291
0.368,-0.295,-0.915,10.35,2.5,-5.13,1784845331691.694
