ax,ay,az,gx,gy,gz,timestamp_ms
0.243,-0.153,-0.926,2.93,1.37,13.7,1784845285509.674
0.243,-0.145,-0.928,1.4,1.19,13.12,1784845285510.247
0.249,-0.154,-0.925,-1.4,0.92,11.69,1784845285510.994
0.249,-0.173,-0.916,-3.88,0.27,10.04,1784845285511.751
0.252,-0.183,-0.908,-3.3,-0.15,9.34,1784845285512.479
0.26,-0.18,-0.917,-0.27,0.0,8.85,1784845285513.142
0.263,-0.162,-0.933,2.2,0.37,7.2,1784845285513.715
0.253,-0.135,-0.942,2.9,0.61,5.65,1784845285514.73
0.243,-0.126,-0.946,2.08,0.15,5.46,1784845285515.342
0.241,-0.134,-0.944,-0.12,-0.58,5.28,1784845285516.2727
0.239,-0.148,-0.936,-1.62,-1.37,5.28,1784845285517.112
0.239,-0.155,-0.939,-1.5,-2.26,5.68,1784845285517.705
0.242,-0.154,-0.947,-0.09,-3.02,6.26,1784845285518.277
0.241,-0.146,-0.949,0.79,-3.78,6.59,1784845285518.847
0.24,-0.134,-0.949,0.7,-4.39,5.83,1784845285519.444
0.242,-0.133,-0.953,0.52,-4.7,4.36,1784845285520.0142
0.238,-0.135,-0.953,1.13,-4.43,2.99,1784845285520.585
0.242,-0.123,-0.965,2.47,-4.43,2.75,1784845285521.181
0.244,-0.107,-0.984,2.38,-4.52,2.96,1784845285521.822
0.232,-0.095,-0.989,0.27,-4.06,2.81,1784845285522.947
0.225,-0.093,-0.974,-2.35,-3.63,2.78,1784845285523.571
0.226,-0.105,-0.956,-3.51,-3.72,2.78,1784845285524.337
0.229,-0.117,-0.944,-2.44,-3.51,2.87,1784845285524.812
0.23,-0.123,-0.947,0.52,-3.42,3.45,1784845285525.481
0.229,-0.11,-0.956,2.56,-3.33,4.61,1784845285525.9678
0.234,-0.096,-0.971,3.11,-3.08,5.28,1784845285526.436
0.232,-0.087,-0.979,2.38,-2.69,4.7,1784845285526.9019
0.221,-0.088,-0.969,1.25,-2.56,4.61,1784845285527.414
0.221,-0.095,-0.96,-0.34,-3.63,5.19,1784845285527.905
0.219,-0.105,-0.945,-1.4,-4.3,5.49,1784845285528.3699
0.222,-0.109,-0.941,-0.58,-4.03,6.04,1784845285528.8542
0.222,-0.102,-0.941,0.09,-4.06,6.87,1784845285529.3271
0.222,-0.109,-0.932,0.24,-4.49,7.39,1784845285529.803
0.215,-0.115,-0.921,0.95,-4.36,7.2,1784845285530.313
0.212,-0.118,-0.904,3.78,-3.78,7.75,1784845285530.814
0.211,-0.111,-0.893,7.57,-3.6,8.85,1784845285531.284
0.211,-0.098,-0.881,10.35,-3.69,10.1,1784845285531.769
0.209,-0.094,-0.867,11.32,-4.49,10.8,1784845285532.2827
0.202,-0.094,-0.855,11.69,-5.77,10.83,1784845285532.783
0.188,-0.093,-0.837,12.15,-6.87,10.41,1784845285533.958
0.18,-0.092,-0.829,12.42,-8.91,9.52,1784845285534.413
0.167,-0.083,-0.828,11.41,-11.41,7.84,1784845285534.865
0.139,-0.074,-0.809,8.91,-13.89,6.5,1784845285535.272
0.112,-0.07,-0.796,6.62,-16.85,5.71,1784845285535.6802
0.097,-0.068,-0.796,5.07,-19.84,5.37,1784845285536.079
0.082,-0.072,-0.789,1.5,-22.77,5.16,1784845285536.4878
0.071,-0.084,-0.762,-2.11,-25.15,5.46,1784845285536.9119
0.069,-0.111,-0.725,-0.7,-27.01,7.08,1784845285537.343
0.066,-0.133,-0.689,4.46,-28.23,8.67,1784845285537.759
0.057,-0.144,-0.65,12.02,-29.51,9.64,1784845285538.1729
0.048,-0.147,-0.637,21.61,-31.16,9.95,1784845285538.5862
0.033,-0.139,-0.625,30.43,-32.47,9.77,1784845285538.994
0.014,-0.129,-0.603,37.6,-34.97,8.7,1784845285539.411
0.003,-0.114,-0.63,43.24,-38.61,7.05,1784845285539.854
-0.022,-0.095,-0.636,44.83,-42.3,5.22,1784845285540.266
-0.062,-0.086,-0.606,42.48,-47.21,2.87,1784845285540.675
-0.063,-0.099,-0.573,40.59,-53.29,2.11,1784845285541.085
-0.08,-0.12,-0.549,40.07,-59.48,-1.92,1784845285541.493
-0.12,-0.138,-0.545,39.77,-65.16,-6.53,1784845285541.895
-0.148,-0.149,-0.57,41.2,-69.83,-8.0,1784845285542.304
-0.185,-0.159,-0.561,42.33,-74.04,-7.81,1784845285542.7158
-0.217,-0.166,-0.549,41.35,-80.11,-8.3,1784845285543.125
-0.228,-0.185,-0.56,39.7,-86.31,-8.88,1784845285543.5322
-0.251,-0.218,-0.545,39.37,-91.22,-8.61,1784845285543.948
-0.275,-0.234,-0.547,41.05,-97.11,-8.27,1784845285544.333
-0.29,-0.201,-0.557,44.43,-102.54,-6.32,1784845285544.726
-0.306,-0.182,-0.565,48.95,-107.21,-2.81,1784845285545.081
-0.336,-0.201,-0.574,50.26,-112.64,-1.4,1784845285545.4358
-0.387,-0.218,-0.573,49.87,-118.66,-0.43,1784845285545.792
-0.434,-0.25,-0.564,50.45,-123.29,2.78,1784845285546.1519
-0.473,-0.294,-0.556,52.92,-126.16,6.29,1784845285546.519
-0.501,-0.344,-0.538,58.53,-127.14,10.35,1784845285546.915
-0.538,-0.394,-0.5,68.18,-127.63,15.78,1784845285547.2761
-0.554,-0.443,-0.499,80.17,-128.57,22.52,1784845285547.648
-0.57,-0.478,-0.526,93.81,-128.3,27.25,1784845285548.013
-0.61,-0.518,-0.536,108.34,-127.35,30.82,1784845285548.3892
-0.625,-0.562,-0.565,122.38,-127.14,35.16,1784845285548.7612
-0.648,-0.595,-0.584,136.11,-126.87,38.73,1784845285549.142
-0.684,-0.624,-0.585,148.56,-127.69,42.7,1784845285549.5159
-0.716,-0.641,-0.603,155.61,-130.31,47.67,1784845285550.15
-0.744,-0.66,-0.581,157.63,-134.37,54.29,1784845285550.524
-0.759,-0.694,-0.562,156.93,-141.12,61.92,1784845285550.897
-0.761,-0.732,-0.602,152.99,-150.03,69.4,1784845285551.267
-0.776,-0.789,-0.667,145.63,-158.27,77.09,1784845285551.6338
-0.8,-0.843,-0.771,132.11,-165.81,82.61,1784845285551.9949
-0.834,-0.858,-0.86,112.95,-172.15,86.4,1784845285552.354
-0.857,-0.872,-0.899,91.68,-177.25,89.88,1784845285552.712
-0.87,-0.897,-0.908,68.54,-180.46,90.79,1784845285553.07
-0.87,-0.934,-0.896,46.36,-181.83,89.72,1784845285553.429
-0.873,-0.972,-0.854,28.38,-180.79,87.16,1784845285553.8062
-0.858,-1.021,-0.812,19.9,-176.67,83.53,1784845285554.151
-0.857,-1.066,-0.748,22.92,-169.04,78.83,1784845285554.477
-0.864,-1.105,-0.69,36.68,-160.59,76.11,1784845285554.802
-0.875,-1.087,-0.536,57.59,-152.35,74.98,1784845285555.137
-0.821,-1.059,-0.506,83.19,-150.49,76.94,1784845285555.472
-0.795,-1.039,-0.674,102.91,-150.18,78.95,1784845285555.8
-0.874,-1.002,-0.823,107.73,-147.59,79.5,1784845285556.129
-0.933,-0.959,-0.948,97.14,-147.22,80.2,1784845285556.447
-0.928,-0.921,-1.031,74.89,-147.68,78.62,1784845285556.77
-0.926,-0.885,-1.035,46.94,-148.38,73.15,1784845285557.106
-0.921,-0.857,-1.003,20.91,-148.81,66.96,1784845285557.429
-0.912,-0.813,-0.96,-4.55,-145.63,61.95,1784845285557.7432
-0.926,-0.758,-0.903,-31.31,-141.58,58.2,1784845285558.0698
-0.917,-0.705,-0.881,-59.88,-139.26,54.9,1784845285558.3943
-0.883,-0.665,-0.895,-92.87,-136.33,47.67,1784845285558.7148
-0.835,-0.679,-0.917,-122.5,-129.22,34.03,1784845285559.0369
-1.163,-0.128,-0.927,-67.14,-87.56,20.81,1784845285559.363
-1.163,-0.128,-0.927,386.0,66.32,33.39,1784845285559.687
-0.686,-1.308,-1.76,662.53,124.82,-11.63,1784845285560.0168
-0.246,-1.514,-2.718,520.98,133.43,-15.26,1784845285560.348
-0.932,-0.229,-1.958,405.35,170.6,57.04,1784845285560.674
-0.843,-0.365,-1.346,405.35,170.6,57.04,1784845285560.996
-0.682,-0.564,-1.022,331.22,176.76,57.86,1784845285561.336
-0.787,-0.426,-0.935,234.87,161.26,37.39,1784845285561.656
-0.85,-0.524,-0.713,124.0,147.56,32.26,1784845285561.995
-0.832,-0.65,-0.553,49.78,129.76,30.73,1784845285562.319
-0.807,-0.557,-0.535,10.86,111.48,36.1,1784845285562.645
-0.668,-0.49,-0.59,-7.45,99.43,49.59,1784845285562.963
-0.555,-0.524,-0.637,-9.34,95.8,63.17,1784845285563.2783
-0.677,-0.66,-0.691,4.76,89.11,56.67,1784845285563.6008
-0.847,-0.616,-0.727,18.1,74.53,23.59,1784845285563.9182
-0.854,-0.516,-0.677,17.52,64.39,3.23,1784845285564.239
-0.785,-0.513,-0.578,6.44,58.35,1.4,1784845285564.555
-0.777,-0.508,-0.464,-6.81,52.34,2.14,1784845285564.866
-0.814,-0.505,-0.378,-15.9,46.78,3.69,1784845285565.187
-0.831,-0.527,-0.315,-25.15,42.21,7.23,1784845285565.5051
-0.824,-0.548,-0.276,-38.73,37.93,9.77,1784845285565.8728
-0.808,-0.567,-0.246,-53.83,34.12,8.97,1784845285566.189
-0.798,-0.586,-0.225,-65.03,30.18,5.31,1784845285566.508
-0.795,-0.593,-0.216,-69.49,26.76,0.37,1784845285566.823
-0.796,-0.587,-0.219,-67.11,24.69,-3.97,1784845285567.1401
-0.803,-0.573,-0.225,-60.18,24.96,-6.35,1784845285567.452
-0.807,-0.566,-0.224,-49.38,26.67,-6.62,1784845285567.768
-0.812,-0.555,-0.217,-35.65,28.84,-6.01,1784845285568.0872
-0.808,-0.539,-0.215,-20.72,31.34,-5.13,1784845285568.395
-0.794,-0.517,-0.207,-7.14,33.08,-5.19,1784845285568.712
-0.78,-0.5,-0.205,4.21,33.6,-6.44,1784845285569.023
-0.771,-0.502,-0.203,12.97,34.06,-8.27,1784845285569.335
-0.77,-0.513,-0.193,20.45,34.91,-9.77,1784845285569.642
-0.765,-0.52,-0.185,27.19,35.49,-10.83,1784845285569.96
-0.761,-0.51,-0.18,33.02,35.28,-12.18,1784845285570.2798
-0.764,-0.499,-0.176,37.75,34.27,-13.43,1784845285570.605
-0.765,-0.493,-0.176,41.17,32.44,-13.55,1784845285570.915
-0.762,-0.495,-0.179,43.89,29.79,-12.91,1784845285571.2332
-0.764,-0.491,-0.188,46.3,26.4,-13.43,1784845285571.5498
-0.769,-0.48,-0.202,47.79,22.46,-15.23,1784845285571.862
-0.77,-0.467,-0.221,47.64,18.19,-16.88,1784845285572.183
-0.775,-0.46,-0.239,44.95,13.61,-17.7,1784845285572.501
-0.777,-0.457,-0.251,40.28,8.73,-17.82,1784845285572.8208
-0.773,-0.456,-0.265,34.03,3.51,-18.19,1784845285573.1453
-0.758,-0.453,-0.286,26.95,-1.4,-19.5,1784845285573.487
-0.759,-0.463,-0.298,21.21,-5.16,-21.06,1784845285573.822
-0.765,-0.472,-0.311,16.24,-8.15,-21.55,1784845285574.139
-0.765,-0.477,-0.312,10.9,-10.86,-21.09,1784845285574.452
-0.76,-0.489,-0.317,6.84,-13.34,-20.05,1784845285574.764
-0.76,-0.496,-0.322,3.97,-15.5,-18.37,1784845285575.0771
-0.762,-0.501,-0.325,1.8,-17.4,-15.84,1784845285575.389
-0.762,-0.501,-0.33,0.92,-19.07,-13.4,1784845285575.6987
-0.761,-0.502,-0.337,1.65,-20.57,-11.29,1784845285576.015
-0.76,-0.501,-0.347,2.75,-21.82,-8.94,1784845285576.3252
-0.757,-0.496,-0.357,3.14,-22.98,-6.53,1784845285576.6301
-0.756,-0.49,-0.37,2.56,-23.93,-4.46,1784845285576.938
-0.754,-0.492,-0.387,0.82,-24.93,-2.9,1784845285577.249
-0.755,-0.5,-0.399,-1.95,-26.22,-1.89,1784845285577.56
-0.761,-0.506,-0.407,-4.55,-27.47,-1.22,1784845285577.864
-0.761,-0.507,-0.412,-7.63,-28.38,-0.21,1784845285578.1729
-0.756,-0.509,-0.418,-10.93,-29.48,0.49,1784845285578.486
-0.753,-0.51,-0.421,-13.86,-30.64,0.46,1784845285578.795
-0.756,-0.51,-0.426,-16.21,-31.62,0.12,1784845285579.107
-0.753,-0.503,-0.435,-22.49,-33.05,-0.92,1784845285579.747
-0.754,-0.506,-0.438,-25.7,-33.51,-2.04,1784845285580.0571
-0.753,-0.513,-0.441,-2.56,1.53,-2.35,1784845285580.4229
-0.786,-0.51,-0.332,-3.45,1.28,-2.41,1784845285580.776
-0.787,-0.511,-0.334,-3.78,1.07,-2.69,1784845285581.128
-0.786,-0.51,-0.335,-3.48,1.1,-2.99,1784845285581.434
-0.784,-0.509,-0.339,-3.14,1.31,-3.11,1784845285581.738
-0.786,-0.506,-0.339,-3.14,1.25,-3.27,1784845285582.05
-0.788,-0.505,-0.341,-3.36,1.19,-3.51,1784845285589.598
-0.789,-0.505,-0.341,-3.78,1.25,-3.81,1784845285600.105
-0.788,-0.506,-0.341,-4.06,1.34,-4.21,1784845285610.475
-0.787,-0.507,-0.339,-4.06,1.59,-4.18,1784845285623.773
-0.789,-0.504,-0.339,-3.3,2.11,-4.03,1784845285629.101
-0.789,-0.506,-0.34,-2.38,2.84,-3.81,1784845285639.3162
-0.789,-0.504,-0.337,-1.46,3.3,-3.72,1784845285649.68
-0.787,-0.5,-0.338,-0.64,3.72,-3.54,1784845285660.1658
-0.786,-0.499,-0.343,-0.31,4.06,-3.14,1784845285670.521
-0.787,-0.499,-0.344,-0.09,4.43,-2.96,1784845285683.813
-0.79,-0.497,-0.343,0.03,4.88,-2.75,1784845285689.3281
-0.791,-0.496,-0.343,0.06,5.16,-2.5,1784845285699.405
-0.791,-0.497,-0.339,0.37,5.37,-2.17,1784845285709.9353
-0.791,-0.497,-0.338,1.13,5.65,-2.04,1784845285720.268
-0.791,-0.496,-0.336,2.14,5.86,-2.04,1784845285730.613
-0.79,-0.491,-0.334,3.14,5.86,-1.95,1784845285743.967
-0.785,-0.484,-0.333,3.66,5.74,-1.71,1784845285749.4458
-0.782,-0.482,-0.334,3.45,5.62,-1.4,1784845285759.5188
-0.781,-0.484,-0.335,2.96,5.31,-1.65,1784845285770.075
-0.78,-0.483,-0.335,2.99,5.1,-1.62,1784845285780.542
-0.779,-0.486,-0.334,3.27,5.1,-1.53,1784845285793.7852
-0.78,-0.487,-0.33,3.72,4.94,-1.19,1784845285799.526
-0.777,-0.487,-0.329,4.55,5.1,-0.58,1784845285809.46
-0.774,-0.485,-0.334,5.31,5.4,0.49,1784845285819.705
-0.773,-0.487,-0.334,5.74,5.77,1.62,1784845285830.129
-0.776,-0.49,-0.332,5.77,5.74,2.44,1784845285840.353
-0.775,-0.492,-0.327,5.83,5.83,2.99,1784845285853.748
-0.774,-0.492,-0.332,6.41,6.16,3.45,1784845285859.521
-0.775,-0.492,-0.341,7.02,7.11,4.03,1784845285869.687
-0.781,-0.491,-0.344,8.55,8.24,4.55,1784845285879.7598
-0.786,-0.49,-0.356,10.62,9.46,5.16,1784845285890.146
-0.795,-0.488,-0.385,13.61,11.75,5.49,1784845285903.5552
-0.811,-0.483,-0.397,18.77,15.38,5.8,1784845285909.1948
-0.811,-0.474,-0.398,25.82,19.47,6.44,1784845285919.7449
-0.817,-0.466,-0.409,33.11,24.11,7.08,1784845285930.415
-0.825,-0.457,-0.431,40.47,29.51,8.03,1784845285943.5588
-0.835,-0.46,-0.465,48.19,35.25,8.42,1784845285949.307
-0.848,-0.463,-0.517,55.02,41.75,7.84,1784845285959.821
-0.842,-0.458,-0.577,62.26,49.96,6.93,1784845285970.282
-0.849,-0.445,-0.611,71.6,59.42,5.92,1784845285986.882
-0.858,-0.426,-0.626,81.48,68.3,5.31,1784845285989.945
-0.867,-0.408,-0.625,91.04,76.42,5.43,1784845285999.6538
-0.865,-0.404,-0.634,99.98,84.02,5.74,1784845286010.247
-0.86,-0.412,-0.666,108.16,91.37,5.37,1784845286023.5579
-0.858,-0.426,-0.705,115.3,98.48,5.1,1784845286029.7083
-0.84,-0.443,-0.749,120.12,105.81,4.79,1784845286040.297
-0.824,-0.465,-0.786,121.71,113.13,4.06,1784845286051.035
-0.816,-0.494,-0.82,120.3,119.69,3.36,1784845286064.081
-0.813,-0.522,-0.859,116.15,125.86,3.17,1784845286069.924
-0.819,-0.535,-0.883,110.69,131.72,3.08,1784845286080.847
-0.817,-0.534,-0.893,104.31,136.81,3.72,1784845286094.131
-0.809,-0.53,-0.902,96.13,141.51,4.82,1784845286099.991
-0.794,-0.524,-0.901,87.16,145.76,5.74,1784845286110.6738
-0.77,-0.534,-0.881,80.11,149.75,6.81,1784845286123.806
-0.765,-0.571,-0.845,76.94,153.36,7.26,1784845286129.7861
-0.763,-0.613,-0.838,75.66,156.96,7.54,1784845286140.373
-0.76,-0.649,-0.831,73.85,161.75,8.36,1784845286153.618
-0.754,-0.678,-0.833,71.2,166.17,9.06,1784845286159.367
-0.75,-0.709,-0.821,67.9,170.75,8.85,1784845286169.9897
-0.747,-0.744,-0.801,65.28,174.38,7.66,1784845286180.81
-0.744,-0.776,-0.773,62.5,176.89,6.13,1784845286193.923
-0.736,-0.796,-0.744,59.45,178.2,4.36,1784845286199.7068
-0.721,-0.81,-0.754,55.24,179.14,2.62,1784845286210.3438
-0.707,-0.828,-0.767,49.9,180.64,0.27,1784845286223.7
-0.709,-0.843,-0.766,44.89,181.46,-3.02,1784845286229.6108
-0.702,-0.846,-0.775,38.36,181.25,-6.07,1784845286240.131
-0.697,-0.84,-0.747,29.88,181.31,-8.55,1784845286253.257
-0.687,-0.839,-0.704,21.67,179.82,-11.44,1784845286263.904
-0.663,-0.85,-0.707,13.34,178.08,-15.11,1784845286269.557
-0.649,-0.866,-0.693,6.2,178.04,-18.68,1784845286280.3809
-0.64,-0.886,-0.672,2.59,177.37,-21.45,1784845286293.8171
-0.627,-0.898,-0.646,1.77,177.07,-23.8,1784845286299.652
-0.612,-0.9,-0.64,2.38,176.43,-25.36,1784845286310.334
-0.594,-0.887,-0.648,3.63,176.67,-26.18,1784845286323.5562
-0.586,-0.867,-0.631,5.34,176.79,-26.09,1784845286329.887
-0.563,-0.851,-0.626,6.29,175.45,-26.06,1784845286340.076
-0.527,-0.843,-0.627,7.6,174.32,-26.8,1784845286350.731
-0.499,-0.842,-0.616,9.4,173.1,-28.44,1784845286364.111
-0.471,-0.837,-0.603,10.47,171.36,-29.66,1784845286369.5623
-0.446,-0.824,-0.601,10.44,169.29,-29.27,1784845286380.446
-0.428,-0.799,-0.601,8.79,167.27,-27.83,1784845286393.639
-0.41,-0.772,-0.578,6.74,164.77,-25.12,1784845286399.9229
-0.387,-0.753,-0.572,4.06,161.32,-21.82,1784845286410.2341
-0.355,-0.736,-0.591,0.27,157.78,-18.92,1784845286423.652
-0.311,-0.712,-0.604,-3.45,155.06,-16.33,1784845286429.686
-0.272,-0.7,-0.613,-6.5,152.23,-13.76,1784845286439.782
-0.23,-0.694,-0.633,-9.58,149.3,-11.69,1784845286450.5322
-0.211,-0.702,-0.616,-11.69,146.92,-10.59,1784845286464.184
-0.21,-0.72,-0.589,-13.58,143.16,-10.1,1784845286469.53
-0.202,-0.722,-0.581,-14.28,139.68,-9.49,1784845286480.3628
-0.198,-0.704,-0.557,-12.05,137.09,-7.35,1784845286493.8308
-0.181,-0.686,-0.548,-9.95,133.95,-4.18,1784845286499.9138
-0.163,-0.683,-0.543,-10.41,130.47,-2.75,1784845286510.026
-0.151,-0.681,-0.534,-12.7,126.5,-2.26,1784845286520.65
-0.145,-0.677,-0.538,-16.27,122.65,-1.83,1784845286533.861
-0.123,-0.663,-0.556,-20.54,119.82,-1.46,1784845286539.5862
-0.091,-0.661,-0.539,-22.61,117.68,-1.04,1784845286550.2441
-0.057,-0.68,-0.518,-21.09,114.26,-1.43,1784845286563.5
-0.032,-0.696,-0.506,-16.66,110.97,-2.38,1784845286569.149
-0.016,-0.699,-0.505,-11.08,108.74,-2.29,1784845286579.9292
0.0,-0.691,-0.52,-5.65,107.7,-1.95,1784845286590.5469
0.012,-0.682,-0.522,0.85,107.97,-2.32,1784845286603.8188
0.008,-0.675,-0.496,9.37,108.28,-2.56,1784845286609.651
0.016,-0.661,-0.472,17.76,107.52,-2.35,1784845286620.138
0.044,-0.643,-0.473,25.3,106.36,-1.59,1784845286630.657
0.081,-0.636,-0.484,30.73,105.26,-0.37,1784845286643.944
0.081,-0.636,-0.484,35.28,103.61,0.67,1784845286649.8188
0.111,-0.636,-0.486,38.3,100.53,0.79,1784845286660.4229
0.123,-0.627,-0.499,39.0,97.45,0.18,1784845286673.814
0.134,-0.605,-0.516,39.86,94.85,0.18,1784845286679.526
0.156,-0.598,-0.532,39.86,94.85,0.18,1784845286689.897
0.176,-0.601,-0.539,40.07,92.56,0.61,1784845286700.51
0.182,-0.601,-0.544,38.88,89.97,1.19,1784845286713.708
0.182,-0.591,-0.537,36.01,86.64,3.2,1784845286719.5962
0.199,-0.578,-0.524,31.5,82.83,6.81,1784845286729.95
0.222,-0.577,-0.518,26.25,79.47,10.19,1784845286740.5
0.233,-0.588,-0.528,21.91,76.54,12.63,1784845286753.877
0.233,-0.602,-0.524,20.02,75.08,14.16,1784845286759.444
0.233,-0.617,-0.493,20.33,74.1,15.66,1784845286770.489
0.248,-0.631,-0.471,21.18,72.39,17.37,1784845286783.5671
0.271,-0.646,-0.457,22.37,70.5,19.99,1784845286789.551
0.279,-0.672,-0.44,23.22,69.15,23.41,1784845286799.9941
0.272,-0.702,-0.424,23.71,67.54,26.12,1784845286810.6711
0.269,-0.728,-0.393,25.3,65.83,27.47,1784845286824.232
0.275,-0.741,-0.35,30.98,64.76,27.86,1784845286830.0723
0.29,-0.751,-0.313,41.44,64.82,27.99,1784845286840.353
0.303,-0.753,-0.317,53.47,64.64,27.28,1784845286853.613
0.316,-0.753,-0.324,64.36,64.58,25.61,1784845286859.7332
0.324,-0.756,-0.327,71.63,63.54,24.14,1784845286870.1902
0.334,-0.753,-0.321,74.07,61.19,22.68,1784845286880.883
0.344,-0.76,-0.304,73.43,57.92,20.72,1784845286894.1191
0.343,-0.764,-0.308,68.91,53.38,18.37,1784845286900.316
0.334,-0.757,-0.312,60.73,48.83,15.53,1784845286910.471
0.337,-0.766,-0.294,52.61,44.04,11.96,1784845286923.674
0.354,-0.771,-0.282,45.08,38.42,7.51,1784845286929.818
0.365,-0.76,-0.271,39.16,33.45,3.08,1784845286939.8542
0.367,-0.752,-0.26,36.04,29.57,0.0,1784845286950.481
0.364,-0.753,-0.242,33.75,25.94,-1.8,1784845286963.9448
0.363,-0.757,-0.258,31.98,21.91,-3.51,1784845286969.527
0.368,-0.752,-0.297,29.21,18.52,-5.49,1784845286979.9458
0.375,-0.737,-0.308,22.55,15.72,-8.03,1784845286990.674
0.379,-0.723,-0.296,11.2,12.27,-9.77,1784845287003.7607
0.375,-0.716,-0.281,-1.07,7.66,-10.47,1784845287009.651
0.368,-0.716,-0.281,-11.75,3.17,-10.74,1784845287019.87
0.369,-0.731,-0.279,-21.15,-0.64,-10.68,1784845287030.546
0.387,-0.752,-0.257,-27.31,-4.03,-10.41,1784845287043.9238
0.398,-0.77,-0.233,-27.8,-6.16,-10.9,1784845287049.663
0.391,-0.777,-0.225,-23.9,-7.29,-11.69,1784845287059.875
0.383,-0.778,-0.232,-18.01,-7.84,-11.69,1784845287070.3882
0.387,-0.774,-0.274,-13.18,-8.76,-10.74,1784845287083.7861
0.402,-0.769,-0.323,-11.63,-9.37,-9.64,1784845287089.679
0.418,-0.776,-0.333,-14.1,-10.32,-8.48,1784845287100.185
0.409,-0.783,-0.333,-19.2,-12.15,-7.78,1784845287110.424
0.402,-0.786,-0.322,-24.45,-13.52,-7.69,1784845287123.869
0.411,-0.799,-0.307,-28.53,-15.26,-8.33,1784845287129.538
0.423,-0.81,-0.291,-29.45,-17.15,-9.4,1784845287139.742
0.43,-0.827,-0.286,-25.82,-18.4,-10.35,1784845287150.511
0.429,-0.85,-0.326,-20.39,-19.2,-11.32,1784845287163.8347
0.434,-0.868,-0.371,-16.14,-18.98,-11.41,1784845287169.6218
0.452,-0.888,-0.384,-13.52,-18.43,-11.26,1784845287180.309
0.464,-0.905,-0.373,-11.47,-18.07,-12.09,1784845287190.9539
0.463,-0.913,-0.342,-7.66,-17.7,-13.4,1784845287204.164
0.469,-0.924,-0.326,-0.89,-17.33,-15.44,1784845287209.868
0.471,-0.923,-0.334,5.77,-16.69,-18.04,1784845287220.355
0.465,-0.913,-0.33,11.9,-16.21,-20.11,1784845287233.5251
0.459,-0.905,-0.335,16.94,-16.3,-20.97,1784845287239.6118
0.451,-0.9,-0.344,18.8,-16.11,-20.69,1784845287249.972
0.447,-0.915,-0.351,18.56,-16.51,-19.9,1784845287260.611
0.454,-0.938,-0.348,17.33,-17.49,-19.99,1784845287273.9612
0.461,-0.946,-0.324,16.27,-18.65,-21.18,1784845287279.5168
0.465,-0.942,-0.296,15.93,-20.36,-22.98,1784845287290.22
0.46,-0.933,-0.279,15.2,-22.58,-24.93,1784845287303.5981
0.451,-0.922,-0.271,12.63,-25.21,-27.25,1784845287309.321
0.44,-0.921,-0.259,8.97,-28.32,-28.96,1784845287319.849
0.434,-0.93,-0.255,6.53,-31.34,-29.36,1784845287330.334
0.435,-0.942,-0.253,6.29,-33.88,-29.63,1784845287343.824
0.449,-0.958,-0.237,7.26,-35.98,-30.3,1784845287350.1272
0.454,-0.98,-0.228,8.67,-38.39,-32.26,1784845287359.941
0.443,-0.973,-0.225,9.52,-40.93,-35.28,1784845287370.4163
0.436,-0.947,-0.219,9.67,-43.43,-38.18,1784845287383.807
0.426,-0.93,-0.224,7.63,-46.69,-40.77,1784845287389.702
0.412,-0.913,-0.242,4.24,-50.2,-43.21,1784845287399.963
0.399,-0.916,-0.247,0.37,-53.29,-44.47,1784845287410.4058
0.396,-0.923,-0.243,-3.63,-56.61,-45.32,1784845287423.9402
0.392,-0.92,-0.232,-5.74,-59.79,-46.66,1784845287429.9563
0.392,-0.911,-0.232,-6.35,-63.17,-48.55,1784845287439.798
0.394,-0.901,-0.231,-8.51,-66.81,-50.6,1784845287450.769
0.386,-0.897,-0.253,-11.69,-71.54,-53.1,1784845287463.8828
0.377,-0.888,-0.298,-15.32,-75.38,-55.33,1784845287469.934
0.377,-0.881,-0.326,-19.84,-78.01,-57.74,1784845287480.428
0.375,-0.885,-0.341,-23.41,-80.51,-60.43,1784845287490.7078
0.366,-0.882,-0.344,-24.11,-82.34,-63.26,1784845287504.042
0.356,-0.878,-0.332,-22.58,-83.86,-66.59,1784845287509.729
0.355,-0.877,-0.355,-19.99,-86.21,-70.16,1784845287520.496
0.358,-0.869,-0.394,-18.46,-88.32,-74.59,1784845287533.997
0.352,-0.857,-0.407,-20.05,-90.49,-79.26,1784845287540.087
0.353,-0.846,-0.423,-24.63,-93.63,-83.68,1784845287550.407
0.349,-0.824,-0.438,-31.4,-96.96,-87.8,1784845287563.636
0.336,-0.805,-0.459,-39.46,-100.44,-90.82,1784845287569.186
0.322,-0.794,-0.507,-47.4,-103.24,-93.45,1784845287580.063
0.324,-0.786,-0.532,-51.94,-103.98,-96.62,1784845287590.7441
0.336,-0.784,-0.571,-50.54,-103.85,-100.74,1784845287604.11
0.334,-0.763,-0.597,-45.75,-102.15,-104.19,1784845287609.9148
0.331,-0.743,-0.607,-40.89,-100.34,-105.72,1784845287623.7139
0.322,-0.72,-0.629,-39.37,-99.92,-106.33,1784845287629.5613
0.309,-0.682,-0.65,-41.96,-99.77,-106.14,1784845287640.179
0.301,-0.652,-0.661,-46.14,-99.19,-106.17,1784845287653.591
0.301,-0.653,-0.68,-47.15,-97.45,-106.57,1784845287659.1292
0.302,-0.663,-0.673,-43.0,-93.69,-107.7,1784845287670.1282
0.304,-0.67,-0.685,-34.91,-89.51,-109.32,1784845287683.505
0.311,-0.662,-0.703,-24.08,-84.96,-107.97,1784845287689.326
0.324,-0.638,-0.709,-11.63,-80.54,-105.59,1784845287700.4968
0.315,-0.608,-0.743,-1.5,-77.43,-104.86,1784845287713.419
0.284,-0.579,-0.779,4.09,-74.86,-104.04,1784845287719.756
0.254,-0.557,-0.784,6.23,-72.36,-102.76,1784845287730.076
0.269,-0.555,-0.788,7.72,-70.41,-101.17,1784845287740.4312
0.284,-0.555,-0.786,11.54,-67.23,-101.23,1784845287753.8428
0.261,-0.541,-0.766,17.79,-63.72,-102.24,1784845287761.0
0.253,-0.53,-0.758,23.53,-62.41,-100.31,1784845287770.574
0.27,-0.511,-0.779,28.87,-61.8,-97.29,1784845287784.061
0.262,-0.479,-0.796,33.57,-60.88,-96.07,1784845287799.229
0.26,-0.458,-0.829,33.75,-61.04,-95.77,1784845287802.868
0.265,-0.445,-0.88,27.99,-62.04,-96.26,1784845287813.674
0.249,-0.431,-0.896,20.29,-62.23,-96.22,1784845287827.245
0.246,-0.42,-0.872,13.46,-62.14,-95.31,1784845287859.6108
0.258,-0.408,-0.85,8.06,-62.59,-95.8,1784845287860.2722
0.26,-0.406,-0.835,4.61,-62.26,-95.0,1784845287861.268
0.245,-0.405,-0.816,3.23,-61.56,-93.66,1784845287862.3518
0.265,-0.4,-0.836,3.69,-61.59,-92.04,1784845287869.8398
0.271,-0.389,-0.868,4.61,-60.95,-91.62,1784845287882.168
0.247,-0.384,-0.879,4.06,-59.27,-91.71,1784845287893.579
0.242,-0.384,-0.879,2.9,-57.95,-91.16,1784845287899.251
0.24,-0.373,-0.876,3.78,-57.74,-90.09,1784845287909.785
0.248,-0.356,-0.875,6.16,-57.13,-88.08,1784845287920.3357
0.258,-0.337,-0.874,9.06,-54.81,-86.58,1784845287933.5781
0.258,-0.337,-0.874,11.35,-52.86,-86.25,1784845287939.29
0.239,-0.31,-0.854,10.99,-53.16,-84.51,1784845287949.9258
0.237,-0.293,-0.844,8.42,-53.5,-81.97,1784845287960.511
0.245,-0.296,-0.831,6.23,-52.28,-81.15,1784845287973.748
0.234,-0.31,-0.772,6.23,-52.28,-81.15,1784845287979.465
0.234,-0.322,-0.717,6.01,-52.16,-81.3,1784845287989.9258
0.203,-0.326,-0.71,7.35,-53.65,-80.84,1784845288000.491
0.154,-0.303,-0.769,7.29,-56.0,-80.72,1784845288013.8938
0.169,-0.264,-0.845,4.7,-57.41,-80.94,1784845288019.5461
0.186,-0.254,-0.854,2.26,-56.49,-81.82,1784845288030.0623
0.127,-0.242,-0.81,1.71,-55.73,-83.65,1784845288040.537
0.105,-0.222,-0.798,3.42,-57.1,-84.14,1784845288053.961
0.14,-0.22,-0.831,4.91,-59.69,-82.52,1784845288059.598
0.178,-0.212,-0.942,5.04,-63.08,-79.44,1784845288070.032
0.171,-0.187,-1.053,2.5,-64.27,-75.2,1784845288080.691
0.191,-0.167,-1.116,-4.33,-63.78,-70.1,1784845288093.874
0.215,-0.154,-1.141,-11.75,-62.35,-67.81,1784845288099.565
0.226,-0.148,-1.125,-15.59,-59.63,-64.15,1784845288110.354
0.243,-0.126,-1.115,-17.0,-56.46,-61.31,1784845288123.48
0.253,-0.109,-1.128,-17.4,-53.29,-61.31,1784845288129.449
0.246,-0.118,-1.152,-17.06,-50.14,-62.01,1784845288140.222
0.214,-0.13,-1.159,-15.78,-46.42,-61.53,1784845288150.709
0.239,-0.155,-1.202,-11.14,-41.08,-59.05,1784845288163.9512
0.239,-0.13,-1.178,-11.32,-38.39,-58.35,1784845288169.7322
0.231,-0.121,-1.182,-7.42,-35.16,-56.0,1784845288180.383
0.225,-0.108,-1.159,-4.3,-30.76,-52.77,1784845288190.769
0.222,-0.093,-1.133,0.31,-27.34,-49.38,1784845288204.163
0.222,-0.073,-1.133,5.4,-24.48,-46.02,1784845288209.794
0.233,-0.051,-1.149,7.2,-21.97,-42.66,1784845288220.285
0.233,-0.044,-1.168,6.04,-19.17,-39.77,1784845288230.899
0.222,-0.042,-1.169,3.75,-16.72,-37.08,1784845288244.1
0.212,-0.039,-1.147,1.5,-14.65,-34.18,1784845288250.1099
0.213,-0.042,-1.11,-0.06,-12.63,-30.79,1784845288260.363
0.218,-0.055,-1.079,-0.95,-11.08,-27.71,1784845288270.869
0.218,-0.071,-1.044,-1.37,-9.89,-25.03,1784845288283.9858
0.226,-0.082,-1.025,-1.04,-9.49,-22.31,1784845288289.6982
0.237,-0.087,-1.032,-0.03,-9.06,-19.68,1784845288300.754
0.236,-0.083,-1.034,0.37,-8.03,-17.67,1784845288310.472
0.228,-0.077,-1.026,-0.92,-7.2,-16.33,1784845288323.7031
0.236,-0.076,-1.009,-3.08,-6.65,-15.29,1784845288329.544
0.245,-0.088,-0.99,-4.67,-5.86,-14.65,1784845288339.672
0.235,-0.103,-0.966,-5.49,-4.79,-14.37,1784845288350.1848
0.244,-0.113,-0.954,-4.58,-4.12,-14.07,1784845288360.636
0.249,-0.113,-0.969,-2.81,-4.09,-13.61,1784845288373.827
0.244,-0.104,-0.991,-2.41,-3.85,-12.48,1784845288379.479
0.242,-0.092,-0.997,-4.39,-3.45,-10.68,1784845288389.708
0.241,-0.083,-0.979,-7.26,-3.85,-8.79,1784845288400.0608
0.247,-0.084,-0.954,-10.07,-3.33,-8.24,1784845288410.562
0.251,-0.101,-0.935,-11.54,-2.72,-7.75,1784845288423.772
0.252,-0.121,-0.93,-11.51,-3.97,-5.55,1784845288429.487
0.256,-0.123,-0.94,-11.11,-4.73,-4.06,1784845288439.6438
0.253,-0.129,-0.941,-11.08,-3.45,-4.0,1784845288450.2651
0.256,-0.147,-0.935,-10.62,-3.54,-1.77,1784845288460.664
0.265,-0.15,-0.934,-8.51,-4.24,0.98,1784845288473.927
0.269,-0.15,-0.93,-5.07,-3.23,2.81,1784845288479.423
0.263,-0.151,-0.923,-2.87,-1.83,3.54,1784845288489.539
0.261,-0.153,-0.928,-2.23,-1.22,3.97,1784845288500.0918
0.266,-0.162,-0.943,-1.92,-1.31,4.76,1784845288510.377
