ax,ay,az,gx,gy,gz,timestamp_ms
0.375,-0.632,-0.673,26.58,-84.72,-90.33,1784845241304.685
0.363,-0.605,-0.659,37.39,-81.18,-87.71,1784845241305.2412
0.349,-0.596,-0.63,46.11,-78.46,-85.54,1784845241305.771
0.366,-0.566,-0.632,50.26,-78.16,-84.11,1784845241306.3008
0.376,-0.535,-0.676,52.46,-78.86,-82.8,1784845241306.9282
0.358,-0.504,-0.688,50.6,-78.83,-82.58,1784845241307.471
0.365,-0.475,-0.708,42.05,-80.2,-83.38,1784845241308.008
0.365,-0.483,-0.721,31.89,-82.86,-82.09,1784845241308.8582
0.351,-0.531,-0.68,24.66,-84.14,-78.37,1784845241309.622
0.343,-0.567,-0.647,22.8,-83.38,-78.59,1784845241310.553
0.333,-0.572,-0.626,28.96,-80.87,-82.37,1784845241311.1492
0.32,-0.554,-0.584,39.46,-78.65,-84.78,1784845241311.7422
0.365,-0.493,-0.609,48.07,-79.01,-83.38,1784845241312.329
0.407,-0.442,-0.702,55.39,-78.68,-80.14,1784845241312.907
0.374,-0.423,-0.749,56.64,-76.69,-76.97,1784845241313.494
0.377,-0.417,-0.778,50.2,-76.82,-72.12,1784845241314.082
0.371,-0.421,-0.777,43.67,-76.51,-69.37,1784845241314.6619
0.318,-0.415,-0.717,39.74,-75.47,-68.12,1784845241315.244
0.332,-0.385,-0.674,35.92,-75.75,-65.25,1784845241316.947
0.357,-0.373,-0.659,37.48,-75.38,-63.63,1784845241318.681
0.352,-0.39,-0.683,45.05,-73.64,-62.72,1784845241319.5742
0.343,-0.394,-0.743,51.97,-71.84,-61.4,1784845241320.138
0.322,-0.374,-0.757,55.36,-70.41,-59.76,1784845241320.691
0.352,-0.383,-0.785,57.83,-70.83,-57.01,1784845241321.211
0.37,-0.436,-0.811,61.77,-70.16,-55.91,1784845241321.789
0.331,-0.452,-0.787,65.03,-68.06,-55.24,1784845241322.301
0.297,-0.439,-0.763,68.73,-66.81,-52.16,1784845241322.814
0.292,-0.428,-0.735,74.83,-65.86,-48.28,1784845241323.3188
0.327,-0.409,-0.744,83.22,-64.67,-45.5,1784845241323.822
0.377,-0.387,-0.794,90.18,-62.99,-42.3,1784845241324.331
0.377,-0.423,-0.83,95.43,-61.4,-39.86,1784845241324.827
0.359,-0.476,-0.804,97.96,-59.88,-38.51,1784845241325.324
0.39,-0.606,-0.764,109.62,-57.71,-37.29,1784845241325.8108
0.421,-0.696,-0.735,127.81,-53.19,-38.27,1784845241326.318
0.454,-0.663,-0.785,146.03,-48.34,-38.91,1784845241326.8281
0.454,-0.582,-0.9,157.84,-42.57,-37.2,1784845241327.319
0.377,-0.462,-0.947,151.01,-38.12,-32.75,1784845241327.798
0.365,-0.382,-0.982,125.68,-41.38,-24.32,1784845241328.285
0.386,-0.374,-0.98,88.84,-48.46,-19.1,1784845241328.81
0.413,-0.427,-0.925,53.32,-54.54,-16.54,1784845241329.302
0.461,-0.499,-0.94,27.89,-59.79,-16.39,1784845241329.8062
0.463,-0.561,-0.928,10.07,-61.92,-17.73,1784845241330.322
0.435,-0.631,-0.871,0.67,-62.78,-21.49,1784845241330.8318
0.444,-0.654,-0.853,-1.68,-63.78,-26.06,1784845241331.337
0.449,-0.638,-0.859,2.93,-61.77,-28.23,1784845241331.829
0.433,-0.611,-0.868,11.05,-57.22,-27.77,1784845241332.2603
0.415,-0.56,-0.892,16.14,-53.22,-26.92,1784845241333.206
0.426,-0.514,-0.915,14.65,-50.66,-23.9,1784845241333.772
0.43,-0.485,-0.94,6.59,-49.44,-21.42,1784845241334.2048
0.432,-0.454,-0.969,-5.77,-48.4,-19.81,1784845241334.62
0.425,-0.44,-0.978,-17.52,-46.82,-20.39,1784845241335.041
0.431,-0.428,-0.999,-27.44,-45.75,-22.19,1784845241335.4548
0.414,-0.408,-1.008,-37.45,-43.43,-25.48,1784845241335.8662
0.369,-0.421,-0.998,-47.06,-42.42,-20.94,1784845241336.284
0.396,-0.506,-0.97,-51.55,-40.68,-3.08,1784845241336.694
0.427,-0.551,-0.923,-46.6,-33.45,4.3,1784845241337.1023
0.408,-0.519,-0.885,-34.82,-24.69,1.37,1784845241337.503
0.419,-0.537,-0.878,-20.78,-18.13,3.48,1784845241337.9111
0.427,-0.562,-0.876,-8.61,-12.39,5.8,1784845241338.3171
0.415,-0.551,-0.867,4.18,-3.94,6.53,1784845241338.719
0.401,-0.521,-0.882,16.33,3.36,5.89,1784845241339.1191
0.394,-0.479,-0.894,20.17,6.26,5.74,1784845241339.5232
0.383,-0.456,-0.867,14.86,7.51,6.01,1784845241339.927
0.375,-0.478,-0.817,5.19,7.42,6.38,1784845241340.323
0.381,-0.527,-0.772,-1.92,5.55,6.44,1784845241340.722
0.4,-0.567,-0.753,-2.56,4.21,6.62,1784845241341.154
0.417,-0.575,-0.765,0.73,4.52,6.96,1784845241341.5588
0.413,-0.552,-0.798,2.99,5.46,6.07,1784845241341.902
0.393,-0.525,-0.809,0.89,6.07,5.74,1784845241342.2458
0.389,-0.52,-0.793,-5.43,5.07,7.05,1784845241342.645
0.401,-0.511,-0.76,-13.86,3.66,7.26,1784845241343.0012
0.416,-0.513,-0.723,-19.2,2.69,7.17,1784845241343.345
0.426,-0.54,-0.71,-21.73,1.98,6.71,1784845241343.6912
0.423,-0.562,-0.701,-22.58,2.14,5.86,1784845241344.04
0.418,-0.597,-0.696,-19.26,3.11,5.98,1784845241344.386
0.413,-0.634,-0.683,-11.93,4.91,6.56,1784845241344.7627
0.418,-0.635,-0.67,-1.83,7.63,7.26,1784845241345.113
0.433,-0.614,-0.682,10.13,11.29,9.31,1784845241345.4678
0.443,-0.586,-0.7,19.23,14.44,10.77,1784845241345.8208
0.443,-0.572,-0.723,23.01,15.56,10.32,1784845241346.188
0.438,-0.563,-0.723,20.36,14.74,8.88,1784845241346.556
0.447,-0.557,-0.713,14.56,12.6,7.63,1784845241346.9062
0.447,-0.557,-0.713,8.73,10.16,6.38,1784845241347.251
0.459,-0.562,-0.714,2.17,8.39,4.27,1784845241347.595
0.451,-0.563,-0.707,-3.45,6.87,2.87,1784845241347.9412
0.442,-0.547,-0.696,-6.01,5.8,3.51,1784845241348.28
0.447,-0.543,-0.682,-6.01,5.8,3.51,1784845241348.623
0.45,-0.56,-0.68,-6.32,5.22,4.91,1784845241348.968
0.449,-0.573,-0.681,-7.84,4.52,6.23,1784845241349.651
0.454,-0.584,-0.684,-9.67,3.81,7.57,1784845241349.992
0.459,-0.601,-0.68,-9.98,4.21,7.63,1784845241350.3418
0.459,-0.602,-0.664,-6.65,5.16,6.68,1784845241350.6902
0.456,-0.599,-0.655,0.03,6.47,5.95,1784845241351.036
0.452,-0.594,-0.652,6.47,7.63,4.97,1784845241351.3843
0.449,-0.578,-0.659,10.96,8.27,3.88,1784845241351.6958
0.444,-0.555,-0.664,13.15,8.79,3.6,1784845241352.0068
0.439,-0.531,-0.677,12.88,8.67,4.27,1784845241352.311
0.438,-0.518,-0.687,9.58,7.75,5.07,1784845241352.622
0.438,-0.513,-0.691,2.41,5.68,5.68,1784845241352.9321
0.447,-0.528,-0.689,-6.68,2.75,6.35,1784845241353.313
0.454,-0.562,-0.677,-13.98,0.24,7.02,1784845241353.6301
0.453,-0.593,-0.664,-16.3,-0.79,6.87,1784845241353.945
0.453,-0.611,-0.662,-12.73,-0.67,6.01,1784845241354.2568
0.449,-0.613,-0.655,-6.35,0.31,5.04,1784845241354.558
0.438,-0.601,-0.649,-0.21,1.13,4.49,1784845241354.8801
0.442,-0.603,-0.654,4.46,1.4,4.46,1784845241355.188
0.451,-0.61,-0.66,7.6,1.31,4.15,1784845241355.49
0.459,-0.611,-0.67,9.8,1.28,3.63,1784845241355.798
0.461,-0.605,-0.686,10.68,1.19,3.14,1784845241356.1118
0.455,-0.583,-0.691,9.83,1.01,2.14,1784845241356.4219
0.45,-0.557,-0.698,7.81,0.18,1.4,1784845241356.771
0.454,-0.544,-0.7,4.36,-0.73,1.4,1784845241357.0837
0.464,-0.547,-0.703,0.52,-1.46,1.53,1784845241357.394
0.464,-0.56,-0.702,-3.97,-1.98,0.85,1784845241357.6938
0.457,-0.578,-0.688,-8.12,-2.32,-0.06,1784845241357.999
0.455,-0.592,-0.671,-9.98,-2.78,-0.18,1784845241358.308
0.459,-0.597,-0.657,-9.86,-2.69,0.15,1784845241358.618
0.456,-0.598,-0.645,-7.97,-2.32,-0.06,1784845241358.9172
0.453,-0.597,-0.641,-4.55,-1.98,-0.85,1784845241359.2231
0.461,-0.587,-0.651,-0.49,-1.68,-1.92,1784845241359.534
0.467,-0.583,-0.669,3.97,-1.16,-2.56,1784845241359.8562
0.463,-0.576,-0.678,6.41,-0.27,-2.75,1784845241360.173
0.462,-0.568,-0.68,7.05,0.27,-2.23,1784845241360.477
0.468,-0.566,-0.675,6.44,0.12,-1.5,1784845241360.78
0.473,-0.571,-0.666,4.55,-0.18,-1.07,1784845241361.082
0.473,-0.576,-0.659,2.78,-0.34,-1.04,1784845241361.391
0.473,-0.579,-0.647,3.11,-0.12,-1.04,1784845241361.6938
0.472,-0.595,-0.641,6.9,0.4,-1.13,1784845241361.9958
0.467,-0.591,-0.643,11.02,1.07,-1.34,1784845241362.3071
0.465,-0.573,-0.647,14.1,2.11,-0.27,1784845241362.619
0.478,-0.568,-0.647,15.17,2.59,1.34,1784845241362.932
0.484,-0.582,-0.648,13.58,1.83,1.62,1784845241363.247
0.475,-0.6,-0.647,11.23,1.25,0.89,1784845241363.568
0.467,-0.611,-0.636,9.74,1.01,0.55,1784845241363.88
0.467,-0.606,-0.63,9.92,0.7,0.0,1784845241364.1868
0.469,-0.595,-0.638,12.39,0.98,-0.73,1784845241364.5042
0.468,-0.58,-0.653,14.22,0.98,-1.4,1784845241364.8123
0.463,-0.572,-0.668,13.0,-0.24,-2.04,1784845241365.126
0.454,-0.572,-0.675,8.12,-1.8,-2.23,1784845241365.424
0.453,-0.578,-0.662,3.33,-3.14,-1.53,1784845241365.7769
0.454,-0.589,-0.648,1.19,-4.06,-0.85,1784845241366.1812
0.451,-0.591,-0.641,1.04,-4.7,-0.76,1784845241366.4849
0.447,-0.592,-0.64,2.41,-4.88,-0.55,1784845241366.792
0.444,-0.586,-0.652,4.21,-4.46,-0.52,1784845241367.0989
0.441,-0.562,-0.669,5.77,-3.81,-0.24,1784845241367.408
0.437,-0.545,-0.673,7.05,-3.02,0.64,1784845241367.709
0.43,-0.543,-0.679,7.35,-2.66,0.95,1784845241368.0151
0.426,-0.546,-0.678,5.92,-2.5,1.4,1784845241368.319
0.424,-0.551,-0.669,4.49,-2.5,2.14,1784845241368.619
0.43,-0.557,-0.667,4.27,-2.66,2.59,1784845241368.926
0.435,-0.557,-0.675,5.01,-2.66,2.9,1784845241369.236
0.433,-0.545,-0.685,5.98,-1.71,4.03,1784845241369.539
0.434,-0.546,-0.685,7.66,-0.52,6.07,1784845241369.843
0.436,-0.554,-0.68,8.73,0.46,7.87,1784845241370.1582
0.438,-0.561,-0.674,9.09,1.13,9.03,1784845241370.476
0.437,-0.568,-0.666,8.97,1.89,10.07,1784845241370.777
0.44,-0.573,-0.656,8.7,2.29,10.93,1784845241371.088
0.442,-0.574,-0.653,9.58,2.69,11.6,1784845241371.404
0.444,-0.578,-0.652,11.32,3.33,11.9,1784845241371.716
0.44,-0.578,-0.647,13.52,4.0,11.66,1784845241372.0242
0.435,-0.585,-0.634,15.96,4.67,11.63,1784845241372.3408
0.426,-0.589,-0.619,17.7,4.91,11.87,1784845241372.65
0.42,-0.592,-0.6,19.84,5.43,12.48,1784845241372.962
0.413,-0.597,-0.575,22.74,6.2,13.21,1784845241373.2668
0.413,-0.602,-0.558,26.15,6.74,13.7,1784845241373.581
0.414,-0.604,-0.55,29.79,6.9,13.64,1784845241373.893
0.407,-0.599,-0.537,33.42,6.96,13.52,1784845241374.1992
0.413,-0.599,-0.541,36.59,5.98,14.22,1784845241374.509
0.415,-0.607,-0.554,37.29,4.67,14.86,1784845241374.82
0.396,-0.62,-0.543,34.55,3.45,14.68,1784845241375.124
0.376,-0.628,-0.517,30.27,1.34,14.53,1784845241375.43
0.37,-0.642,-0.489,27.71,-0.95,14.8,1784845241375.738
0.372,-0.656,-0.463,27.59,-2.75,14.71,1784845241376.0461
-0.818,-0.629,-0.099,20.69,19.32,9.37,1784845241376.731
-0.842,-0.628,-0.102,24.05,20.39,9.28,1784845241377.037
-0.861,-0.625,-0.103,26.25,21.3,9.4,1784845241377.343
-0.884,-0.625,-0.101,27.13,21.91,9.95,1784845241377.6482
-0.898,-0.632,-0.106,26.73,22.34,11.05,1784845241378.9229
-0.895,-0.638,-0.12,24.6,22.98,12.02,1784845241389.558
-0.872,-0.64,-0.131,22.1,23.74,12.57,1784845241402.84
-0.842,-0.64,-0.144,21.3,24.54,12.54,1784845241408.4932
-0.823,-0.626,-0.146,23.16,25.45,11.81,1784845241419.279
-0.828,-0.607,-0.147,27.95,26.55,11.66,1784845241432.54
-0.831,-0.574,-0.163,33.6,27.25,11.81,1784845241438.216
-0.829,-0.527,-0.183,39.12,28.02,11.9,1784845241448.954
-0.825,-0.489,-0.206,43.24,28.38,12.27,1784845241462.311
-0.834,-0.482,-0.239,44.37,28.2,11.11,1784845241467.984
-0.835,-0.49,-0.292,42.21,28.81,7.45,1784845241478.631
-0.82,-0.492,-0.334,37.9,31.71,2.96,1784845241489.177
-0.814,-0.482,-0.369,33.54,35.49,-0.7,1784845241502.477
-0.814,-0.482,-0.369,30.61,40.8,-1.8,1784845241508.226
-0.803,-0.453,-0.4,31.01,47.73,-1.07,1784845241518.809
-0.803,-0.423,-0.422,34.27,55.64,0.18,1784845241529.326
-0.807,-0.395,-0.427,38.82,63.39,1.37,1784845241542.6729
-0.811,-0.381,-0.435,38.82,63.39,1.37,1784845241548.348
-0.835,-0.39,-0.447,43.21,70.93,2.9,1784845241558.82
-0.863,-0.417,-0.479,46.97,79.1,5.22,1784845241569.283
-0.911,-0.455,-0.522,50.63,88.5,7.78,1784845241582.592
-0.942,-0.487,-0.543,53.87,98.73,10.59,1784845241588.976
-0.941,-0.52,-0.555,57.8,109.26,12.09,1784845241599.1292
-0.951,-0.547,-0.56,63.69,120.06,12.48,1784845241617.8718
-0.95,-0.571,-0.546,72.82,130.44,13.03,1784845241618.4421
-0.946,-0.6,-0.551,87.28,139.53,13.18,1784845241628.9512
-0.94,-0.634,-0.625,103.92,148.26,12.7,1784845241642.3792
-0.946,-0.672,-0.76,114.99,158.82,10.32,1784845241648.0752
-0.985,-0.679,-0.857,117.28,169.32,6.13,1784845241659.1843
-0.979,-0.683,-0.972,112.28,178.44,1.13,1784845241672.447
-0.991,-0.727,-0.997,107.15,190.86,-7.05,1784845241678.06
-0.999,-0.813,-0.887,114.23,202.83,-16.94,1784845241689.1511
-0.973,-0.871,-0.842,131.14,211.74,-27.04,1784845241702.4219
-0.953,-0.889,-0.87,150.61,221.05,-33.08,1784845241708.269
-0.916,-0.92,-0.943,167.0,228.77,-36.29,1784845241719.489
-0.894,-0.941,-1.015,174.54,233.01,-43.95,1784845241732.907
-0.877,-0.967,-1.094,171.42,234.66,-55.39,1784845241738.511
-0.883,-1.009,-1.143,157.84,236.34,-69.03,1784845241749.763
-0.916,-1.061,-1.081,139.96,237.43,-82.49,1784845241762.894
-0.909,-1.121,-0.994,124.09,237.28,-94.79,1784845241768.7039
-0.905,-1.185,-0.908,113.68,239.48,-106.51,1784845241782.4421
-0.882,-1.23,-0.798,107.49,243.42,-112.49,1784845241788.3892
-0.825,-1.257,-0.758,105.78,248.79,-115.33,1784845241799.562
-0.829,-1.273,-0.702,109.26,255.78,-121.25,1784845241814.291
-0.805,-1.258,-0.599,113.59,261.02,-123.6,1784845241821.8381
-0.767,-1.198,-0.531,118.32,264.38,-126.16,1784845241832.4448
-0.761,-1.119,-0.449,120.76,265.63,-129.86,1784845241838.428
-0.747,-1.05,-0.387,116.28,261.91,-134.07,1784845241849.7542
-0.732,-1.026,-0.356,106.3,255.1,-139.65,1784845241862.926
-0.717,-1.015,-0.293,91.65,246.31,-143.25,1784845241868.786
-0.685,-1.013,-0.258,76.97,236.4,-144.29,1784845241882.403
-0.66,-1.002,-0.217,63.11,226.97,-143.89,1784845241888.803
-0.639,-0.978,-0.195,50.26,218.18,-141.45,1784845241899.436
-0.617,-0.946,-0.183,38.94,209.97,-137.52,1784845241912.548
-0.6,-0.902,-0.146,26.95,201.61,-132.45,1784845241918.481
-0.566,-0.879,-0.13,15.41,192.3,-126.77,1784845241929.728
-0.545,-0.858,-0.086,2.75,182.26,-121.34,1784845241943.1719
-0.528,-0.834,-0.027,-12.76,172.03,-115.02,1784845241949.002
-0.477,-0.866,-0.048,-27.92,161.02,-111.0,1784845241959.815
-0.43,-0.891,-0.054,-43.09,152.41,-110.08,1784845241973.5999
-0.374,-0.87,-0.086,-56.12,147.01,-105.41,1784845241978.7678
-0.333,-0.828,-0.125,-67.02,142.67,-96.44,1784845241992.3992
-0.316,-0.735,-0.137,-85.88,134.04,-86.67,1784845241998.188
-0.25,-0.695,-0.176,-110.02,120.64,-78.92,1784845242009.1418
-0.169,-0.754,-0.185,-132.02,108.8,-75.53,1784845242022.363
-0.105,-0.878,-0.181,-142.12,101.23,-74.47,1784845242028.341
-0.064,-1.004,-0.184,-130.16,99.92,-73.0,1784845242039.344
-0.049,-0.991,-0.146,-105.9,104.43,-67.63,1784845242052.437
-0.024,-0.922,-0.16,-74.43,108.86,-60.76,1784845242058.28
0.002,-0.85,-0.216,-45.56,112.7,-55.54,1784845242069.229
0.02,-0.782,-0.233,-27.25,115.3,-51.94,1784845242082.56
0.022,-0.738,-0.239,-22.03,113.04,-50.78,1784845242088.327
0.013,-0.674,-0.251,-34.09,106.02,-51.0,1784845242099.363
0.03,-0.625,-0.236,-54.02,97.11,-50.05,1784845242112.6453
0.068,-0.627,-0.212,-69.77,89.63,-48.68,1784845242118.285
0.097,-0.659,-0.162,-72.3,84.75,-46.36,1784845242129.148
0.129,-0.689,-0.136,-58.38,81.79,-43.31,1784845242139.716
0.141,-0.692,-0.094,-34.79,80.17,-41.08,1784845242152.9941
0.136,-0.676,-0.092,-9.83,76.3,-39.77,1784845242158.771
0.141,-0.646,-0.105,7.32,72.36,-38.67,1784845242169.2048
0.159,-0.62,-0.08,17.37,68.18,-37.9,1784845242182.5469
0.19,-0.587,-0.074,22.19,63.14,-38.48,1784845242188.305
0.214,-0.528,-0.091,22.61,56.79,-40.19,1784845242198.9539
0.202,-0.445,-0.069,18.74,48.77,-41.44,1784845242210.386
0.279,-0.45,-0.168,14.53,41.26,-37.72,1784845242223.116
0.354,-0.495,-0.191,0.52,31.65,-39.0,1784845242228.712
0.334,-0.522,-0.243,-9.49,21.58,-45.05,1784845242239.266
0.341,-0.551,-0.304,-14.31,16.05,-46.94,1784845242249.795
0.376,-0.579,-0.283,-15.47,12.12,-48.31,1784845242263.152
0.409,-0.608,-0.271,-12.18,7.66,-49.9,1784845242268.9211
0.422,-0.603,-0.259,-7.45,5.49,-49.56,1784845242279.1282
0.413,-0.586,-0.22,-1.71,5.1,-47.3,1784845242289.587
0.404,-0.567,-0.193,1.8,2.72,-44.16,1784845242303.0269
0.421,-0.549,-0.195,2.26,-1.89,-41.23,1784845242308.715
0.465,-0.561,-0.234,1.37,-6.13,-39.37,1784845242318.778
0.495,-0.581,-0.284,-2.41,-9.55,-39.03,1784845242329.206
0.505,-0.612,-0.306,-5.95,-11.35,-38.21,1784845242342.5212
0.496,-0.645,-0.28,-6.87,-12.3,-35.8,1784845242348.144
0.486,-0.681,-0.224,-5.46,-13.31,-32.07,1784845242358.733
0.49,-0.714,-0.167,-0.82,-14.1,-29.11,1784845242369.22
0.503,-0.734,-0.137,6.71,-16.14,-27.59,1784845242382.4692
0.538,-0.715,-0.165,15.93,-19.56,-27.04,1784845242388.185
0.563,-0.675,-0.215,22.8,-21.67,-28.05,1784845242398.7588
0.548,-0.681,-0.255,23.87,-23.29,-29.66,1784845242409.472
0.511,-0.711,-0.273,18.52,-25.94,-30.61,1784845242422.915
0.515,-0.753,-0.254,12.54,-28.2,-30.82,1784845242428.3872
0.543,-0.797,-0.215,10.41,-29.42,-32.17,1784845242439.236
0.576,-0.822,-0.189,12.76,-30.58,-33.72,1784845242452.409
0.593,-0.833,-0.178,17.91,-31.98,-35.25,1784845242458.151
0.584,-0.823,-0.201,22.06,-33.88,-36.84,1784845242468.933
0.585,-0.809,-0.242,23.65,-36.16,-37.39,1784845242479.551
0.583,-0.812,-0.266,21.39,-38.76,-37.81,1784845242492.893
0.57,-0.839,-0.303,16.21,-42.39,-39.25,1784845242498.7222
0.571,-0.859,-0.31,10.19,-44.71,-41.14,1784845242509.4001
0.585,-0.872,-0.289,6.99,-46.45,-42.09,1784845242522.753
0.595,-0.872,-0.276,6.23,-48.55,-43.7,1784845242528.859
0.588,-0.872,-0.261,9.4,-49.81,-46.91,1784845242538.6829
0.574,-0.878,-0.259,13.82,-51.3,-48.59,1784845242549.8628
0.564,-0.859,-0.288,14.19,-53.9,-48.8,1784845242562.837
0.559,-0.85,-0.297,11.78,-56.18,-49.32,1784845242568.3809
0.547,-0.875,-0.34,8.24,-58.87,-50.72,1784845242581.607
0.552,-0.878,-0.369,3.75,-60.12,-54.23,1784845242589.4211
0.571,-0.866,-0.369,1.25,-61.1,-58.44,1784845242602.7908
0.569,-0.849,-0.38,1.34,-63.3,-61.53,1784845242608.4758
0.56,-0.827,-0.385,3.08,-64.88,-64.18,1784845242619.036
0.548,-0.824,-0.393,6.26,-66.01,-67.63,1784845242629.558
0.531,-0.835,-0.397,8.73,-67.42,-68.91,1784845242642.997
0.487,-0.83,-0.376,10.8,-67.51,-71.05,1784845242648.551
0.476,-0.836,-0.43,14.19,-67.75,-71.57,1784845242659.466
0.519,-0.817,-0.455,15.56,-68.0,-70.99,1784845242672.5151
0.554,-0.789,-0.482,16.05,-68.58,-72.33,1784845242678.7788
0.543,-0.748,-0.519,15.53,-68.61,-75.69,1784845242688.8362
0.513,-0.7,-0.52,13.37,-67.9,-80.26,1784845242699.542
0.498,-0.684,-0.516,9.7,-67.78,-83.53,1784845242713.134
0.488,-0.697,-0.491,6.65,-68.06,-84.29,1784845242718.6438
0.464,-0.719,-0.452,7.2,-68.42,-83.56,1784845242728.9941
0.45,-0.731,-0.473,11.29,-68.67,-82.37,1784845242739.615
0.457,-0.727,-0.481,18.71,-66.87,-80.08,1784845242753.109
0.475,-0.717,-0.489,26.86,-65.49,-76.88,1784845242758.944
0.483,-0.701,-0.521,31.65,-65.43,-75.99,1784845242769.313
0.459,-0.685,-0.526,33.42,-65.0,-77.58,1784845242782.562
0.433,-0.683,-0.508,34.0,-64.55,-78.74,1784845242788.482
0.433,-0.683,-0.508,34.39,-65.55,-79.29,1784845242798.93
0.428,-0.671,-0.507,36.59,-66.32,-81.15,1784845242809.5933
0.418,-0.643,-0.494,39.95,-66.01,-83.9,1784845242822.945
0.4,-0.626,-0.475,44.71,-65.98,-86.86,1784845242828.744
0.386,-0.635,-0.449,44.71,-65.98,-86.86,1784845242839.264
0.374,-0.641,-0.427,52.03,-66.84,-88.53,1784845242852.8872
0.388,-0.628,-0.474,59.91,-69.19,-88.44,1784845242858.8918
0.401,-0.593,-0.584,63.72,-72.33,-88.63,1784845242869.228
0.395,-0.541,-0.651,59.18,-75.01,-89.36,1784845242879.6108
0.392,-0.502,-0.697,47.79,-78.37,-89.48,1784845242893.091
0.385,-0.476,-0.706,35.0,-81.15,-90.12,1784845242899.01
0.386,-0.464,-0.68,26.25,-82.55,-91.31,1784845242909.479
0.4,-0.47,-0.642,22.95,-82.31,-92.04,1784845242922.7588
0.385,-0.476,-0.609,27.28,-80.97,-92.17,1784845242928.725
0.346,-0.439,-0.574,33.88,-80.84,-91.25,1784845242939.0552
0.431,-0.465,-0.793,40.68,-81.48,-85.67,1784845242952.7039
0.444,-0.453,-0.875,28.05,-81.55,-85.76,1784845242958.5012
0.38,-0.428,-0.87,12.3,-83.5,-87.31,1784845242968.938
0.411,-0.443,-0.858,2.66,-82.74,-84.38,1784845242979.267
0.434,-0.446,-0.813,1.65,-80.6,-84.9,1784845242992.799
0.436,-0.428,-0.791,5.95,-77.61,-85.27,1784845242998.375
0.446,-0.427,-0.815,10.93,-74.59,-84.17,1784845243008.957
0.428,-0.443,-0.82,17.27,-70.96,-84.02,1784845243019.608
0.429,-0.453,-0.825,25.18,-67.63,-83.13,1784845243032.9722
0.447,-0.441,-0.845,32.44,-63.57,-82.52,1784845243038.929
0.433,-0.422,-0.854,40.47,-59.39,-81.12,1784845243049.396
0.406,-0.403,-0.877,44.16,-57.5,-78.28,1784845243062.5762
0.427,-0.384,-0.912,39.98,-57.1,-75.72,1784845243068.455
0.444,-0.381,-0.922,34.06,-55.7,-73.98,1784845243079.32
0.434,-0.384,-0.879,30.85,-53.1,-72.24,1784845243089.542
0.447,-0.386,-0.849,30.12,-51.27,-70.25,1784845243102.921
0.429,-0.397,-0.81,32.29,-49.35,-69.4,1784845243108.6562
0.411,-0.413,-0.778,34.52,-48.62,-66.9,1784845243119.2908
0.437,-0.422,-0.806,34.36,-49.35,-64.15,1784845243132.69
0.419,-0.423,-0.824,34.73,-49.04,-64.85,1784845243138.334
0.404,-0.415,-0.807,35.62,-48.22,-66.13,1784845243148.947
0.424,-0.403,-0.812,35.31,-48.34,-67.17,1784845243159.752
0.405,-0.393,-0.801,34.82,-48.22,-68.79,1784845243172.956
0.383,-0.388,-0.768,34.24,-47.91,-69.03,1784845243178.825
0.406,-0.38,-0.775,33.6,-48.46,-68.42,1784845243189.3188
0.381,-0.367,-0.772,33.51,-48.8,-68.91,1784845243202.6812
0.351,-0.348,-0.766,30.98,-49.9,-68.18,1784845243208.4229
0.396,-0.33,-0.799,25.21,-52.52,-66.01,1784845243219.2021
0.411,-0.326,-0.833,20.66,-54.35,-65.4,1784845243229.764
0.382,-0.32,-0.845,16.69,-55.21,-65.83,1784845243243.02
0.392,-0.325,-0.854,11.38,-56.34,-65.95,1784845243248.821
0.396,-0.348,-0.849,7.54,-56.58,-66.38,1784845243259.406
0.386,-0.37,-0.821,7.97,-55.18,-65.22,1784845243272.64
0.405,-0.365,-0.809,11.99,-53.47,-64.61,1784845243278.548
0.433,-0.346,-0.829,18.74,-51.33,-64.3,1784845243288.9421
0.402,-0.328,-0.854,26.06,-48.65,-63.78,1784845243299.7297
0.392,-0.297,-0.915,28.17,-46.94,-62.2,1784845243313.191
0.4,-0.28,-0.939,25.85,-45.81,-60.55,1784845243318.678
0.384,-0.256,-0.953,20.87,-45.96,-60.15,1784845243329.433
0.348,-0.245,-0.918,16.11,-45.96,-60.21,1784845243342.6182
0.352,-0.276,-0.859,14.62,-46.14,-58.63,1784845243348.3489
0.365,-0.282,-0.812,16.24,-46.42,-58.84,1784845243359.07
0.38,-0.265,-0.825,21.12,-46.39,-60.24,1784845243369.7012
0.384,-0.238,-0.896,26.06,-45.01,-60.76,1784845243383.1309
0.35,-0.201,-0.932,27.95,-42.63,-60.15,1784845243388.729
0.327,-0.167,-0.941,26.64,-41.81,-58.44,1784845243399.424
0.334,-0.144,-0.939,23.38,-42.39,-56.92,1784845243412.585
0.357,-0.125,-0.939,19.75,-43.15,-55.54,1784845243418.325
0.369,-0.124,-0.968,15.9,-43.46,-53.74,1784845243428.979
0.358,-0.136,-0.979,11.17,-42.66,-51.48,1784845243439.573
0.369,-0.161,-0.998,7.72,-41.99,-48.55,1784845243452.9521
0.384,-0.194,-1.009,6.16,-40.16,-45.23,1784845243458.603
0.378,-0.231,-0.978,7.42,-36.65,-41.54,1784845243469.124
0.38,-0.266,-0.931,13.92,-32.5,-37.29,1784845243482.4377
0.386,-0.29,-0.893,25.36,-28.11,-33.02,1784845243488.1711
0.362,-0.305,-0.862,39.22,-23.26,-29.6,1784845243498.72
0.358,-0.304,-0.89,51.06,-19.87,-25.12,1784845243509.4841
0.384,-0.294,-0.925,56.28,-17.94,-20.02,1784845243522.771
0.441,-0.301,-0.986,55.88,-17.67,-16.51,1784845243528.595
0.445,-0.295,-1.05,50.87,-17.09,-16.39,1784845243539.082
0.406,-0.289,-1.034,42.45,-16.3,-17.15,1784845243552.485
0.397,-0.309,-0.984,34.12,-17.12,-19.38,1784845243558.1372
0.401,-0.33,-0.935,29.45,-18.19,-23.47,1784845243568.906
0.378,-0.34,-0.878,29.11,-17.98,-27.56,1784845243579.5588
0.362,-0.352,-0.855,31.28,-17.06,-29.73,1784845243592.8362
0.355,-0.356,-0.848,33.51,-15.87,-31.31,1784845243598.5488
0.365,-0.354,-0.857,35.86,-15.81,-32.75,1784845243609.262
0.394,-0.32,-0.926,38.03,-15.08,-35.86,1784845243622.439
0.36,-0.266,-0.961,37.08,-14.89,-38.06,1784845243628.397
0.355,-0.239,-0.987,30.76,-18.77,-35.92,1784845243638.872
0.366,-0.209,-1.007,21.7,-22.1,-35.1,1784845243649.573
0.342,-0.167,-0.994,12.15,-22.83,-35.37,1784845243662.834
0.337,-0.148,-0.977,3.02,-24.23,-32.53,1784845243668.6091
0.354,-0.142,-0.949,-5.92,-25.42,-28.87,1784845243679.064
0.378,-0.155,-0.938,-11.63,-24.63,-25.91,1784845243692.364
0.393,-0.172,-0.97,-14.22,-22.25,-23.74,1784845243698.109
0.386,-0.181,-0.994,-14.65,-19.68,-21.45,1784845243708.774
0.378,-0.19,-1.002,-13.64,-17.24,-19.1,1784845243719.462
0.386,-0.204,-0.985,-11.02,-15.2,-16.66,1784845243732.7922
0.394,-0.213,-0.958,-5.8,-12.85,-14.86,1784845243738.451
0.384,-0.194,-0.937,1.01,-9.74,-13.43,1784845243748.866
0.375,-0.17,-0.934,6.74,-6.71,-10.99,1784845243759.381
0.381,-0.159,-0.955,8.85,-5.19,-8.82,1784845243772.5762
0.38,-0.162,-0.979,7.63,-3.91,-7.29,1784845243778.197
0.379,-0.163,-0.989,4.39,-2.96,-5.71,1784845243788.2502
0.383,-0.173,-0.98,0.49,-2.75,-4.21,1784845243798.556
0.381,-0.197,-0.962,-2.59,-2.62,-2.81,1784845243809.129
0.381,-0.22,-0.939,-4.58,-1.92,-1.4,1784845243819.4548
0.383,-0.239,-0.915,-4.94,-0.76,-0.4,1784845243832.743
0.384,-0.252,-0.891,-3.6,0.18,0.79,1784845243838.219
0.39,-0.27,-0.888,-1.1,0.73,2.75,1784845243848.254
0.392,-0.283,-0.892,1.13,1.77,5.16,1784845243858.725
0.396,-0.289,-0.89,3.36,2.93,7.63,1784845243869.131
0.401,-0.295,-0.893,6.29,4.03,9.98,1784845243879.693
0.403,-0.3,-0.891,7.84,5.13,11.84,1784845243892.907
0.407,-0.315,-0.879,7.66,5.98,12.73,1784845243898.528
0.41,-0.337,-0.864,7.2,6.81,12.79,1784845243908.704
0.41,-0.353,-0.842,7.66,7.87,12.39,1784845243919.2222
0.411,-0.365,-0.83,9.77,8.88,11.99,1784845243929.6118
0.418,-0.369,-0.837,12.36,9.55,11.6,1784845243942.988
0.43,-0.365,-0.862,13.25,9.55,10.93,1784845243948.607
0.425,-0.36,-0.883,11.35,9.31,10.71,1784845243964.3098
0.419,-0.367,-0.877,7.97,9.16,11.05,1784845243970.123
0.422,-0.375,-0.855,4.18,8.36,11.05,1784845243983.166
0.422,-0.383,-0.828,1.8,7.78,10.35,1784845243988.514
0.419,-0.394,-0.807,1.92,7.69,9.52,1784845243998.7468
0.421,-0.399,-0.814,3.36,7.6,8.27,1784845244009.2239
0.428,-0.387,-0.832,4.67,7.6,6.93,1784845244019.4968
0.434,-0.375,-0.841,5.07,7.87,5.86,1784845244032.767
0.434,-0.368,-0.842,3.63,7.9,4.88,1784845244038.2158
0.432,-0.359,-0.833,1.43,7.6,4.61,1784845244048.362
0.433,-0.356,-0.819,0.18,7.6,4.61,1784845244058.825
0.435,-0.364,-0.806,0.67,7.6,4.3,1784845244069.1143
0.433,-0.366,-0.799,2.32,7.63,3.75,1784845244079.6108
0.433,-0.366,-0.799,4.85,7.72,3.45,1784845244092.7988
0.432,-0.361,-0.787,8.12,7.69,3.2,1784845244098.462
0.442,-0.354,-0.789,10.53,7.93,3.02,1784845244108.5562
0.439,-0.338,-0.794,10.8,8.12,4.0,1784845244119.0889
0.436,-0.326,-0.801,10.8,8.12,4.0,1784845244129.51
0.431,-0.331,-0.807,9.4,7.78,5.34,1784845244142.781
0.432,-0.341,-0.799,7.54,7.14,6.23,1784845244148.291
0.436,-0.348,-0.793,6.78,6.78,7.08,1784845244158.36
0.441,-0.351,-0.782,7.54,6.93,7.78,1784845244168.874
0.44,-0.354,-0.775,9.7,6.93,7.48,1784845244179.1538
0.438,-0.351,-0.773,11.63,6.56,6.5,1784845244189.6692
0.435,-0.349,-0.772,12.39,5.92,6.2,1784845244202.957
0.435,-0.351,-0.773,11.2,5.19,6.5,1784845244208.4968
0.431,-0.364,-0.772,9.22,4.39,6.81,1784845244218.6072
0.429,-0.379,-0.769,8.45,3.75,6.47,1784845244228.967
0.429,-0.394,-0.765,9.92,3.6,5.8,1784845244239.326
0.427,-0.396,-0.754,12.6,3.63,4.64,1784845244252.6873
0.428,-0.392,-0.762,15.9,3.02,2.93,1784845244258.245
0.421,-0.384,-0.76,18.1,2.53,1.13,1784845244268.568
0.415,-0.37,-0.761,18.46,1.71,-0.73,1784845244279.0278
0.408,-0.359,-0.772,18.4,0.82,-1.34,1784845244296.557
0.404,-0.35,-0.776,16.82,0.34,-0.37,1784845244302.803
0.403,-0.352,-0.77,13.37,-0.4,0.92,1784845244308.346
