ax,ay,az,gx,gy,gz,timestamp_ms
-0.866,-0.382,-0.31,22.55,2.96,-4.82,1785093736237.501
-0.863,-0.379,-0.31,21.64,3.39,-6.07,1785093736237.7542
-0.863,-0.376,-0.31,19.99,3.81,-7.02,1785093736238.027
-0.865,-0.369,-0.313,17.58,4.03,-7.6,1785093736238.2861
-0.866,-0.359,-0.313,14.31,4.33,-8.3,1785093736238.531
-0.869,-0.351,-0.311,10.99,4.82,-9.0,1785093736238.7788
-0.872,-0.349,-0.303,7.78,5.43,-9.92,1785093736239.028
-0.873,-0.35,-0.296,5.31,6.1,-11.05,1785093736239.267
-0.874,-0.361,-0.29,3.27,6.81,-12.27,1785093736239.516
-0.875,-0.37,-0.285,2.08,7.26,-13.73,1785093736239.766
-0.881,-0.374,-0.282,1.5,7.72,-14.98,1785093736240.0159
-0.882,-0.372,-0.285,0.85,8.09,-15.56,1785093736240.255
-0.884,-0.367,-0.283,0.31,8.55,-16.3,1785093736240.51
-0.887,-0.362,-0.282,0.0,8.51,-17.12,1785093736240.778
-0.894,-0.357,-0.283,-0.43,8.55,-18.07,1785093736241.006
-0.898,-0.355,-0.283,-1.4,8.45,-19.04,1785093736241.234
-0.903,-0.35,-0.28,-2.56,8.51,-19.56,1785093736241.468
-0.901,-0.344,-0.273,-3.57,8.61,-20.26,1785093736241.7012
-0.894,-0.345,-0.265,-4.76,8.7,-20.66,1785093736241.927
-0.892,-0.347,-0.256,-5.95,8.7,-21.12,1785093736242.186
-0.897,-0.347,-0.253,-7.17,8.51,-21.64,1785093736242.4177
-0.898,-0.35,-0.25,-8.21,8.51,-21.91,1785093736242.64
-0.898,-0.352,-0.248,-8.88,8.39,-22.43,1785093736242.87
-0.895,-0.352,-0.246,-8.82,8.18,-22.86,1785093736243.092
-0.892,-0.348,-0.243,-8.39,7.84,-23.01,1785093736243.3071
-0.888,-0.344,-0.241,-7.78,7.66,-23.44,1785093736243.5269
-0.884,-0.339,-0.24,-7.26,7.54,-24.14,1785093736243.747
-0.889,-0.337,-0.235,-7.08,7.26,-24.57,1785093736243.9648
-0.887,-0.344,-0.229,-7.39,6.56,-24.38,1785093736244.215
-0.886,-0.348,-0.227,-7.23,6.23,-24.75,1785093736244.438
-0.888,-0.354,-0.23,-6.56,6.04,-24.84,1785093736244.6777
-0.888,-0.355,-0.231,-6.26,5.65,-24.78,1785093736244.8918
-0.884,-0.357,-0.236,-6.41,5.34,-24.75,1785093736245.129
-0.886,-0.361,-0.235,-6.5,5.25,-24.69,1785093736245.3762
-0.888,-0.362,-0.234,-6.53,4.91,-24.2,1785093736245.61
-0.886,-0.363,-0.23,-6.35,4.64,-23.68,1785093736245.853
-0.884,-0.365,-0.226,-6.1,4.21,-23.26,1785093736246.082
-0.879,-0.368,-0.223,-5.34,3.57,-22.95,1785093736246.304
-0.877,-0.37,-0.221,-3.97,3.48,-23.16,1785093736246.5068
-0.879,-0.373,-0.222,-2.23,3.02,-23.38,1785093736246.7231
-0.88,-0.375,-0.223,-0.82,2.11,-23.41,1785093736246.9338
-0.877,-0.384,-0.226,0.7,1.31,-23.29,1785093736247.146
-0.877,-0.397,-0.229,2.41,0.73,-23.22,1785093736247.35
-0.87,-0.404,-0.223,4.33,1.19,-23.77,1785093736247.56
-0.877,-0.403,-0.228,5.74,1.04,-24.48,1785093736247.777
-0.873,-0.407,-0.225,6.1,0.7,-24.75,1785093736247.979
-0.876,-0.411,-0.219,6.87,0.79,-25.67,1785093736248.188
-0.879,-0.42,-0.218,8.15,0.06,-26.06,1785093736248.396
-0.874,-0.427,-0.216,9.89,-0.79,-26.67,1785093736248.6348
-0.867,-0.432,-0.215,12.63,-1.37,-27.59,1785093736248.898
-0.865,-0.438,-0.217,16.24,-1.98,-28.29,1785093736249.161
-0.86,-0.442,-0.222,19.44,-2.72,-28.6,1785093736249.391
-0.851,-0.441,-0.229,21.82,-3.11,-28.72,1785093736249.649
-0.843,-0.438,-0.235,22.58,-2.87,-29.42,1785093736249.886
-0.857,-0.434,-0.241,21.0,-4.0,-29.76,1785093736250.122
-0.842,-0.455,-0.239,18.68,-4.79,-28.29,1785093736250.361
-0.838,-0.457,-0.231,17.27,-4.15,-28.81,1785093736250.6182
-0.84,-0.461,-0.23,16.36,-4.3,-28.99,1785093736250.836
-0.842,-0.472,-0.235,14.95,-5.16,-28.41,1785093736251.063
-0.83,-0.491,-0.24,14.01,-6.04,-27.77,1785093736251.282
-0.814,-0.504,-0.236,14.56,-5.83,-28.41,1785093736251.4958
-0.823,-0.503,-0.24,16.51,-5.4,-29.36,1785093736251.711
-0.823,-0.509,-0.247,17.58,-6.62,-28.32,1785093736251.915
-0.812,-0.516,-0.248,17.94,-7.35,-27.44,1785093736252.146
-0.805,-0.518,-0.252,18.46,-6.84,-27.34,1785093736252.359
-0.804,-0.521,-0.253,18.25,-6.65,-27.22,1785093736252.5618
-0.804,-0.521,-0.253,17.43,-6.74,-27.83,1785093736252.779
-0.799,-0.52,-0.252,15.93,-6.87,-28.63,1785093736252.992
-0.798,-0.542,-0.254,13.98,-6.84,-29.21,1785093736253.203
-0.792,-0.557,-0.246,13.73,-7.02,-29.02,1785093736253.409
-0.781,-0.565,-0.249,13.98,-6.99,-29.15,1785093736253.623
-0.778,-0.56,-0.263,13.98,-6.99,-29.15,1785093736253.836
-0.777,-0.561,-0.275,13.28,-6.81,-29.48,1785093736254.04
-0.782,-0.578,-0.279,11.84,-6.65,-29.94,1785093736254.2488
-0.782,-0.588,-0.276,10.44,-6.53,-31.07,1785093736254.4583
-0.784,-0.607,-0.269,9.64,-6.2,-31.74,1785093736254.656
-0.777,-0.617,-0.272,10.68,-5.71,-31.56,1785093736254.852
-0.77,-0.618,-0.267,11.78,-5.16,-31.13,1785093736255.053
-0.754,-0.645,-0.259,13.43,-5.07,-29.54,1785093736255.2532
-0.742,-0.666,-0.254,16.91,-4.49,-29.21,1785093736255.448
-0.741,-0.684,-0.26,21.52,-4.15,-29.45,1785093736255.653
-0.722,-0.701,-0.263,25.48,-3.63,-29.18,1785093736255.899
-0.713,-0.696,-0.263,29.39,-2.72,-28.96,1785093736256.0981
-0.709,-0.694,-0.269,32.47,-2.17,-28.75,1785093736256.303
-0.705,-0.694,-0.271,33.91,-1.83,-28.5,1785093736256.5068
-0.692,-0.692,-0.27,34.64,-1.62,-30.15,1785093736256.709
-0.691,-0.697,-0.266,34.61,-0.89,-33.05,1785093736256.9038
-0.672,-0.732,-0.263,34.0,-0.4,-30.67,1785093736257.108
-0.669,-0.709,-0.259,33.45,1.04,-32.38,1785093736257.3162
-0.681,-0.692,-0.263,32.75,1.37,-33.63,1785093736257.513
-0.656,-0.722,-0.253,30.76,1.28,-33.51,1785093736257.7322
-0.657,-0.737,-0.237,29.85,2.17,-35.19,1785093736257.935
-0.651,-0.759,-0.223,31.46,3.11,-36.07,1785093736258.126
-0.654,-0.77,-0.218,33.42,3.39,-36.41,1785093736258.329
-0.653,-0.769,-0.212,34.58,3.72,-35.49,1785093736258.5398
-0.646,-0.759,-0.209,34.73,4.27,-34.79,1785093736258.7378
-0.648,-0.746,-0.218,33.78,4.91,-35.13,1785093736258.946
-0.649,-0.748,-0.223,30.12,4.94,-34.73,1785093736259.1482
-0.648,-0.752,-0.218,24.99,4.85,-34.39,1785093736259.3447
-0.639,-0.768,-0.212,21.39,5.28,-33.81,1785093736259.5369
-0.636,-0.786,-0.194,20.26,6.38,-34.33,1785093736259.734
-0.625,-0.804,-0.171,21.21,6.71,-34.67,1785093736259.9292
-0.615,-0.815,-0.151,24.51,7.23,-36.04,1785093736260.126
-0.613,-0.823,-0.142,28.87,7.66,-36.96,1785093736260.312
-0.615,-0.825,-0.153,32.72,7.81,-37.48,1785093736260.504
-0.611,-0.826,-0.16,36.07,7.84,-37.32,1785093736260.727
-0.601,-0.818,-0.158,39.7,8.73,-37.17,1785093736260.942
-0.599,-0.815,-0.156,43.86,9.64,-37.32,1785093736261.138
-0.592,-0.819,-0.135,47.61,10.01,-38.03,1785093736261.342
-0.594,-0.823,-0.112,51.55,10.59,-39.34,1785093736261.547
-0.595,-0.828,-0.087,55.27,10.13,-39.46,1785093736261.739
-0.59,-0.832,-0.072,58.87,9.74,-39.52,1785093736261.929
-0.584,-0.829,-0.076,61.28,9.4,-39.0,1785093736262.1208
-0.567,-0.816,-0.092,61.68,8.97,-37.9,1785093736262.306
-0.551,-0.785,-0.112,59.27,8.58,-36.96,1785093736262.51
-0.535,-0.741,-0.112,53.47,7.78,-35.62,1785093736262.704
-0.525,-0.746,-0.116,47.46,6.78,-34.88,1785093736262.895
-0.529,-0.773,-0.104,40.62,5.86,-36.41,1785093736263.087
-0.531,-0.794,-0.074,35.74,4.97,-36.84,1785093736263.284
-0.53,-0.814,-0.042,34.03,4.55,-35.77,1785093736263.479
-0.524,-0.819,-0.021,34.61,4.06,-34.42,1785093736263.666
-0.505,-0.818,-0.018,36.9,3.6,-32.81,1785093736263.86
-0.492,-0.81,-0.011,39.8,3.6,-31.46,1785093736264.063
-0.482,-0.806,0.002,43.03,3.05,-29.94,1785093736264.246
-0.467,-0.802,-0.003,45.93,2.62,-28.9,1785093736264.438
-0.456,-0.785,-0.008,47.09,2.14,-27.92,1785093736264.631
-0.449,-0.771,-0.017,46.75,2.29,-26.43,1785093736264.8267
-0.447,-0.769,-0.018,45.2,2.72,-25.54,1785093736265.013
-0.439,-0.781,-0.009,43.79,2.84,-25.67,1785093736265.2092
-0.425,-0.789,-0.004,44.22,3.36,-26.25,1785093736265.433
-0.405,-0.793,-0.003,46.78,4.43,-26.89,1785093736265.618
-0.38,-0.791,-0.016,49.93,5.28,-27.41,1785093736265.816
-0.359,-0.761,-0.016,51.15,6.01,-27.65,1785093736266.013
-0.356,-0.729,-0.005,50.39,6.2,-27.74,1785093736266.201
-0.36,-0.72,-0.005,48.37,6.04,-28.41,1785093736266.4058
-0.365,-0.725,-0.01,45.81,6.26,-30.06,1785093736266.5898
-0.362,-0.723,-0.005,44.04,6.93,-31.86,1785093736266.7808
-0.341,-0.709,0.017,43.89,7.54,-33.2,1785093736266.962
-0.325,-0.693,0.049,45.53,7.69,-34.18,1785093736267.1519
-0.32,-0.695,0.071,48.04,7.66,-34.82,1785093736267.341
-0.328,-0.707,0.075,51.52,7.54,-36.13,1785093736267.52
-0.341,-0.707,0.059,55.94,7.87,-37.66,1785093736267.7122
-0.352,-0.687,0.045,60.06,8.27,-38.54,1785093736267.927
-0.354,-0.652,0.038,62.78,8.91,-39.86,1785093736268.116
-0.369,-0.626,0.048,62.23,9.77,-41.32,1785093736268.295
-0.377,-0.647,0.067,59.11,8.85,-39.77,1785093736268.482
-0.357,-0.674,0.086,55.79,7.69,-38.58,1785093736268.67
-0.344,-0.671,0.067,54.48,7.6,-40.62,1785093736268.8489
-0.345,-0.638,0.048,50.11,7.23,-41.02,1785093736269.0618
-0.387,-0.617,0.05,41.57,6.81,-39.34,1785093736269.281
-0.468,-0.649,0.08,32.26,6.93,-36.77,1785093736269.4778
-0.541,-0.71,0.124,25.85,7.42,-35.07,1785093736269.682
-0.577,-0.758,0.159,24.23,8.15,-34.85,1785093736269.887
-0.589,-0.787,0.188,26.73,8.39,-34.64,1785093736270.0757
-0.584,-0.808,0.203,31.8,8.33,-32.44,1785093736270.2742
-0.569,-0.81,0.187,37.17,8.64,-29.36,1785093736270.477
-0.564,-0.807,0.157,38.88,9.13,-25.54,1785093736270.6658
-0.572,-0.813,0.14,35.68,9.55,-24.26,1785093736270.846
-0.597,-0.799,0.147,28.81,9.58,-25.7,1785093736271.057
-0.633,-0.796,0.167,21.67,8.85,-27.31,1785093736271.289
-0.663,-0.781,0.192,12.91,7.66,-28.2,1785093736271.494
-0.698,-0.754,0.211,-1.19,5.89,-27.31,1785093736271.694
-0.728,-0.719,0.211,-24.32,3.08,-24.35,1785093736271.9
-0.706,-0.725,0.194,-53.19,0.27,-21.3,1785093736272.096
-0.642,-0.776,0.201,-78.77,-1.16,-22.16,1785093736272.2712
-0.571,-0.848,0.241,-88.35,-1.95,-26.18,1785093736272.449
-0.507,-0.938,0.256,-73.34,-2.11,-31.37,1785093736272.6309
-0.491,-1.007,0.229,-42.79,-1.74,-37.57,1785093736272.803
-0.539,-0.981,0.175,-15.75,-1.34,-43.7,1785093736272.975
-0.619,-0.882,0.107,-9.83,-1.43,-44.62,1785093736273.15
-0.682,-0.784,0.102,-50.23,-1.5,-31.98,1785093736273.4932
-0.621,-0.85,0.151,-66.87,-2.75,-27.47,1785093736273.6663
-1.206,-0.686,-0.21,39.06,-12.24,20.78,1785093736274.074
-1.248,-0.67,-0.241,53.38,-12.27,18.52,1785093736274.271
-1.287,-0.702,-0.268,64.15,-9.46,16.11,1785093736274.444
-1.255,-0.717,-0.267,72.6,-5.1,14.86,1785093736281.9468
-1.184,-0.684,-0.325,83.38,-1.8,14.01,1785093736295.1948
-1.136,-0.626,-0.392,88.47,-0.55,13.98,1785093736300.81
-1.128,-0.6,-0.413,83.16,-1.68,13.31,1785093736311.392
-1.121,-0.613,-0.405,72.6,-3.6,9.92,1785093736321.85
-1.107,-0.628,-0.391,63.91,-6.13,4.76,1785093736332.318
-1.098,-0.622,-0.385,60.61,-8.09,1.22,1785093736345.574
-1.064,-0.597,-0.363,60.73,-9.92,0.61,1785093736351.161
-1.045,-0.576,-0.354,62.38,-12.7,0.24,1785093736361.614
-1.028,-0.571,-0.364,62.23,-14.92,-0.58,1785093736372.1753
-0.999,-0.563,-0.354,59.36,-16.97,-0.4,1785093736385.45
-0.97,-0.565,-0.348,56.25,-19.5,0.82,1785093736391.062
-0.939,-0.574,-0.325,52.37,-21.76,3.3,1785093736401.653
-0.908,-0.599,-0.283,50.05,-23.93,7.39,1785093736412.2441
-0.88,-0.617,-0.233,51.21,-25.64,12.51,1785093736425.502
-0.857,-0.63,-0.181,55.85,-27.25,18.98,1785093736431.191
-0.817,-0.636,-0.201,63.48,-29.91,25.57,1785093736441.834
-0.742,-0.587,-0.308,70.28,-31.13,32.81,1785093736455.241
-0.667,-0.501,-0.402,72.42,-28.72,42.82,1785093736461.766
-0.617,-0.435,-0.435,66.84,-25.15,54.45,1785093736471.657
-0.598,-0.396,-0.396,53.93,-22.28,65.55,1785093736482.4363
-0.581,-0.381,-0.303,38.27,-21.12,76.08,1785093736495.809
-0.556,-0.412,-0.187,24.69,-21.27,84.63,1785093736501.653
-0.523,-0.489,-0.095,15.29,-21.42,89.6,1785093736512.143
-0.494,-0.565,-0.039,9.7,-21.67,91.68,1785093736525.377
-0.458,-0.605,-0.08,7.81,-22.83,92.32,1785093736531.449
-0.422,-0.606,-0.183,6.53,-22.46,92.41,1785093736541.595
-0.404,-0.591,-0.26,4.46,-20.84,91.16,1785093736552.167
-0.385,-0.594,-0.326,3.42,-19.07,87.1,1785093736565.414
-0.373,-0.591,-0.366,4.24,-16.33,80.84,1785093736571.309
-0.394,-0.584,-0.351,6.74,-13.18,76.33,1785093736581.606
-0.431,-0.581,-0.296,8.94,-10.77,73.92,1785093736592.437
-0.46,-0.58,-0.231,9.22,-9.22,72.18,1785093736602.635
-0.465,-0.595,-0.191,9.92,-7.97,69.92,1785093736615.885
-0.463,-0.606,-0.168,10.77,-6.65,66.65,1785093736621.498
-0.46,-0.623,-0.182,11.23,-6.38,62.87,1785093736631.9868
-0.476,-0.638,-0.211,11.54,-6.5,59.33,1785093736642.762
-0.506,-0.668,-0.251,13.4,-6.29,56.7,1785093736655.673
-0.544,-0.683,-0.279,16.08,-5.43,54.99,1785093736661.716
-0.584,-0.686,-0.274,18.68,-5.25,55.18,1785093736672.03
-0.619,-0.698,-0.277,20.23,-5.86,56.58,1785093736682.543
-0.652,-0.725,-0.258,21.3,-5.83,58.53,1785093736695.7812
-0.679,-0.771,-0.219,23.96,-6.59,60.49,1785093736701.3892
-0.675,-0.805,-0.236,28.63,-8.27,61.71,1785093736712.0159
-0.674,-0.792,-0.298,32.44,-9.61,64.18,1785093736722.708
-0.682,-0.777,-0.359,32.72,-10.9,67.23,1785093736735.7703
-0.715,-0.777,-0.402,31.04,-9.13,65.46,1785093736741.681
-0.707,-0.829,-0.392,28.38,-9.13,64.09,1785093736752.2402
-0.685,-0.854,-0.349,29.15,-8.06,59.36,1785093736762.6592
-0.684,-0.861,-0.32,34.97,-6.04,55.94,1785093736775.838
-0.698,-0.852,-0.281,39.4,-5.25,55.76,1785093736781.468
-0.73,-0.829,-0.279,40.25,-5.25,55.12,1785093736792.1072
-0.736,-0.822,-0.315,36.04,-4.39,53.07,1785093736802.7861
-0.711,-0.815,-0.347,28.26,-2.04,48.74,1785093736815.85
-0.691,-0.805,-0.346,20.57,1.28,43.4,1785093736821.7979
-0.685,-0.81,-0.301,16.48,4.79,37.69,1785093736832.188
-0.685,-0.829,-0.232,18.62,7.54,31.4,1785093736842.6152
-0.687,-0.829,-0.172,27.07,9.06,25.48,1785093736855.9138
-0.688,-0.8,-0.129,41.02,10.01,19.87,1785093736861.8691
-0.689,-0.763,-0.135,57.19,10.13,14.01,1785093736872.232
-0.698,-0.73,-0.165,71.38,10.01,7.11,1785093736885.571
-0.732,-0.696,-0.188,82.61,10.74,-0.12,1785093736891.421
-0.76,-0.679,-0.223,90.24,12.33,-4.55,1785093736901.718
-0.766,-0.637,-0.252,92.17,14.25,-6.47,1785093736912.38
-0.766,-0.637,-0.252,89.94,16.94,-6.62,1785093736925.557
-0.749,-0.583,-0.25,84.72,19.56,-6.29,1785093736931.484
-0.74,-0.531,-0.227,78.22,21.27,-5.95,1785093736941.695
-0.753,-0.493,-0.194,70.56,21.91,-5.16,1785093736952.0928
-0.784,-0.478,-0.176,61.01,22.06,-3.45,1785093736965.618
-0.815,-0.464,-0.18,61.01,22.06,-3.45,1785093736971.4392
-0.851,-0.46,-0.192,51.12,22.13,-0.31,1785093736981.7102
-0.917,-0.467,-0.205,41.69,22.77,3.08,1785093736992.414
-0.968,-0.485,-0.205,30.88,22.98,7.93,1785093737005.545
-0.975,-0.495,-0.206,18.71,22.46,13.64,1785093737011.595
-0.945,-0.495,-0.229,6.56,20.81,20.02,1785093737021.8188
-0.919,-0.472,-0.263,-5.37,19.17,25.39,1785093737032.322
-0.885,-0.449,-0.29,-16.82,17.49,30.3,1785093737045.503
-0.854,-0.439,-0.312,-26.46,15.63,31.92,1785093737051.327
-0.827,-0.445,-0.312,-32.11,14.07,29.94,1785093737062.186
-0.813,-0.485,-0.293,-29.27,14.22,23.96,1785093737075.228
-0.825,-0.56,-0.297,-17.27,14.44,16.94,1785093737081.5842
-0.841,-0.587,-0.305,-0.85,15.59,9.31,1785093737091.5598
-0.881,-0.574,-0.323,15.75,17.73,4.15,1785093737102.124
-0.871,-0.58,-0.348,27.28,18.28,3.88,1785093737115.4011
-0.852,-0.521,-0.362,33.85,21.85,-2.66,1785093737121.279
-0.868,-0.471,-0.394,37.11,25.42,-7.05,1785093737131.603
-0.841,-0.48,-0.422,34.97,25.79,-6.68,1785093737142.139
-0.815,-0.453,-0.434,32.84,29.66,-12.27,1785093737155.3862
-0.839,-0.446,-0.451,33.63,34.42,-16.72,1785093737161.9119
-0.852,-0.501,-0.448,33.42,35.62,-13.43,1785093737171.847
-0.875,-0.496,-0.452,31.16,38.06,-14.28,1785093737182.57
-0.845,-0.507,-0.482,27.56,40.59,-11.17,1785093737195.872
-0.797,-0.514,-0.496,21.85,44.28,-8.76,1785093737201.629
-0.789,-0.51,-0.517,15.78,48.62,-8.88,1785093737211.9832
-0.816,-0.54,-0.53,9.98,51.97,-6.07,1785093737222.552
-0.824,-0.607,-0.516,5.86,53.56,-2.23,1785093737235.6301
-0.836,-0.637,-0.489,7.08,56.73,-3.51,1785093737241.7668
-0.843,-0.668,-0.503,12.91,59.39,-4.3,1785093737251.779
-0.861,-0.681,-0.507,19.59,63.33,-6.53,1785093737262.3958
-0.877,-0.692,-0.493,28.78,69.52,-10.41,1785093737275.4612
-0.887,-0.71,-0.464,38.7,73.55,-14.4,1785093737281.596
-0.876,-0.718,-0.447,48.04,75.9,-18.98,1785093737291.91
-0.842,-0.723,-0.471,57.22,78.92,-23.41,1785093737302.708
-0.81,-0.728,-0.513,65.8,81.91,-27.25,1785093737315.9722
-0.815,-0.731,-0.541,73.95,84.81,-31.28,1785093737322.093
-0.848,-0.735,-0.547,80.54,87.07,-34.52,1785093737332.443
-0.868,-0.741,-0.537,84.9,88.66,-38.24,1785093737345.7
-0.875,-0.731,-0.532,86.28,89.88,-42.02,1785093737351.641
-0.885,-0.722,-0.521,84.35,91.04,-43.92,1785093737362.134
-0.903,-0.732,-0.502,80.39,91.86,-45.78,1785093737375.285
-0.921,-0.746,-0.478,76.78,92.47,-48.62,1785093737381.2852
-0.916,-0.771,-0.466,74.98,92.07,-50.9,1785093737391.5432
-0.895,-0.778,-0.486,73.82,91.95,-53.93,1785093737402.312
-0.88,-0.777,-0.524,71.57,92.38,-56.67,1785093737415.753
-0.866,-0.787,-0.555,65.89,92.56,-58.78,1785093737421.603
-0.879,-0.801,-0.543,56.43,93.02,-61.22,1785093737431.9648
-0.924,-0.835,-0.481,45.38,93.14,-63.08,1785093737445.5117
-0.939,-0.896,-0.423,36.59,91.92,-64.94,1785093737451.383
-0.906,-0.948,-0.386,33.2,90.91,-68.15,1785093737461.906
-0.861,-0.97,-0.383,36.65,91.13,-72.05,1785093737472.555
-0.834,-0.969,-0.399,44.43,92.35,-76.11,1785093737485.7441
-0.829,-0.956,-0.417,53.53,92.93,-80.97,1785093737491.773
-0.836,-0.928,-0.422,61.53,92.1,-85.51,1785093737502.209
-0.827,-0.909,-0.419,67.78,90.09,-88.9,1785093737515.479
-0.806,-0.903,-0.421,71.72,88.17,-92.78,1785093737521.358
-0.794,-0.919,-0.394,72.48,86.7,-96.19,1785093737531.905
-0.784,-0.944,-0.356,70.53,84.26,-98.54,1785093737542.5579
-0.765,-0.953,-0.304,68.06,82.19,-100.41,1785093737555.853
-0.736,-0.939,-0.252,68.67,80.57,-101.5,1785093737561.8691
-0.699,-0.919,-0.203,73.24,78.86,-101.87,1785093737572.374
-0.679,-0.9,-0.152,82.34,77.12,-103.06,1785093737585.8188
-0.652,-0.884,-0.123,95.13,74.59,-105.23,1785093737591.358
-0.633,-0.878,-0.121,107.18,70.62,-107.61,1785093737602.7952
-0.62,-0.877,-0.137,114.66,65.28,-109.26,1785093737615.9028
-0.593,-0.864,-0.191,115.21,59.72,-109.84,1785093737621.872
-0.559,-0.837,-0.261,106.66,54.93,-108.62,1785093737635.233
-0.537,-0.817,-0.289,89.97,50.54,-106.45,1785093737641.6067
-0.521,-0.793,-0.296,67.48,46.14,-105.35,1785093737652.058
-0.495,-0.769,-0.288,43.34,41.93,-104.31,1785093737665.364
-0.458,-0.758,-0.273,22.55,38.51,-103.49,1785093737670.9
-0.436,-0.747,-0.257,7.54,35.98,-102.82,1785093737681.9102
-0.424,-0.745,-0.263,-2.66,33.88,-102.36,1785093737692.52
-0.41,-0.764,-0.275,-10.47,32.59,-102.79,1785093737705.649
-0.372,-0.804,-0.319,-19.59,31.5,-104.28,1785093737711.6008
-0.327,-0.857,-0.342,-30.24,31.53,-106.2,1785093737722.782
-0.293,-0.91,-0.347,-39.37,32.11,-107.06,1785093737735.798
-0.266,-0.938,-0.347,-44.04,33.17,-105.78,1785093737741.437
-0.268,-0.938,-0.337,-43.58,34.61,-102.82,1785093737752.244
-0.275,-0.926,-0.328,-38.64,35.58,-99.09,1785093737765.4873
-0.265,-0.91,-0.333,-31.16,36.41,-96.04,1785093737771.2441
-0.232,-0.893,-0.369,-23.93,37.23,-94.18,1785093737781.982
-0.191,-0.889,-0.405,-19.35,38.88,-93.6,1785093737795.25
-0.166,-0.902,-0.432,-17.37,40.47,-94.27,1785093737800.831
-0.15,-0.905,-0.44,-17.24,42.48,-95.03,1785093737811.717
-0.155,-0.909,-0.412,-15.17,43.82,-94.67,1785093737822.3413
-0.159,-0.909,-0.385,-8.82,44.56,-93.33,1785093737835.5042
-0.149,-0.891,-0.379,-0.09,45.53,-92.38,1785093737841.222
-0.132,-0.856,-0.37,6.56,45.96,-91.46,1785093737851.636
-0.103,-0.84,-0.396,9.52,46.42,-91.46,1785093737862.2139
-0.089,-0.818,-0.394,6.32,47.33,-91.92,1785093737875.5068
-0.084,-0.804,-0.376,0.46,47.24,-90.4,1785093737881.315
-0.083,-0.791,-0.344,-4.73,46.82,-87.41,1785093737891.619
-0.068,-0.783,-0.312,-8.12,46.3,-84.41,1785093737902.3271
-0.036,-0.803,-0.304,-9.03,45.75,-82.52,1785093737915.523
-0.013,-0.812,-0.286,-9.28,45.75,-81.85,1785093737921.1982
-0.005,-0.822,-0.275,-7.51,45.11,-81.7,1785093737931.7131
0.01,-0.821,-0.281,-4.67,43.95,-81.15,1785093737942.3179
0.034,-0.795,-0.277,-2.01,43.0,-79.84,1785093737955.513
0.058,-0.785,-0.282,0.09,41.66,-76.78,1785093737961.2578
0.067,-0.757,-0.258,1.04,40.62,-73.92,1785093737971.673
0.079,-0.732,-0.248,3.39,38.88,-70.83,1785093737982.553
0.099,-0.702,-0.258,5.52,37.02,-68.15,1785093737995.59
0.105,-0.648,-0.245,6.35,35.86,-66.59,1785093738001.962
0.111,-0.624,-0.235,6.9,34.7,-65.31,1785093738012.227
0.111,-0.621,-0.193,4.73,33.14,-63.6,1785093738022.614
0.113,-0.627,-0.158,0.31,29.85,-61.49,1785093738035.714
0.126,-0.628,-0.125,-4.64,25.85,-58.35,1785093738041.7002
0.151,-0.614,-0.101,-9.19,22.19,-54.72,1785093738051.663
0.185,-0.612,-0.108,-13.58,18.22,-50.87,1785093738062.638
0.2,-0.602,-0.126,-22.13,14.56,-47.67,1785093738075.719
0.216,-0.597,-0.164,-32.9,11.54,-45.17,1785093738081.63
0.233,-0.594,-0.181,-42.76,9.67,-41.87,1785093738092.355
0.238,-0.592,-0.154,-49.32,8.27,-38.76,1785093738105.491
0.246,-0.603,-0.103,-51.18,5.16,-35.71,1785093738111.744
0.266,-0.633,-0.078,-48.83,0.46,-32.44,1785093738121.555
0.281,-0.666,-0.074,-43.55,-2.96,-29.45,1785093738132.248
0.297,-0.687,-0.097,-36.5,-5.28,-26.86,1785093738145.534
0.318,-0.706,-0.133,-30.61,-6.99,-24.17,1785093738151.0598
0.337,-0.714,-0.14,-26.95,-7.6,-22.1,1785093738161.75
0.349,-0.729,-0.134,-23.38,-8.58,-21.03,1785093738172.186
0.345,-0.745,-0.123,-19.9,-10.59,-20.75,1785093738185.5
0.33,-0.755,-0.106,-16.94,-13.52,-20.08,1785093738191.1948
0.33,-0.755,-0.106,-13.55,-16.14,-19.65,1785093738202.2542
0.329,-0.762,-0.132,-10.53,-16.94,-20.05,1785093738212.648
0.351,-0.762,-0.179,-8.97,-17.52,-20.26,1785093738225.8591
0.364,-0.767,-0.198,-8.3,-19.23,-20.29,1785093738231.466
0.363,-0.776,-0.198,-6.81,-21.79,-20.05,1785093738242.113
0.365,-0.784,-0.196,-6.81,-21.79,-20.05,1785093738252.5598
0.367,-0.796,-0.199,-4.73,-24.11,-19.44,1785093738265.812
0.366,-0.807,-0.219,-3.36,-26.0,-19.01,1785093738271.883
0.361,-0.82,-0.244,-3.36,-27.47,-17.91,1785093738282.018
0.362,-0.84,-0.249,-4.18,-28.9,-16.72,1785093738292.6099
0.361,-0.872,-0.23,-3.6,-30.82,-16.75,1785093738305.7869
0.355,-0.882,-0.209,-1.04,-33.78,-17.0,1785093738312.052
0.359,-0.866,-0.21,3.3,-36.41,-16.97,1785093738322.019
0.369,-0.857,-0.242,7.66,-38.45,-17.06,1785093738332.5542
0.374,-0.88,-0.283,8.91,-40.19,-18.01,1785093738345.825
0.351,-0.903,-0.286,3.57,-42.05,-20.51,1785093738351.902
0.334,-0.916,-0.287,-5.28,-44.95,-22.28,1785093738362.165
0.346,-0.91,-0.31,-15.35,-47.79,-23.68,1785093738372.6301
0.353,-0.88,-0.315,-25.85,-49.53,-25.54,1785093738385.948
0.366,-0.862,-0.317,-34.24,-51.33,-27.1,1785093738391.822
0.373,-0.872,-0.307,-39.31,-53.16,-29.27,1785093738402.404
0.359,-0.907,-0.301,-40.59,-55.24,-33.14,1785093738415.6448
0.337,-0.937,-0.28,-38.73,-57.31,-37.81,1785093738421.521
0.311,-0.932,-0.259,-34.67,-60.06,-41.26,1785093738432.2258
0.311,-0.935,-0.309,-27.04,-62.87,-43.52,1785093738445.4138
0.317,-0.926,-0.348,-19.68,-63.88,-45.38,1785093738451.352
0.311,-0.904,-0.376,-14.77,-65.19,-45.96,1785093738461.8828
0.313,-0.905,-0.43,-12.48,-66.93,-46.66,1785093738472.3909
0.297,-0.893,-0.422,-14.34,-68.24,-48.1,1785093738485.6682
0.293,-0.885,-0.403,-16.02,-70.62,-49.23,1785093738491.551
0.302,-0.887,-0.396,-15.32,-72.63,-51.21,1785093738502.1538
0.304,-0.893,-0.393,-11.96,-73.82,-53.83,1785093738515.427
0.303,-0.896,-0.405,-6.93,-75.23,-55.88,1785093738521.555
0.284,-0.893,-0.401,-3.17,-77.0,-58.14,1785093738531.6829
0.262,-0.891,-0.38,-0.82,-79.32,-61.04,1785093738542.2312
0.255,-0.889,-0.389,1.77,-82.09,-64.15,1785093738555.42
0.26,-0.862,-0.419,4.0,-84.17,-66.84,1785093738561.551
0.276,-0.833,-0.483,5.83,-85.6,-68.18,1785093738571.626
0.285,-0.808,-0.524,4.67,-86.25,-69.4,1785093738582.19
0.282,-0.796,-0.531,0.95,-87.25,-71.41,1785093738595.5378
0.262,-0.809,-0.502,-1.56,-89.27,-73.89,1785093738601.666
0.232,-0.843,-0.464,-0.18,-91.56,-76.69,1785093738611.723
0.22,-0.871,-0.438,5.77,-93.97,-79.29,1785093738622.158
0.235,-0.876,-0.454,14.77,-96.19,-81.91,1785093738635.499
0.257,-0.854,-0.515,24.48,-96.77,-84.57,1785093738641.417
0.261,-0.814,-0.578,28.78,-96.84,-86.21,1785093738651.905
0.239,-0.775,-0.612,25.61,-98.06,-87.47,1785093738662.517
0.215,-0.757,-0.618,16.51,-100.16,-88.29,1785093738675.792
0.204,-0.764,-0.608,6.53,-102.08,-89.69,1785093738681.99
0.202,-0.792,-0.59,0.0,-103.12,-92.26,1785093738692.3252
0.208,-0.816,-0.58,-0.85,-103.37,-96.29,1785093738705.625
0.207,-0.818,-0.575,3.39,-103.58,-100.59,1785093738711.231
0.204,-0.802,-0.574,11.14,-104.07,-104.01,1785093738722.23
0.19,-0.786,-0.576,20.45,-105.17,-106.72,1785093738735.635
0.171,-0.759,-0.588,28.17,-106.69,-108.13,1785093738741.523
0.163,-0.733,-0.613,32.84,-108.49,-108.4,1785093738752.5789
0.167,-0.72,-0.662,33.11,-110.23,-108.77,1785093738765.79
0.158,-0.721,-0.7,30.27,-111.15,-110.35,1785093738771.961
0.147,-0.735,-0.703,28.14,-111.3,-112.4,1785093738785.1719
0.133,-0.758,-0.676,30.67,-111.0,-114.47,1785093738790.923
0.127,-0.774,-0.64,38.85,-110.9,-116.15,1785093738802.1582
0.117,-0.776,-0.629,50.97,-111.3,-117.04,1785093738815.458
0.111,-0.765,-0.618,62.62,-111.94,-117.25,1785093738821.3708
0.112,-0.749,-0.632,70.07,-113.96,-116.92,1785093738832.495
0.121,-0.742,-0.682,71.44,-115.85,-116.37,1785093738845.684
0.129,-0.736,-0.739,66.77,-116.37,-116.43,1785093738851.841
0.13,-0.736,-0.745,59.82,-115.88,-117.16,1785093738862.5942
0.115,-0.767,-0.729,57.13,-115.91,-118.53,1785093738875.753
0.101,-0.779,-0.702,58.78,-116.4,-120.21,1785093738881.876
0.084,-0.778,-0.675,65.61,-116.37,-122.5,1785093738895.322
0.076,-0.773,-0.68,73.85,-117.22,-124.0,1785093738901.273
0.094,-0.756,-0.708,78.4,-118.35,-124.18,1785093738912.502
0.104,-0.753,-0.744,78.86,-119.21,-123.45,1785093738925.568
0.105,-0.771,-0.779,75.14,-119.54,-123.11,1785093738931.5122
0.1,-0.795,-0.791,70.07,-119.05,-124.15,1785093738942.522
0.084,-0.826,-0.767,68.06,-118.2,-125.92,1785093738955.8667
0.074,-0.836,-0.75,69.98,-117.31,-127.05,1785093738961.874
0.069,-0.805,-0.743,73.46,-115.91,-127.9,1785093738972.7412
0.068,-0.763,-0.751,77.49,-114.41,-128.24,1785093738986.006
0.079,-0.734,-0.757,79.5,-113.86,-128.36,1785093738992.337
0.102,-0.719,-0.762,77.33,-114.81,-128.45,1785093739005.4211
0.125,-0.735,-0.781,71.5,-116.67,-127.78,1785093739011.513
0.116,-0.753,-0.794,62.78,-118.11,-125.83,1785093739022.367
0.101,-0.771,-0.805,54.81,-117.86,-123.75,1785093739035.703
0.083,-0.76,-0.8,48.71,-116.58,-122.38,1785093739041.566
0.082,-0.747,-0.78,45.41,-115.15,-120.46,1785093739052.602
0.089,-0.751,-0.773,45.72,-114.23,-120.03,1785093739065.898
0.086,-0.733,-0.763,47.15,-113.41,-120.88,1785093739072.159
0.099,-0.717,-0.778,48.62,-112.92,-119.88,1785093739085.092
0.106,-0.709,-0.803,48.28,-112.22,-118.56,1785093739090.976
0.103,-0.716,-0.815,45.63,-110.93,-117.59,1785093739102.257
0.097,-0.724,-0.81,41.96,-109.26,-116.79,1785093739115.43
0.102,-0.728,-0.812,39.58,-107.52,-116.0,1785093739121.254
0.117,-0.729,-0.826,38.64,-105.62,-115.33,1785093739132.472
0.113,-0.712,-0.827,37.2,-103.0,-114.47,1785093739145.824
0.098,-0.687,-0.798,36.04,-99.86,-113.41,1785093739151.8718
0.094,-0.668,-0.767,36.99,-96.93,-112.49,1785093739162.6072
0.099,-0.67,-0.741,41.99,-95.0,-112.4,1785093739176.0518
0.097,-0.675,-0.755,48.92,-94.36,-113.44,1785093739181.776
0.093,-0.664,-0.782,53.47,-94.15,-113.96,1785093739192.5308
0.093,-0.645,-0.813,53.56,-94.7,-112.8,1785093739205.564
0.107,-0.631,-0.843,49.23,-95.28,-110.93,1785093739211.5771
0.104,-0.639,-0.842,43.0,-95.34,-109.44,1785093739222.416
0.092,-0.655,-0.824,37.84,-95.1,-108.86,1785093739235.7068
0.08,-0.657,-0.792,35.86,-94.21,-108.83,1785093739241.9883
0.08,-0.64,-0.763,37.48,-93.26,-108.37,1785093739252.254
0.097,-0.631,-0.774,41.38,-93.02,-108.31,1785093739265.53
0.115,-0.619,-0.8,44.01,-93.3,-108.55,1785093739271.446
0.127,-0.619,-0.82,43.92,-93.78,-107.76,1785093739282.6208
0.124,-0.631,-0.839,41.26,-94.27,-106.3,1785093739295.718
0.12,-0.63,-0.857,37.08,-93.81,-104.86,1785093739301.585
0.12,-0.621,-0.858,32.69,-92.78,-103.61,1785093739312.4832
0.11,-0.613,-0.835,29.42,-91.19,-102.66,1785093739325.6208
0.107,-0.601,-0.809,29.05,-90.21,-101.5,1785093739331.624
0.12,-0.597,-0.811,32.04,-90.24,-99.67,1785093739342.326
0.129,-0.579,-0.819,34.82,-89.54,-98.12,1785093739355.3313
0.132,-0.566,-0.82,36.53,-88.69,-96.74,1785093739361.4553
0.134,-0.569,-0.836,35.86,-88.17,-95.68,1785093739371.9521
0.14,-0.577,-0.858,32.69,-87.28,-94.76,1785093739382.5789
0.135,-0.59,-0.861,27.99,-86.31,-93.87,1785093739395.9072
0.141,-0.591,-0.862,22.98,-85.21,-92.87,1785093739402.029
0.156,-0.567,-0.853,19.2,-83.16,-91.34,1785093739412.3762
0.179,-0.54,-0.841,17.24,-80.87,-88.99,1785093739425.5527
0.209,-0.515,-0.828,16.66,-78.19,-87.5,1785093739431.2131
0.237,-0.499,-0.805,17.85,-74.98,-87.04,1785093739441.9783
0.246,-0.516,-0.807,21.21,-72.36,-86.46,1785093739452.602
0.228,-0.549,-0.826,25.18,-69.73,-86.12,1785093739465.91
0.198,-0.566,-0.833,27.99,-66.26,-86.25,1785093739472.291
0.198,-0.566,-0.833,29.85,-62.99,-85.54,1785093739482.369
0.177,-0.563,-0.817,32.23,-60.88,-83.47,1785093739495.6401
0.171,-0.559,-0.804,35.4,-59.11,-80.81,1785093739501.493
0.163,-0.55,-0.778,40.62,-58.11,-78.62,1785093739512.0042
0.157,-0.547,-0.778,46.3,-56.4,-77.97,1785093739522.8228
0.158,-0.541,-0.776,46.3,-56.4,-77.97,1785093739535.9512
0.15,-0.544,-0.764,50.51,-54.17,-79.41,1785093739541.888
0.134,-0.556,-0.755,51.76,-53.1,-80.94,1785093739552.1619
0.127,-0.568,-0.756,52.03,-52.83,-81.18,1785093739565.4412
0.127,-0.588,-0.767,53.01,-51.76,-80.63,1785093739571.533
0.121,-0.593,-0.788,53.9,-50.54,-79.84,1785093739582.0579
0.126,-0.583,-0.804,54.32,-49.47,-78.4,1785093739592.641
0.142,-0.563,-0.805,54.63,-48.68,-76.72,1785093739605.8062
0.165,-0.553,-0.799,53.01,-48.31,-74.37,1785093739611.889
0.183,-0.548,-0.795,49.87,-48.37,-71.99,1785093739622.417
0.188,-0.543,-0.814,45.72,-48.52,-69.52,1785093739635.659
0.178,-0.535,-0.845,40.19,-48.04,-66.77,1785093739641.3801
0.166,-0.522,-0.868,33.27,-47.0,-63.63,1785093739652.11
0.166,-0.514,-0.888,25.91,-45.59,-60.15,1785093739665.387
0.165,-0.525,-0.896,19.04,-42.79,-57.44,1785093739670.973
0.157,-0.535,-0.868,11.41,-39.58,-55.79,1785093739681.729
0.18,-0.535,-0.865,4.3,-36.65,-54.81,1785093739692.372
0.207,-0.545,-0.917,-1.28,-36.19,-51.24,1785093739705.4138
0.216,-0.528,-0.952,-9.25,-36.23,-46.3,1785093739711.6658
0.215,-0.482,-0.981,-19.07,-34.52,-41.38,1785093739722.013
0.236,-0.441,-0.989,-30.52,-32.32,-35.52,1785093739732.606
0.274,-0.427,-0.967,-41.72,-30.76,-30.58,1785093739745.831
0.312,-0.459,-0.933,-46.3,-28.11,-28.9,1785093739751.409
0.333,-0.511,-0.909,-41.11,-24.99,-29.24,1785093739762.2312
0.338,-0.537,-0.894,-30.37,-22.13,-29.66,1785093739775.5352
0.345,-0.521,-0.897,-18.95,-20.23,-28.26,1785093739781.499
0.363,-0.488,-0.93,-10.04,-18.56,-24.96,1785093739792.099
0.379,-0.461,-0.94,-4.7,-16.69,-21.49,1785093739802.5168
0.401,-0.449,-0.967,-3.91,-15.63,-17.55,1785093739815.753
0.447,-0.431,-0.98,-5.4,-12.76,-14.19,1785093739821.6929
0.468,-0.441,-0.975,-6.81,-9.43,-11.2,1785093739831.756
0.463,-0.45,-0.948,-10.04,-6.44,-8.42,1785093739842.476
0.457,-0.448,-0.907,-12.76,-4.03,-5.04,1785093739855.597
0.445,-0.444,-0.866,-14.16,-2.23,-1.22,1785093739861.127
0.437,-0.447,-0.834,-14.47,-0.52,1.1,1785093739871.775
0.434,-0.458,-0.813,-13.52,0.46,1.77,1785093739882.161
0.43,-0.473,-0.811,-11.99,0.92,2.11,1785093739892.4912
0.417,-0.472,-0.816,-11.23,1.46,2.32,1785093739905.691
0.405,-0.467,-0.829,-10.28,2.59,2.84,1785093739911.229
0.389,-0.477,-0.821,-7.66,4.06,3.48,1785093739921.4348
0.384,-0.489,-0.811,-3.3,5.25,3.3,1785093739931.9602
0.39,-0.479,-0.807,1.13,6.62,3.3,1785093739942.2852
0.387,-0.469,-0.811,4.64,7.84,4.3,1785093739952.4631
0.375,-0.46,-0.819,5.28,8.3,5.77,1785093739965.9487
0.36,-0.457,-0.822,3.36,8.64,7.32,1785093739971.5562
0.355,-0.458,-0.819,-0.4,9.34,8.51,1785093739981.635
0.348,-0.482,-0.82,-4.27,9.55,9.86,1785093739991.801
0.347,-0.502,-0.81,-7.14,10.35,10.13,1785093740002.567
0.355,-0.498,-0.793,-7.11,11.66,10.22,1785093740015.86
0.368,-0.5,-0.79,-4.24,11.51,11.72,1785093740021.702
0.362,-0.505,-0.786,-0.95,10.93,12.67,1785093740032.043
0.34,-0.506,-0.788,1.43,11.08,12.54,1785093740042.555
0.33,-0.497,-0.796,2.29,11.96,12.54,1785093740055.884
0.324,-0.5,-0.794,1.56,13.06,12.18,1785093740061.933
0.323,-0.508,-0.793,-1.4,13.67,12.18,1785093740071.859
0.324,-0.514,-0.793,-5.19,14.44,12.67,1785093740082.6082
0.32,-0.523,-0.787,-7.51,15.69,13.15,1785093740095.809
0.317,-0.523,-0.779,-8.12,16.82,13.52,1785093740101.552
0.308,-0.523,-0.769,-6.5,17.76,14.22,1785093740112.2383
0.302,-0.52,-0.756,-3.51,18.46,15.14,1785093740122.549
0.296,-0.519,-0.749,-0.4,19.32,15.99,1785093740135.858
0.284,-0.514,-0.74,1.86,20.69,16.48,1785093740141.715
0.281,-0.505,-0.733,3.11,21.79,17.12,1785093740151.9302
0.279,-0.502,-0.728,3.33,21.76,18.83,1785093740162.9263
0.264,-0.495,-0.73,2.72,22.19,19.81,1785093740175.81
0.236,-0.491,-0.736,0.92,22.68,20.81,1785093740181.8398
0.211,-0.494,-0.736,-1.98,22.1,22.55,1785093740192.1548
0.194,-0.506,-0.745,-3.63,22.58,23.74,1785093740202.606
0.198,-0.516,-0.753,-3.66,24.78,24.29,1785093740215.837
0.212,-0.508,-0.742,-3.08,27.19,25.12,1785093740221.7312
0.208,-0.505,-0.725,-1.68,29.15,26.83,1785093740231.872
0.194,-0.505,-0.711,-0.27,30.58,28.93,1785093740242.4697
0.172,-0.498,-0.695,0.55,31.89,31.04,1785093740255.838
0.163,-0.495,-0.7,1.31,33.36,32.99,1785093740261.864
0.192,-0.49,-0.717,1.46,35.83,34.0,1785093740272.0693
0.228,-0.482,-0.709,0.92,38.48,34.91,1785093740282.6052
0.24,-0.492,-0.696,-0.06,40.31,36.87,1785093740295.913
0.239,-0.511,-0.705,-1.89,41.93,39.12,1785093740301.708
0.24,-0.523,-0.694,-3.51,43.64,41.75,1785093740312.1228
0.235,-0.531,-0.673,-3.51,45.01,44.59,1785093740322.7
0.242,-0.536,-0.656,-2.17,46.24,47.21,1785093740335.823
0.261,-0.535,-0.639,1.31,47.64,49.32,1785093740341.695
0.265,-0.537,-0.621,6.35,49.07,51.18,1785093740352.231
0.257,-0.541,-0.603,11.2,50.08,53.16,1785093740362.7
0.247,-0.541,-0.586,14.86,50.54,55.15,1785093740375.9392
0.248,-0.533,-0.584,16.69,50.97,57.34,1785093740381.903
0.271,-0.524,-0.592,16.33,51.15,60.03,1785093740392.4019
0.325,-0.533,-0.619,14.22,51.61,62.14,1785093740405.6199
0.382,-0.542,-0.648,10.59,52.46,63.33,1785093740411.796
0.392,-0.543,-0.639,5.68,53.32,66.41,1785093740421.986
0.348,-0.57,-0.591,2.62,53.65,70.47,1785093740432.568
0.284,-0.6,-0.536,3.27,53.5,73.24,1785093740445.9363
0.235,-0.597,-0.465,7.48,53.71,75.62,1785093740451.6812
0.24,-0.596,-0.435,16.57,53.83,76.75,1785093740462.151
0.323,-0.6,-0.469,27.53,55.18,75.53,1785093740472.7139
0.398,-0.618,-0.509,36.71,56.52,74.28,1785093740485.815
0.426,-0.635,-0.539,41.26,57.19,74.47,1785093740491.5981
0.407,-0.656,-0.549,41.51,57.44,76.05,1785093740502.4321
0.348,-0.673,-0.553,36.01,55.21,80.11,1785093740515.722
0.278,-0.657,-0.532,24.38,52.89,84.93,1785093740521.955
0.225,-0.624,-0.512,12.42,53.25,87.56,1785093740532.161
0.246,-0.621,-0.523,4.33,54.51,88.84,1785093740542.6738
0.345,-0.647,-0.525,2.32,56.58,87.71,1785093740555.818
0.393,-0.74,-0.511,10.1,58.87,85.09,1785093740562.092
0.37,-0.785,-0.491,19.17,59.72,85.12,1785093740572.274
0.361,-0.797,-0.479,29.63,59.57,89.21,1785093740585.532
0.325,-0.774,-0.455,36.71,59.02,93.08,1785093740591.819
0.257,-0.733,-0.417,38.27,57.83,96.56,1785093740602.1108
0.186,-0.71,-0.369,38.94,56.58,98.36,1785093740612.745
0.131,-0.715,-0.356,44.77,55.91,96.56,1785093740625.928
0.137,-0.731,-0.41,56.76,57.37,93.6,1785093740631.9128
0.209,-0.727,-0.494,69.12,60.91,91.92,1785093740642.554
0.247,-0.724,-0.529,76.69,64.73,91.74,1785093740655.543
0.238,-0.746,-0.528,76.48,66.44,93.6,1785093740661.576
0.218,-0.787,-0.519,71.66,67.32,96.32,1785093740672.2761
0.205,-0.818,-0.516,65.37,69.03,98.7,1785093740682.688
0.186,-0.818,-0.506,57.83,71.69,101.11,1785093740696.0051
0.153,-0.8,-0.475,48.83,74.37,105.23,1785093740701.997
0.106,-0.791,-0.417,40.68,76.51,110.32,1785093740712.665
0.063,-0.814,-0.343,38.24,78.34,114.11,1785093740725.914
0.053,-0.85,-0.306,43.15,80.17,115.85,1785093740731.851
0.099,-0.879,-0.317,52.64,83.16,117.07,1785093740742.656
0.134,-0.888,-0.317,60.58,86.31,118.84,1785093740755.932
0.138,-0.898,-0.319,63.94,88.17,122.17,1785093740761.836
0.138,-0.898,-0.319,62.17,88.96,127.45,1785093740772.6028
0.15,-0.904,-0.31,56.34,87.74,135.14,1785093740785.842
0.167,-0.901,-0.29,46.57,84.75,141.67,1785093740791.778
0.139,-0.909,-0.254,33.54,79.56,147.13,1785093740802.898
0.078,-0.944,-0.231,33.54,79.56,147.13,1785093740815.842
0.03,-0.967,-0.233,19.59,74.74,151.07,1785093740821.748
0.001,-0.965,-0.257,5.92,71.02,154.45,1785093740832.4402
-0.013,-0.972,-0.311,-7.69,67.66,158.15,1785093740845.6719
0.005,-0.966,-0.352,-22.31,64.46,161.9,1785093740851.6172
0.02,-0.956,-0.381,-36.87,60.4,165.2,1785093740862.341
-0.0,-0.941,-0.402,-51.3,56.28,168.37,1785093740875.55
-0.035,-0.98,-0.4,-60.34,51.82,170.6,1785093740881.536
-0.085,-1.051,-0.39,-64.46,46.88,169.16,1785093740892.2063
-0.137,-1.092,-0.352,-66.35,41.75,165.99,1785093740905.553
-0.174,-1.135,-0.328,-64.15,36.16,165.01,1785093740911.675
-0.196,-1.111,-0.309,-62.69,31.25,166.14,1785093740922.028
-0.199,-1.026,-0.291,-61.4,27.07,170.63,1785093740944.313
-0.193,-0.958,-0.298,-59.3,23.19,174.93,1785093740945.3062
-0.197,-0.918,-0.314,-58.99,19.41,174.81,1785093740951.9182
-0.21,-0.922,-0.327,-58.84,15.02,170.6,1785093740965.197
-0.244,-0.973,-0.365,-58.02,10.25,163.82,1785093740971.147
-0.297,-1.015,-0.405,-59.33,5.77,157.93,1785093740982.1062
-0.344,-1.026,-0.441,-61.43,1.46,154.88,1785093740992.487
-0.368,-0.987,-0.477,-64.0,-1.95,155.71,1785093741005.986
-0.371,-0.918,-0.499,-65.65,-4.61,159.52,1785093741012.1282
-0.375,-0.877,-0.516,-64.79,-7.26,162.11,1785093741022.473
-0.395,-0.877,-0.527,-62.84,-10.56,161.05,1785093741035.7593
-0.419,-0.889,-0.522,-60.73,-13.61,157.17,1785093741041.28
-0.439,-0.904,-0.505,-55.54,-16.08,152.35,1785093741052.5142
-0.461,-0.936,-0.498,-44.43,-18.31,147.71,1785093741065.81
-0.499,-0.969,-0.502,-30.98,-20.66,143.8,1785093741071.526
-0.544,-0.98,-0.505,-18.8,-22.95,140.72,1785093741082.1409
-0.566,-0.953,-0.501,-8.3,-24.57,138.46,1785093741095.4539
-0.56,-0.905,-0.491,3.08,-25.39,137.82,1785093741101.139
-0.556,-0.84,-0.478,14.34,-26.09,138.07,1785093741112.0178
-0.558,-0.774,-0.471,24.41,-27.31,138.58,1785093741125.121
-0.566,-0.735,-0.469,33.45,-28.96,137.85,1785093741131.024
-0.589,-0.737,-0.48,40.89,-30.52,135.32,1785093741141.839
-0.631,-0.751,-0.5,45.41,-31.74,131.26,1785093741155.183
-0.677,-0.76,-0.509,46.39,-31.98,127.6,1785093741161.013
-0.706,-0.765,-0.499,46.27,-31.56,125.58,1785093741171.8408
-0.714,-0.757,-0.479,48.1,-31.19,124.52,1785093741185.1343
