ax,ay,az,gx,gy,gz,timestamp_ms
0.366,-0.478,-0.33,4.97,135.56,64.0,1785093549843.157
0.366,-0.469,-0.313,-18.34,128.67,69.31,1785093549843.4382
0.33,-0.516,-0.299,-44.13,120.58,74.92,1785093549843.695
0.267,-0.572,-0.277,-67.02,112.25,81.15,1785093549843.9521
0.229,-0.645,-0.276,-77.43,104.8,88.41,1785093549844.2122
0.277,-0.699,-0.323,-73.95,99.89,95.49,1785093549844.461
0.362,-0.72,-0.35,-60.67,97.45,102.6,1785093549844.7192
0.428,-0.748,-0.362,-41.02,95.4,110.17,1785093549844.976
0.458,-0.765,-0.357,-22.89,93.3,117.98,1785093549845.238
0.423,-0.757,-0.318,-11.32,90.58,126.44,1785093549845.491
0.339,-0.73,-0.256,-7.84,86.34,134.4,1785093549845.749
0.273,-0.695,-0.228,-10.99,80.78,140.2,1785093549846.011
0.254,-0.672,-0.258,-19.01,76.51,143.62,1785093549846.273
0.308,-0.672,-0.344,-30.15,75.35,144.69,1785093549846.5269
0.403,-0.699,-0.436,-43.12,77.09,143.93,1785093549846.788
0.458,-0.751,-0.468,-56.95,78.62,143.99,1785093549847.048
0.42,-0.836,-0.458,-68.97,78.25,147.98,1785093549847.293
0.33,-0.916,-0.404,-76.88,76.94,155.19,1785093549847.5352
0.227,-0.954,-0.357,-77.76,74.71,161.69,1785093549847.783
0.145,-0.938,-0.361,-74.62,73.12,166.66,1785093549848.021
0.102,-0.855,-0.352,-72.36,73.34,171.24,1785093549848.276
0.148,-0.806,-0.396,-69.25,74.19,174.54,1785093549848.512
0.242,-0.818,-0.46,-66.74,75.78,174.2,1785093549848.751
0.3,-0.859,-0.505,-67.72,75.87,173.13,1785093549849.0042
0.307,-0.943,-0.554,-69.89,74.43,174.35,1785093549849.244
0.307,-0.943,-0.554,-75.17,71.44,177.98,1785093549849.485
0.24,-1.013,-0.584,-82.83,67.45,184.76,1785093549849.7761
0.151,-1.019,-0.549,-86.64,62.32,191.6,1785093549850.09
0.09,-0.99,-0.507,-84.29,56.89,195.07,1785093549850.392
0.055,-0.959,-0.469,-72.57,51.12,194.74,1785093549850.689
0.039,-0.966,-0.427,-72.57,51.12,194.74,1785093549850.956
0.068,-1.028,-0.41,-47.33,45.32,190.92,1785093549851.1948
0.123,-1.116,-0.445,-10.59,40.38,185.28,1785093549851.479
0.169,-1.137,-0.472,28.96,36.56,182.04,1785093549851.779
0.176,-1.115,-0.519,67.26,32.14,182.16,1785093549852.0178
0.146,-1.06,-0.575,97.63,28.53,184.7,1785093549852.256
0.098,-1.025,-0.611,115.94,27.1,186.96,1785093549852.5
0.038,-1.003,-0.632,118.44,27.34,185.0,1785093549852.772
-0.014,-0.976,-0.636,106.36,29.08,182.41,1785093549853.009
-0.054,-0.966,-0.62,85.97,31.25,181.07,1785093549853.239
-0.081,-0.974,-0.592,63.3,33.17,179.91,1785093549853.467
-0.094,-1.001,-0.548,44.92,34.39,178.53,1785093549853.696
-0.095,-1.05,-0.514,36.35,34.61,176.15,1785093549853.916
-0.107,-1.12,-0.48,37.81,33.78,171.85,1785093549854.145
-0.13,-1.126,-0.44,44.07,32.23,167.12,1785093549854.374
-0.133,-1.075,-0.426,54.51,30.21,166.02,1785093549854.5898
-0.142,-1.022,-0.456,65.28,28.9,167.18,1785093549854.825
-0.172,-0.971,-0.499,68.12,28.44,168.22,1785093549855.0479
-0.207,-0.95,-0.543,61.86,28.72,169.04,1785093549855.273
-0.256,-0.972,-0.56,46.85,29.33,168.13,1785093549855.4968
-0.305,-0.991,-0.548,25.67,29.94,165.72,1785093549855.726
-0.332,-0.983,-0.521,5.58,30.34,164.53,1785093549855.952
-0.338,-0.969,-0.487,-8.06,29.73,165.23,1785093549856.173
-0.349,-0.952,-0.455,-15.53,28.05,165.59,1785093549856.4219
-0.364,-0.916,-0.434,-19.2,25.79,165.04,1785093549856.653
-0.378,-0.895,-0.421,-19.23,23.16,163.88,1785093549856.8818
-0.391,-0.898,-0.411,-17.52,20.26,160.95,1785093549857.12
-0.405,-0.929,-0.42,-14.95,16.91,157.08,1785093549857.347
-0.436,-0.984,-0.429,-12.88,13.98,152.29,1785093549857.572
-0.466,-1.053,-0.443,-10.59,11.78,148.26,1785093549857.789
-0.5,-1.106,-0.445,-7.78,9.7,144.87,1785093549858.022
-0.518,-1.091,-0.421,-4.55,7.2,142.43,1785093549858.2468
-0.505,-1.022,-0.402,2.26,4.36,142.09,1785093549858.4758
-0.49,-0.953,-0.396,11.96,1.53,141.21,1785093549858.6921
-0.49,-0.902,-0.394,21.58,-1.19,137.46,1785093549858.919
-0.487,-0.872,-0.401,30.09,-3.63,132.08,1785093549859.1418
-0.48,-0.865,-0.418,36.71,-5.07,125.49,1785093549859.347
-0.502,-0.873,-0.44,40.07,-5.04,117.68,1785093549859.56
-0.545,-0.88,-0.45,38.33,-5.52,114.41,1785093549859.781
-0.575,-0.9,-0.435,33.66,-11.54,118.87,1785093549860.0059
-0.521,-0.893,-0.4,33.97,-11.78,118.93,1785093549860.211
-0.554,-0.808,-0.399,37.29,-9.31,111.18,1785093549860.42
-0.563,-0.78,-0.391,36.71,-13.49,112.34,1785093549860.628
-0.56,-0.777,-0.372,35.86,-16.05,112.58,1785093549860.8342
-0.57,-0.775,-0.369,38.27,-16.54,109.62,1785093549861.0461
-0.594,-0.776,-0.382,41.2,-17.0,105.5,1785093549861.257
-0.629,-0.77,-0.39,41.11,-18.31,101.63,1785093549861.465
-0.65,-0.755,-0.394,39.31,-20.6,98.73,1785093549861.6697
-0.666,-0.749,-0.399,38.21,-21.24,96.68,1785093549861.8792
-0.684,-0.748,-0.4,37.69,-20.91,95.28,1785093549862.087
-0.699,-0.737,-0.398,36.35,-20.84,94.52,1785093549862.2908
-0.712,-0.716,-0.393,34.27,-20.87,94.21,1785093549862.502
-0.726,-0.695,-0.384,31.68,-20.78,94.12,1785093549862.736
-0.749,-0.678,-0.379,28.72,-20.81,93.36,1785093549862.952
-0.77,-0.669,-0.37,25.42,-20.63,92.17,1785093549863.179
-0.789,-0.65,-0.36,22.16,-20.84,90.09,1785093549863.39
-0.797,-0.637,-0.361,19.59,-21.18,88.26,1785093549863.601
-0.813,-0.635,-0.362,17.85,-20.63,85.63,1785093549863.8179
-0.829,-0.639,-0.358,16.69,-19.81,82.52,1785093549864.0261
-0.835,-0.638,-0.353,16.85,-19.2,79.23,1785093549864.237
-0.838,-0.63,-0.346,18.83,-18.31,76.02,1785093549864.4429
-0.843,-0.619,-0.344,21.79,-17.4,73.31,1785093549864.653
-0.851,-0.605,-0.347,24.72,-16.45,71.26,1785093549864.885
-0.854,-0.585,-0.35,26.92,-16.08,69.89,1785093549865.095
-0.852,-0.563,-0.352,29.15,-15.81,68.64,1785093549865.298
-0.863,-0.546,-0.352,31.83,-14.83,67.23,1785093549865.515
-0.883,-0.53,-0.351,33.54,-14.13,66.04,1785093549865.751
-0.901,-0.498,-0.325,33.88,-14.65,65.52,1785093549865.967
-0.898,-0.439,-0.29,33.63,-16.85,66.29,1785093549866.1758
-0.878,-0.38,-0.292,33.08,-18.28,66.96,1785093549866.401
-0.875,-0.342,-0.319,28.99,-17.55,65.65,1785093549866.6128
-0.886,-0.344,-0.332,22.1,-15.32,62.11,1785093549866.817
-0.904,-0.374,-0.335,14.77,-13.46,56.18,1785093549867.02
-0.922,-0.406,-0.339,8.12,-12.42,49.75,1785093549867.2231
-0.935,-0.43,-0.336,2.29,-11.26,45.01,1785093549867.415
-0.939,-0.44,-0.33,-2.5,-10.01,42.21,1785093549867.6118
-0.933,-0.437,-0.325,-6.26,-8.88,40.38,1785093549867.81
-0.931,-0.432,-0.322,-8.67,-7.84,38.3,1785093549868.0042
-0.935,-0.425,-0.318,-9.4,-7.2,35.16,1785093549868.194
-0.919,-0.415,-0.318,-8.73,-6.44,31.46,1785093549868.392
-0.944,-0.389,-0.302,-6.47,-7.39,27.16,1785093549868.591
-0.915,-0.411,-0.286,0.85,-7.66,26.31,1785093549868.779
-0.896,-0.394,-0.297,9.06,-6.23,20.87,1785093549868.981
-0.899,-0.34,-0.303,13.15,-7.35,15.02,1785093549869.181
-0.888,-0.318,-0.31,14.16,-7.66,11.35,1785093549869.376
-0.883,-0.303,-0.308,11.6,-7.72,7.2,1785093549869.579
-0.88,-0.291,-0.3,8.51,-7.66,3.54,1785093549869.7778
-0.873,-0.306,-0.304,7.29,-6.01,1.04,1785093549869.965
-0.872,-0.318,-0.307,5.01,-5.58,-2.14,1785093549870.16
-0.873,-0.322,-0.305,2.08,-5.46,-5.13,1785093549870.353
-0.878,-0.34,-0.299,0.4,-6.01,-5.62,1785093549870.546
-0.869,-0.357,-0.294,0.37,-4.82,-6.78,1785093549870.733
-0.89,-0.337,-0.295,-0.03,-3.66,-8.48,1785093549870.9277
-0.893,-0.335,-0.302,-1.16,-4.46,-6.5,1785093549871.126
-0.889,-0.337,-0.304,-2.66,-4.85,-4.0,1785093549871.3127
-0.876,-0.328,-0.305,-3.57,-3.36,-2.93,1785093549871.505
-0.879,-0.323,-0.302,-3.27,-1.19,-2.41,1785093549871.706
-0.889,-0.327,-0.295,-2.41,-0.76,-0.98,1785093549871.8928
-0.887,-0.325,-0.281,-1.74,-1.1,0.89,1785093549872.088
-0.882,-0.315,-0.268,-0.27,-0.98,2.44,1785093549872.285
-0.882,-0.307,-0.268,1.1,-1.04,4.21,1785093549872.47
-0.878,-0.304,-0.271,1.62,-1.22,5.37,1785093549872.6677
-0.881,-0.304,-0.275,1.68,-0.89,5.16,1785093549872.8586
-0.883,-0.313,-0.281,1.77,-0.67,4.58,1785093549873.04
-0.887,-0.322,-0.283,1.4,-0.15,3.91,1785093549873.229
-0.891,-0.324,-0.286,0.52,0.37,3.36,1785093549873.43
-0.893,-0.324,-0.283,-0.46,0.7,3.51,1785093549873.61
-0.895,-0.324,-0.282,-1.04,0.98,3.6,1785093549873.806
-0.896,-0.324,-0.28,-1.4,1.28,3.33,1785093549873.995
-0.896,-0.325,-0.276,-1.5,1.4,2.81,1785093549874.1729
-0.896,-0.323,-0.274,-1.71,1.34,2.14,1785093549874.361
-0.896,-0.32,-0.274,-1.95,1.34,1.31,1785093549874.55
-0.9,-0.315,-0.272,-2.04,1.28,0.31,1785093549874.732
-0.904,-0.313,-0.268,-2.04,1.16,-0.37,1785093549874.926
-0.908,-0.309,-0.265,-2.04,0.79,-0.76,1785093549875.1118
-0.908,-0.303,-0.268,-2.38,0.34,-0.92,1785093549875.298
-0.908,-0.297,-0.268,-3.3,-0.06,-1.16,1785093549875.4858
-0.905,-0.295,-0.269,-4.43,-0.31,-1.62,1785093549875.675
-0.904,-0.297,-0.271,-5.34,-0.43,-2.08,1785093549875.863
-0.903,-0.3,-0.267,-6.23,-0.37,-2.44,1785093549876.045
-0.902,-0.302,-0.262,-6.71,-0.46,-2.59,1785093549876.2397
-0.9,-0.301,-0.26,-6.93,-0.49,-2.44,1785093549876.4749
-0.899,-0.302,-0.258,-7.08,-0.58,-2.14,1785093549876.695
-0.899,-0.302,-0.258,-6.99,-0.58,-1.92,1785093549876.908
-0.897,-0.306,-0.257,-6.47,-0.49,-1.68,1785093549877.116
-0.891,-0.31,-0.255,-5.58,-0.34,-1.59,1785093549877.312
-0.885,-0.31,-0.258,-4.52,-0.06,-1.31,1785093549877.498
-0.882,-0.308,-0.258,-3.48,-0.24,-0.82,1785093549877.701
-0.886,-0.305,-0.259,-3.48,-0.24,-0.82,1785093549877.897
-0.891,-0.301,-0.258,-2.59,-0.4,-0.4,1785093549878.114
-0.899,-0.3,-0.259,-2.08,-0.52,0.03,1785093549878.3071
-0.9,-0.302,-0.256,-1.71,-0.49,0.15,1785093549878.534
-0.9,-0.303,-0.26,-1.43,-0.61,0.4,1785093549878.727
-0.899,-0.303,-0.261,-1.59,-0.89,0.76,1785093549878.9111
-0.898,-0.302,-0.261,-2.14,-1.1,1.1,1785093549879.127
-0.902,-0.303,-0.266,-3.02,-1.43,1.31,1785093549879.3271
-0.9,-0.306,-0.266,-3.78,-1.62,1.34,1785093549879.5159
-0.902,-0.308,-0.267,-4.49,-1.83,1.43,1785093549879.701
-0.902,-0.307,-0.266,-5.04,-1.98,1.77,1785093549879.8777
-0.907,-0.305,-0.269,-5.62,-2.04,1.8,1785093549880.053
-0.905,-0.301,-0.271,-7.32,-2.29,0.52,1785093549880.5828
-0.904,-0.306,-0.27,-7.17,-2.11,0.12,1785093549880.754
-0.896,-0.274,-0.239,-11.08,-2.44,2.2,1785093549881.084
-0.905,-0.278,-0.244,-9.77,-2.41,2.41,1785093549881.257
-0.911,-0.272,-0.251,-8.24,-2.2,2.56,1785093549888.2297
-0.907,-0.262,-0.257,-8.09,-2.47,2.62,1785093549898.7861
-0.9,-0.267,-0.271,-9.34,-2.41,2.29,1785093549908.821
-0.905,-0.278,-0.274,-11.35,-1.71,2.14,1785093549922.152
-0.907,-0.286,-0.271,-13.46,-1.34,2.32,1785093549927.495
-0.908,-0.286,-0.266,-14.22,-1.53,2.29,1785093549937.824
-0.904,-0.287,-0.265,-13.15,-1.98,2.14,1785093549948.233
-0.905,-0.29,-0.261,-9.86,-2.26,1.25,1785093549958.5002
-0.898,-0.292,-0.254,-5.04,-2.84,-0.12,1785093549968.7878
-0.892,-0.297,-0.251,0.67,-3.45,-1.71,1785093549982.136
-0.887,-0.319,-0.265,7.05,-3.63,-3.72,1785093549987.2893
-0.888,-0.355,-0.287,14.37,-3.27,-6.71,1785093549997.6
-0.894,-0.369,-0.305,21.36,-2.56,-9.43,1785093550007.953
-0.898,-0.365,-0.317,27.65,-1.53,-11.63,1785093550018.462
-0.898,-0.355,-0.315,31.89,-0.31,-13.79,1785093550028.95
-0.895,-0.351,-0.313,34.0,0.64,-16.24,1785093550042.229
-0.899,-0.347,-0.302,34.3,2.14,-19.1,1785093550047.978
-0.894,-0.342,-0.293,32.96,3.2,-21.09,1785093550058.1511
-0.898,-0.335,-0.297,30.37,4.3,-22.46,1785093550068.614
-0.895,-0.339,-0.297,26.25,5.74,-22.95,1785093550079.1418
-0.894,-0.354,-0.304,22.31,7.02,-23.35,1785093550092.4722
-0.895,-0.359,-0.305,18.34,8.42,-23.71,1785093550098.418
-0.898,-0.361,-0.299,15.53,9.52,-23.59,1785093550108.4092
-0.891,-0.367,-0.29,14.89,9.98,-23.13,1785093550119.169
-0.887,-0.366,-0.281,16.33,10.44,-23.32,1785093550132.201
-0.881,-0.353,-0.271,18.56,10.5,-22.74,1785093550138.0422
-0.876,-0.344,-0.265,20.6,10.5,-22.1,1785093550148.156
-0.87,-0.35,-0.264,22.49,10.68,-22.16,1785093550158.7961
-0.866,-0.363,-0.264,23.87,10.93,-22.95,1785093550171.9182
-0.866,-0.372,-0.265,24.72,11.6,-23.83,1785093550177.741
-0.869,-0.378,-0.264,25.82,12.33,-24.45,1785093550188.3718
-0.871,-0.383,-0.267,26.46,12.67,-24.29,1785093550199.03
-0.874,-0.378,-0.271,27.83,12.79,-23.56,1785093550212.338
-0.878,-0.363,-0.265,28.93,12.48,-22.13,1785093550218.0679
-0.878,-0.34,-0.259,28.53,11.29,-20.26,1785093550228.3608
-0.875,-0.327,-0.263,26.22,10.19,-18.8,1785093550238.7542
-0.874,-0.322,-0.264,22.28,9.09,-17.61,1785093550252.028
-0.877,-0.322,-0.266,17.03,7.72,-16.45,1785093550257.949
-0.874,-0.327,-0.276,10.41,7.02,-14.77,1785093550268.0781
-0.879,-0.332,-0.282,3.57,7.02,-13.28,1785093550278.5908
-0.883,-0.352,-0.274,-1.25,6.68,-11.96,1785093550288.9722
-0.88,-0.375,-0.255,-3.54,5.1,-11.38,1785093550299.2268
-0.867,-0.37,-0.251,-4.97,3.3,-10.01,1785093550312.69
-0.866,-0.353,-0.247,-4.24,2.41,-7.42,1785093550318.0317
-0.871,-0.339,-0.251,-2.47,1.37,-5.01,1785093550327.938
-0.872,-0.325,-0.262,-2.84,0.73,-3.69,1785093550338.2961
-0.871,-0.329,-0.26,-5.07,0.37,-3.6,1785093550348.636
-0.872,-0.333,-0.256,-8.36,-0.31,-4.0,1785093550358.8792
-0.871,-0.341,-0.256,-11.41,-0.52,-3.54,1785093550369.3672
-0.871,-0.349,-0.259,-13.79,-0.55,-2.81,1785093550382.567
-0.87,-0.363,-0.259,-15.47,-0.85,-2.2,1785093550388.098
-0.874,-0.376,-0.26,-15.81,-0.95,-2.35,1785093550398.102
-0.88,-0.383,-0.255,-15.05,-1.22,-2.35,1785093550408.5051
-0.878,-0.392,-0.246,-12.54,-1.89,-2.29,1785093550418.846
-0.874,-0.395,-0.242,-8.58,-2.56,-2.56,1785093550429.386
-0.87,-0.388,-0.247,-4.15,-3.05,-2.23,1785093550442.432
-0.871,-0.376,-0.256,-0.43,-3.39,-1.83,1785093550448.021
-0.869,-0.375,-0.266,2.29,-3.36,-2.38,1785093550457.8293
-0.865,-0.376,-0.272,4.03,-3.14,-3.66,1785093550468.1877
-0.865,-0.377,-0.275,4.97,-2.84,-4.91,1785093550478.3362
-0.869,-0.375,-0.275,5.4,-2.75,-5.62,1785093550488.7231
-0.868,-0.37,-0.272,4.61,-2.84,-5.55,1785093550499.062
-0.865,-0.374,-0.269,3.69,-2.84,-5.28,1785093550512.5771
-0.858,-0.384,-0.267,3.33,-2.78,-4.97,1785093550518.112
-0.857,-0.389,-0.265,4.06,-2.66,-4.73,1785093550527.4958
-0.857,-0.391,-0.265,5.46,-2.81,-4.27,1785093550538.027
-0.855,-0.387,-0.266,6.87,-3.05,-3.97,1785093550548.348
-0.85,-0.382,-0.269,7.81,-3.17,-3.72,1785093550558.436
-0.844,-0.383,-0.272,8.58,-3.08,-3.36,1785093550568.9443
-0.847,-0.384,-0.276,8.91,-2.87,-3.23,1785093550579.3071
-0.85,-0.389,-0.277,8.48,-2.87,-2.87,1785093550592.4102
-0.85,-0.398,-0.272,7.63,-2.78,-2.11,1785093550598.2512
-0.85,-0.405,-0.265,7.39,-2.9,-1.28,1785093550607.709
-0.85,-0.407,-0.261,7.6,-3.36,-0.37,1785093550618.122
-0.848,-0.406,-0.257,8.42,-3.78,0.64,1785093550628.491
-0.845,-0.405,-0.256,9.52,-3.94,1.77,1785093550638.7358
-0.845,-0.401,-0.258,9.83,-4.39,2.5,1785093550649.024
-0.841,-0.406,-0.263,9.13,-4.85,2.84,1785093550662.3381
-0.838,-0.414,-0.273,7.81,-4.76,3.02,1785093550667.704
-0.837,-0.423,-0.276,7.14,-4.39,2.93,1785093550677.8281
-0.841,-0.427,-0.276,6.68,-4.36,2.84,1785093550688.1257
-0.836,-0.433,-0.265,7.23,-4.03,2.93,1785093550698.2988
-0.834,-0.453,-0.266,10.53,-3.36,2.11,1785093550708.491
-0.839,-0.452,-0.272,13.67,-3.23,2.04,1785093550718.854
-0.841,-0.422,-0.27,13.15,-3.51,3.11,1785093550732.125
-0.835,-0.416,-0.274,10.47,-3.6,3.88,1785093550737.661
-0.835,-0.433,-0.278,7.51,-3.2,3.33,1785093550747.906
-0.838,-0.445,-0.282,4.97,-2.72,2.35,1785093550758.333
-0.839,-0.448,-0.283,2.9,-2.47,1.86,1785093550768.685
-0.842,-0.45,-0.284,1.25,-2.29,1.98,1785093550778.764
-0.844,-0.449,-0.286,0.18,-2.08,2.11,1785093550789.0452
-0.845,-0.454,-0.277,0.21,-1.98,2.04,1785093550802.326
-0.842,-0.462,-0.271,1.59,-2.41,1.59,1785093550807.7542
-0.842,-0.466,-0.262,4.3,-2.5,0.98,1785093550817.73
-0.842,-0.463,-0.249,7.81,-2.84,0.37,1785093550828.032
-0.84,-0.454,-0.249,10.19,-3.33,-0.06,1785093550838.424
-0.835,-0.457,-0.255,10.53,-3.11,-1.16,1785093550848.806
-0.835,-0.474,-0.27,9.77,-2.66,-3.11,1785093550859.076
-0.841,-0.482,-0.276,9.28,-1.98,-4.94,1785093550872.3909
-0.842,-0.483,-0.271,9.28,-1.53,-6.07,1785093550877.8691
-0.842,-0.478,-0.275,9.86,-0.95,-6.9,1785093550887.81
-0.845,-0.471,-0.269,10.5,-0.46,-6.99,1785093550898.1719
-0.841,-0.465,-0.266,11.29,-0.37,-7.39,1785093550908.5288
-0.835,-0.467,-0.26,12.48,-0.31,-8.18,1785093550919.0771
-0.834,-0.474,-0.258,14.04,-0.46,-8.91,1785093550929.7422
-0.836,-0.474,-0.259,15.5,-0.76,-9.49,1785093550942.555
-0.841,-0.472,-0.26,16.3,-0.7,-9.92,1785093550947.994
-0.841,-0.472,-0.26,16.24,-1.16,-10.32,1785093550958.187
-0.842,-0.47,-0.257,15.56,-1.83,-10.96,1785093550968.8772
-0.835,-0.467,-0.255,14.1,-2.32,-10.96,1785093550979.423
-0.831,-0.459,-0.255,10.93,-2.56,-10.77,1785093550992.5361
-0.831,-0.45,-0.26,10.93,-2.56,-10.77,1785093550998.4219
-0.831,-0.453,-0.263,6.87,-2.62,-11.11,1785093551008.377
-0.83,-0.466,-0.266,2.53,-2.62,-11.84,1785093551018.922
-0.827,-0.476,-0.259,-1.31,-2.72,-12.48,1785093551029.265
-0.824,-0.481,-0.255,-3.69,-2.62,-12.67,1785093551042.33
-0.824,-0.481,-0.25,-4.61,-2.38,-13.18,1785093551048.0571
-0.823,-0.492,-0.247,-4.55,-2.38,-13.95,1785093551058.118
-0.823,-0.501,-0.244,-4.33,-2.66,-14.77,1785093551068.449
-0.822,-0.514,-0.249,-3.6,-2.84,-15.14,1785093551078.693
-0.82,-0.511,-0.257,-3.05,-3.11,-15.23,1785093551089.048
-0.814,-0.504,-0.262,-2.38,-3.27,-14.98,1785093551102.4539
-0.805,-0.497,-0.271,-2.08,-3.51,-14.98,1785093551108.0361
-0.798,-0.499,-0.278,-3.08,-3.42,-15.44,1785093551118.1199
-0.803,-0.507,-0.274,-5.16,-3.54,-16.24,1785093551128.552
-0.806,-0.516,-0.276,-8.15,-3.78,-16.94,1785093551138.8328
-0.801,-0.527,-0.285,-10.47,-3.66,-17.58,1785093551149.363
-0.797,-0.538,-0.291,-11.63,-3.69,-17.98,1785093551162.679
-0.793,-0.542,-0.303,-11.96,-3.85,-18.13,1785093551168.7
-0.788,-0.543,-0.318,-12.39,-3.97,-18.07,1785093551178.5112
-0.779,-0.543,-0.328,-13.73,-4.12,-17.91,1785093551188.975
-0.771,-0.549,-0.329,-15.02,-4.09,-18.34,1785093551202.239
-0.767,-0.558,-0.33,-16.33,-3.51,-19.23,1785093551208.042
-0.766,-0.567,-0.325,-17.76,-2.38,-19.65,1785093551218.107
-0.76,-0.584,-0.326,-18.16,-1.1,-20.23,1785093551228.765
-0.761,-0.593,-0.316,-17.67,-0.18,-21.3,1785093551239.264
-0.76,-0.599,-0.307,-15.84,0.7,-21.82,1785093551252.4001
-0.758,-0.601,-0.311,-13.15,1.65,-21.97,1785093551258.2012
-0.762,-0.609,-0.312,-10.04,2.81,-22.77,1785093551268.342
-0.752,-0.63,-0.314,-6.1,3.6,-23.44,1785093551278.5652
-0.734,-0.641,-0.322,-1.43,3.72,-24.2,1785093551289.031
-0.713,-0.637,-0.334,3.72,3.72,-24.02,1785093551302.337
-0.709,-0.629,-0.353,8.09,3.78,-24.08,1785093551307.905
-0.715,-0.614,-0.366,9.92,3.69,-24.29,1785093551318.1162
-0.713,-0.598,-0.374,8.3,3.48,-24.05,1785093551328.5198
-0.706,-0.59,-0.373,3.63,3.69,-24.23,1785093551338.722
-0.708,-0.591,-0.363,-2.84,4.27,-24.45,1785093551349.13
-0.704,-0.597,-0.356,-9.95,4.85,-24.11,1785093551362.536
-0.697,-0.602,-0.354,-16.42,5.77,-24.14,1785093551368.098
-0.698,-0.61,-0.342,-21.61,6.65,-24.26,1785093551378.124
-0.696,-0.632,-0.324,-24.17,7.45,-24.57,1785093551388.725
-0.691,-0.65,-0.309,-23.96,8.0,-25.36,1785093551399.2861
-0.686,-0.669,-0.307,-21.58,8.51,-26.64,1785093551412.5361
-0.677,-0.688,-0.314,-17.85,9.22,-28.41,1785093551418.258
-0.678,-0.69,-0.326,-14.37,9.98,-29.69,1785093551428.355
-0.67,-0.683,-0.338,-11.57,10.71,-29.36,1785093551438.751
-0.651,-0.67,-0.343,-8.76,11.32,-29.45,1785093551452.157
-0.638,-0.64,-0.329,-6.9,11.57,-30.43,1785093551457.9358
-0.629,-0.602,-0.311,-6.9,11.17,-30.64,1785093551468.073
-0.625,-0.578,-0.288,-8.88,10.53,-30.7,1785093551478.636
-0.629,-0.579,-0.278,-11.08,9.92,-32.23,1785093551489.06
-0.631,-0.59,-0.292,-12.82,9.92,-34.03,1785093551502.343
-0.617,-0.596,-0.3,-13.92,9.92,-35.28,1785093551508.097
-0.587,-0.617,-0.319,-12.94,9.67,-37.57,1785093551518.089
-0.572,-0.615,-0.339,-13.61,10.35,-39.67,1785093551529.161
-0.571,-0.596,-0.355,-16.27,10.68,-39.67,1785093551539.343
-0.578,-0.588,-0.367,-19.84,11.11,-39.61,1785093551552.627
-0.59,-0.584,-0.377,-24.6,11.78,-40.07,1785093551558.6272
-0.601,-0.569,-0.365,-29.91,12.57,-39.7,1785093551568.95
-0.6,-0.557,-0.339,-34.39,13.28,-38.85,1785093551579.35
-0.597,-0.562,-0.313,-37.93,13.79,-38.58,1785093551592.615
-0.595,-0.586,-0.303,-40.65,14.31,-38.94,1785093551598.211
-0.593,-0.615,-0.315,-41.9,15.75,-39.67,1785093551608.67
-0.593,-0.632,-0.333,-40.38,17.61,-39.89,1785093551619.3298
-0.6,-0.638,-0.357,-36.68,19.07,-39.67,1785093551632.6257
-0.603,-0.632,-0.394,-33.33,20.39,-39.77,1785093551638.6519
-0.628,-0.612,-0.399,-31.71,21.49,-40.47,1785093551649.0188
-0.659,-0.607,-0.376,-31.83,21.79,-40.16,1785093551659.338
-0.679,-0.607,-0.353,-32.2,21.97,-39.74,1785093551672.5671
-0.694,-0.612,-0.348,-30.7,22.68,-39.67,1785093551678.5269
-0.694,-0.611,-0.355,-28.23,23.99,-39.86,1785093551688.79
-0.691,-0.607,-0.365,-26.25,25.85,-39.95,1785093551699.31
-0.689,-0.603,-0.369,-26.22,27.38,-39.64,1785093551712.564
-0.686,-0.6,-0.371,-28.14,27.95,-38.3,1785093551718.7551
-0.687,-0.613,-0.368,-30.24,27.44,-36.35,1785093551729.013
-0.694,-0.629,-0.37,-32.35,27.22,-35.1,1785093551739.331
-0.704,-0.634,-0.376,-32.62,27.8,-34.12,1785093551752.58
-0.731,-0.622,-0.38,-31.95,28.44,-32.38,1785093551758.469
-0.747,-0.597,-0.384,-31.01,29.39,-30.06,1785093551768.769
-0.753,-0.563,-0.367,-30.88,30.24,-28.02,1785093551779.383
-0.744,-0.552,-0.361,-31.53,30.37,-25.88,1785093551792.562
-0.722,-0.565,-0.36,-32.75,30.7,-24.29,1785093551798.538
-0.707,-0.578,-0.36,-34.09,31.5,-22.52,1785093551808.658
-0.695,-0.606,-0.347,-33.3,32.04,-20.05,1785093551819.349
-0.687,-0.619,-0.327,-29.82,31.89,-18.16,1785093551832.56
-0.678,-0.615,-0.309,-23.44,31.37,-16.39,1785093551838.481
-0.681,-0.616,-0.318,-14.59,30.46,-14.47,1785093551848.823
-0.71,-0.62,-0.338,-5.49,29.27,-13.55,1785093551859.24
-0.718,-0.621,-0.376,2.66,28.05,-12.15,1785093551872.47
-0.705,-0.624,-0.419,10.71,27.68,-11.14,1785093551878.5688
-0.708,-0.612,-0.414,18.19,27.07,-8.48,1785093551888.3928
-0.709,-0.593,-0.363,23.68,24.41,-3.72,1785093551898.999
-0.7,-0.598,-0.339,29.79,20.66,-0.31,1785093551912.294
-0.696,-0.6,-0.345,35.62,19.56,1.89,1785093551917.739
-0.72,-0.581,-0.34,37.9,19.62,5.4,1785093551928.206
-0.764,-0.549,-0.35,34.03,18.71,10.01,1785093551938.74
-0.776,-0.534,-0.389,24.11,18.16,13.98,1785093551949.334
-0.772,-0.554,-0.421,11.26,17.98,15.59,1785093551962.567
-0.781,-0.57,-0.432,-2.59,19.26,16.08,1785093551968.8162
-0.795,-0.579,-0.436,-14.37,21.15,18.77,1785093551978.752
-0.79,-0.594,-0.421,-21.42,22.43,22.46,1785093551989.1782
-0.797,-0.585,-0.395,-24.41,22.03,23.71,1785093552002.3281
-0.788,-0.61,-0.368,-25.15,19.1,25.21,1785093552008.1223
-0.766,-0.643,-0.351,-22.98,16.48,24.35,1785093552018.587
-0.756,-0.654,-0.358,-16.75,14.98,22.86,1785093552029.3062
-0.753,-0.654,-0.349,-8.15,12.7,22.46,1785093552042.419
-0.745,-0.62,-0.372,-3.94,8.76,21.76,1785093552048.471
-0.743,-0.577,-0.383,-5.52,6.56,21.76,1785093552058.2002
-0.735,-0.561,-0.4,-8.27,4.61,22.37,1785093552068.5789
-0.729,-0.534,-0.414,-9.52,4.03,20.91,1785093552078.8801
-0.721,-0.5,-0.413,-9.06,2.93,19.75,1785093552089.381
-0.704,-0.471,-0.434,-10.38,2.04,18.89,1785093552102.632
-0.692,-0.478,-0.446,-13.92,2.2,16.63,1785093552108.4312
-0.685,-0.53,-0.461,-18.65,2.32,13.0,1785093552118.5952
-0.674,-0.582,-0.468,-24.26,2.32,9.4,1785093552129.355
-0.678,-0.621,-0.496,-28.29,1.28,8.18,1785093552139.164
-0.662,-0.662,-0.505,-27.74,0.89,11.41,1785093552152.566
-0.667,-0.668,-0.519,-22.28,2.2,11.29,1785093552158.092
-0.688,-0.635,-0.498,-17.21,1.59,10.35,1785093552168.39
-0.68,-0.634,-0.492,-11.38,1.16,11.81,1785093552179.0981
-0.664,-0.627,-0.495,-6.29,0.89,12.48,1785093552189.3381
-0.646,-0.609,-0.521,-0.92,1.46,11.54,1785093552202.557
-0.637,-0.582,-0.548,2.04,1.53,10.44,1785093552208.3718
-0.641,-0.57,-0.558,2.41,1.56,9.92,1785093552218.171
-0.643,-0.591,-0.558,2.41,1.92,8.51,1785093552228.4329
-0.643,-0.591,-0.558,0.89,1.16,6.78,1785093552238.5762
-0.653,-0.608,-0.532,0.49,0.24,5.34,1785093552249.086
-0.654,-0.628,-0.506,1.22,-0.4,3.78,1785093552259.3323
-0.644,-0.627,-0.488,2.75,-0.76,2.9,1785093552272.365
-0.639,-0.614,-0.489,3.63,-1.53,2.47,1785093552277.7368
-0.638,-0.605,-0.502,3.63,-1.53,2.47,1785093552287.8708
-0.633,-0.598,-0.513,3.48,-2.38,1.46,1785093552298.496
-0.641,-0.606,-0.498,3.02,-3.2,0.73,1785093552308.5881
-0.645,-0.62,-0.482,2.99,-3.66,-0.34,1785093552318.867
-0.638,-0.632,-0.473,3.6,-3.48,-0.76,1785093552329.283
-0.617,-0.628,-0.489,3.23,-2.99,-0.31,1785093552342.399
-0.607,-0.617,-0.506,2.2,-2.01,0.34,1785093552347.956
-0.607,-0.616,-0.531,2.01,-1.16,1.04,1785093552358.019
-0.61,-0.602,-0.543,2.59,-0.4,1.13,1785093552368.179
-0.612,-0.576,-0.532,2.78,-0.55,1.77,1785093552378.5789
-0.603,-0.564,-0.536,2.11,-0.89,2.59,1785093552388.703
-0.597,-0.551,-0.549,0.67,-0.73,3.91,1785093552398.931
-0.597,-0.561,-0.562,0.67,-0.52,4.67,1785093552409.379
-0.596,-0.569,-0.556,0.89,-0.55,4.27,1785093552422.5652
-0.59,-0.569,-0.543,0.64,-0.95,4.06,1785093552428.0022
-0.584,-0.567,-0.523,0.43,-1.28,4.3,1785093552438.1042
-0.579,-0.56,-0.499,-0.06,-1.74,5.1,1785093552448.474
-0.564,-0.549,-0.5,-1.37,-2.17,6.44,1785093552458.5972
-0.56,-0.532,-0.496,-4.21,-1.86,7.81,1785093552468.875
-0.573,-0.52,-0.49,-8.06,-2.04,8.76,1785093552479.039
-0.569,-0.504,-0.531,-12.3,-2.5,9.37,1785093552492.45
-0.585,-0.49,-0.579,-17.61,-1.25,9.06,1785093552498.1748
-0.611,-0.518,-0.6,-23.44,0.43,7.14,1785093552508.1013
-0.643,-0.547,-0.583,-29.79,0.03,4.7,1785093552519.388
-0.636,-0.575,-0.581,-32.9,0.64,4.43,1785093552528.7239
-0.648,-0.593,-0.557,-31.28,0.82,4.06,1785093552539.0962
-0.682,-0.585,-0.5,-29.36,-0.61,4.09,1785093552552.39
-0.725,-0.583,-0.451,-25.09,-2.53,4.58,1785093552557.8408
-0.779,-0.571,-0.418,-18.83,-3.63,3.48,1785093552568.054
-0.85,-0.581,-0.407,-10.16,-1.8,-0.21,1785093552578.443
-0.95,-0.602,-0.357,0.55,-0.21,-5.89,1785093552588.769
-1.035,-0.617,-0.389,13.31,0.64,-10.07,1785093552599.37
-1.115,-0.639,-0.422,24.66,5.77,-12.91,1785093552612.5708
-1.197,-0.653,-0.385,32.11,9.13,-16.39,1785093552618.232
-1.218,-0.673,-0.309,39.46,9.46,-18.74,1785093552628.396
-1.203,-0.692,-0.258,54.48,9.86,-20.84,1785093552638.815
-1.203,-0.639,-0.262,75.01,8.58,-22.31,1785093552652.079
-1.219,-0.56,-0.377,95.55,6.04,-22.0,1785093552658.0322
-1.189,-0.497,-0.428,102.42,4.7,-19.87,1785093552668.363
-1.143,-0.471,-0.462,98.12,0.03,-20.75,1785093552678.946
-1.111,-0.478,-0.475,85.88,-3.6,-21.27,1785093552689.343
-1.095,-0.511,-0.453,72.48,-5.71,-19.78,1785093552702.443
-1.081,-0.548,-0.411,65.46,-6.96,-18.56,1785093552708.257
-1.071,-0.565,-0.355,65.28,-8.18,-17.55,1785093552718.2542
-1.057,-0.565,-0.282,68.09,-10.65,-15.78,1785093552729.009
-1.022,-0.556,-0.236,71.35,-15.14,-14.31,1785093552742.1592
-0.99,-0.542,-0.223,70.96,-20.97,-12.82,1785093552748.11
-0.97,-0.539,-0.246,66.5,-26.4,-9.98,1785093552758.3518
-0.964,-0.523,-0.303,58.02,-30.7,-5.52,1785093552768.9412
-0.948,-0.49,-0.366,46.05,-33.72,1.07,1785093552779.3213
-0.925,-0.471,-0.395,31.89,-35.28,8.79,1785093552792.4658
-0.905,-0.49,-0.371,18.04,-36.29,16.33,1785093552798.144
-0.891,-0.534,-0.315,8.45,-37.48,22.16,1785093552808.47
-0.881,-0.587,-0.222,4.58,-39.4,26.73,1785093552818.9631
-0.873,-0.65,-0.121,6.87,-42.48,30.61,1785093552832.174
-0.861,-0.709,-0.016,15.35,-47.06,33.75,1785093552838.304
-0.857,-0.748,0.034,29.76,-52.77,35.86,1785093552848.215
-0.842,-0.747,-0.007,47.98,-58.81,38.12,1785093552858.863
-0.785,-0.692,-0.142,67.08,-63.11,40.86,1785093552872.138
-0.694,-0.579,-0.294,80.05,-64.7,45.41,1785093552877.855
-0.61,-0.468,-0.395,80.2,-63.88,51.97,1785093552888.306
-0.578,-0.407,-0.391,67.2,-62.32,58.81,1785093552898.7751
-0.579,-0.424,-0.309,47.18,-62.01,64.21,1785093552912.123
-0.591,-0.486,-0.222,27.83,-63.17,67.54,1785093552918.284
-0.586,-0.567,-0.187,14.71,-64.21,70.22,1785093552928.735
-0.553,-0.621,-0.233,8.7,-64.49,72.6,1785093552938.7952
-0.505,-0.628,-0.324,6.13,-62.5,74.92,1785093552949.223
-0.458,-0.614,-0.403,3.2,-58.87,77.27,1785093552962.5752
-0.417,-0.597,-0.408,-2.35,-54.84,79.53,1785093552968.029
-0.409,-0.608,-0.348,-7.75,-51.3,80.48,1785093552978.575
-0.433,-0.63,-0.261,-10.22,-49.17,79.68,1785093552988.9998
-0.452,-0.658,-0.207,-8.33,-48.74,78.95,1785093553002.308
-0.448,-0.695,-0.23,-1.77,-47.98,77.79,1785093553008.211
-0.436,-0.722,-0.306,7.2,-44.86,76.02,1785093553018.2058
-0.427,-0.724,-0.366,15.69,-40.77,74.5,1785093553028.909
-0.451,-0.706,-0.386,21.61,-36.41,73.27,1785093553039.1528
-0.505,-0.704,-0.365,25.39,-32.56,72.08,1785093553052.558
-0.556,-0.721,-0.314,28.32,-29.76,69.7,1785093553058.441
-0.6,-0.74,-0.264,33.08,-28.29,66.65,1785093553068.751
-0.642,-0.76,-0.254,39.64,-28.05,64.21,1785093553079.5532
-0.674,-0.775,-0.285,46.54,-27.89,62.41,1785093553092.5752
-0.686,-0.783,-0.339,53.07,-27.13,61.22,1785093553098.5322
-0.687,-0.772,-0.394,58.9,-24.87,59.79,1785093553108.716
-0.701,-0.736,-0.399,62.9,-21.06,58.29,1785093553119.195
-0.732,-0.706,-0.365,64.91,-17.09,56.28,1785093553132.601
-0.77,-0.697,-0.319,64.88,-14.13,53.59,1785093553138.499
-0.804,-0.703,-0.291,62.59,-13.06,52.71,1785093553148.8088
-0.792,-0.721,-0.27,57.25,-13.25,53.83,1785093553159.5918
-0.786,-0.701,-0.261,51.24,-12.39,49.81,1785093553172.5671
-0.739,-0.682,-0.281,45.26,-11.08,44.74,1785093553178.461
-0.768,-0.645,-0.328,36.23,-9.92,36.13,1785093553188.628
-0.76,-0.688,-0.374,22.46,-13.64,38.94,1785093553199.2542
-0.652,-0.857,-0.522,7.69,-15.29,36.84,1785093553212.6
-0.545,-1.022,-0.6,-18.89,-27.77,37.6,1785093553218.3738
-0.45,-1.055,-0.555,-22.31,-39.86,44.04,1785093553228.679
-0.67,-0.958,-0.528,20.78,-30.34,36.81,1785093553239.204
-0.873,-0.826,-0.518,76.94,-4.67,14.74,1785093553252.404
-0.916,-0.696,-0.436,107.24,18.4,-11.66,1785093553258.319
-0.846,-0.631,-0.33,113.86,35.8,-27.04,1785093553268.682
-0.77,-0.621,-0.238,105.93,47.55,-30.09,1785093553279.265
-0.796,-0.622,-0.214,95.74,56.34,-31.74,1785093553292.3599
-0.91,-0.592,-0.231,84.57,63.11,-35.07,1785093553298.36
-0.937,-0.627,-0.252,67.66,65.49,-37.42,1785093553308.774
-0.896,-0.701,-0.258,48.34,66.87,-36.5,1785093553319.5059
-0.785,-0.764,-0.269,36.35,67.63,-32.93,1785093553332.428
-0.694,-0.737,-0.299,31.65,64.67,-29.66,1785093553338.295
-0.726,-0.593,-0.261,27.25,61.53,-30.46,1785093553348.791
-0.834,-0.502,-0.229,28.78,62.04,-29.76,1785093553359.1667
-0.852,-0.552,-0.226,31.56,62.56,-27.56,1785093553372.556
-0.824,-0.578,-0.233,32.75,62.78,-32.41,1785093553378.5012
-0.792,-0.583,-0.25,37.78,64.85,-38.94,1785093553388.722
-0.772,-0.601,-0.302,44.5,68.48,-43.67,1785093553399.596
-0.776,-0.606,-0.355,49.26,73.46,-47.85,1785093553412.711
-0.82,-0.623,-0.357,53.59,78.49,-49.87,1785093553418.525
-0.843,-0.678,-0.353,59.36,80.02,-49.5,1785093553428.922
-0.872,-0.707,-0.369,68.45,82.06,-51.42,1785093553439.347
-0.898,-0.706,-0.397,77.49,82.52,-51.3,1785093553452.394
-0.905,-0.689,-0.448,84.72,85.76,-51.64,1785093553458.266
-0.915,-0.667,-0.508,86.34,88.17,-52.22,1785093553468.75
-0.887,-0.667,-0.579,82.74,88.32,-51.21,1785093553479.6008
-0.866,-0.665,-0.627,76.48,90.18,-51.24,1785093553492.5498
-0.857,-0.657,-0.645,67.38,92.9,-51.42,1785093553498.5469
-0.857,-0.65,-0.657,56.03,95.19,-51.97,1785093553508.7568
-0.857,-0.65,-0.657,42.97,97.11,-50.84,1785093553519.207
-0.843,-0.657,-0.651,30.34,99.22,-49.56,1785093553532.3809
-0.837,-0.689,-0.641,19.75,100.41,-48.37,1785093553538.5598
-0.828,-0.734,-0.624,12.21,102.36,-46.33,1785093553548.9658
-0.807,-0.771,-0.615,7.97,104.8,-43.67,1785093553562.361
-0.794,-0.79,-0.616,7.97,104.8,-43.67,1785093553568.2239
-0.797,-0.8,-0.617,5.58,107.85,-40.86,1785093553578.578
-0.807,-0.812,-0.606,4.73,111.03,-38.58,1785093553588.923
-0.811,-0.83,-0.596,6.04,114.26,-36.5,1785093553602.0852
-0.814,-0.86,-0.582,9.8,117.22,-34.55,1785093553608.063
-0.819,-0.888,-0.574,14.77,120.06,-32.44,1785093553618.513
-0.825,-0.904,-0.56,19.53,123.23,-29.94,1785093553629.2852
-0.821,-0.913,-0.553,23.32,126.35,-27.71,1785093553642.484
-0.821,-0.933,-0.567,25.09,129.43,-26.92,1785093553648.162
-0.848,-0.956,-0.573,22.92,131.44,-27.89,1785093553658.9812
-0.87,-0.978,-0.563,18.59,132.97,-30.15,1785093553672.0461
-0.883,-1.0,-0.55,15.9,134.92,-34.15,1785093553677.991
-0.88,-1.029,-0.535,16.24,136.51,-38.51,1785093553688.5527
-0.869,-1.065,-0.515,20.11,137.33,-42.76,1785093553699.1702
-0.865,-1.09,-0.475,26.58,137.82,-47.3,1785093553712.4832
-0.87,-1.116,-0.446,35.25,137.85,-51.0,1785093553718.411
-0.871,-1.128,-0.436,44.04,137.55,-54.51,1785093553728.875
-0.843,-1.132,-0.448,52.43,136.88,-57.86,1785093553742.1
-0.807,-1.113,-0.45,57.86,135.04,-62.84,1785093553748.062
-0.794,-1.068,-0.419,60.12,132.33,-68.79,1785093553758.413
-0.782,-1.03,-0.384,60.12,127.87,-73.58,1785093553769.304
-0.775,-0.972,-0.367,55.15,122.29,-77.85,1785093553782.457
-0.758,-0.948,-0.353,46.72,118.75,-81.51,1785093553788.419
-0.732,-0.981,-0.33,36.68,115.97,-88.11,1785093553798.761
-0.708,-1.025,-0.307,26.73,112.43,-96.87,1785093553812.0671
-0.662,-1.07,-0.29,20.45,109.04,-103.12,1785093553818.1702
-0.644,-1.089,-0.283,17.64,106.05,-108.16,1785093553828.806
-0.643,-1.091,-0.279,15.53,102.05,-110.93,1785093553841.922
-0.64,-1.084,-0.242,12.85,96.9,-112.4,1785093553847.751
-0.63,-1.066,-0.201,12.33,94.09,-116.76,1785093553858.556
-0.594,-1.089,-0.21,12.54,86.79,-116.43,1785093553869.275
-0.536,-1.095,-0.195,12.54,81.58,-115.05,1785093553882.512
-0.525,-1.057,-0.183,13.31,78.46,-117.25,1785093553888.67
-0.505,-1.005,-0.174,10.04,71.9,-117.83,1785093553898.925
-0.481,-0.951,-0.162,1.83,64.58,-117.25,1785093553912.1667
-0.45,-0.931,-0.164,-8.15,59.57,-116.64,1785093553917.7861
-0.417,-0.945,-0.16,-18.01,56.73,-118.72,1785093553928.4338
-0.376,-0.986,-0.162,-26.09,54.02,-123.2,1785093553939.1511
-0.322,-1.038,-0.191,-30.03,51.36,-128.48,1785093553952.17
-0.265,-1.073,-0.224,-29.76,49.75,-133.95,1785093553958.491
-0.216,-1.08,-0.263,-24.81,49.38,-139.9,1785093553968.997
-0.197,-1.016,-0.241,-20.75,47.79,-142.64,1785093553982.2368
-0.23,-0.948,-0.164,-17.15,44.43,-140.84,1785093553988.0068
-0.283,-0.918,-0.111,-12.88,38.94,-139.23,1785093553998.57
-0.299,-0.92,-0.089,-8.91,33.2,-138.74,1785093554009.097
-0.27,-0.921,-0.094,-5.92,28.63,-139.77,1785093554022.369
-0.211,-0.915,-0.12,-4.73,25.18,-141.36,1785093554028.205
-0.171,-0.903,-0.131,-5.83,21.85,-141.39,1785093554038.647
-0.16,-0.911,-0.122,-7.42,18.07,-139.93,1785093554049.098
-0.153,-0.907,-0.125,-8.21,13.76,-139.07,1785093554062.6108
-0.139,-0.872,-0.134,-7.57,9.34,-139.23,1785093554068.249
-0.112,-0.843,-0.145,-5.55,4.7,-139.62,1785093554078.336
-0.08,-0.82,-0.147,-3.33,0.27,-139.93,1785093554089.632
-0.06,-0.795,-0.139,0.27,-2.53,-140.11,1785093554099.243
-0.053,-0.79,-0.127,7.02,-5.43,-140.42,1785093554112.6357
-0.033,-0.795,-0.114,16.17,-9.34,-141.79,1785093554118.6711
-0.012,-0.782,-0.115,26.52,-13.64,-143.65,1785093554128.803
0.008,-0.764,-0.131,36.38,-18.22,-144.26,1785093554139.434
0.028,-0.736,-0.145,43.49,-23.01,-144.69,1785093554152.642
0.047,-0.705,-0.163,47.67,-28.08,-144.2,1785093554158.596
0.063,-0.677,-0.191,48.28,-33.36,-142.8,1785093554169.154
0.068,-0.642,-0.214,44.47,-38.24,-141.85,1785093554182.396
0.079,-0.621,-0.218,38.39,-42.3,-141.03,1785093554188.257
0.099,-0.604,-0.188,32.26,-46.02,-139.77,1785093554198.614
0.116,-0.599,-0.163,29.69,-50.11,-138.28,1785093554209.492
0.122,-0.595,-0.134,31.28,-53.87,-136.27,1785093554222.7358
0.133,-0.594,-0.139,35.74,-58.14,-133.3,1785093554228.634
0.165,-0.591,-0.181,40.56,-61.71,-129.86,1785093554238.963
0.177,-0.588,-0.216,42.7,-65.16,-126.77,1785093554252.144
0.187,-0.583,-0.244,41.26,-68.51,-123.57,1785093554258.082
0.206,-0.576,-0.258,36.81,-71.96,-120.67,1785093554268.857
0.217,-0.575,-0.247,32.47,-75.69,-118.38,1785093554282.118
0.226,-0.573,-0.234,30.58,-79.44,-116.4,1785093554288.1938
0.249,-0.562,-0.251,31.25,-82.83,-115.12,1785093554298.5588
0.271,-0.551,-0.268,33.02,-86.4,-115.24,1785093554309.175
0.269,-0.557,-0.283,34.52,-90.79,-116.0,1785093554322.449
0.27,-0.577,-0.313,36.01,-94.82,-116.95,1785093554328.486
0.282,-0.605,-0.349,37.9,-98.21,-118.72,1785093554338.892
0.279,-0.614,-0.359,39.49,-100.96,-120.33,1785093554352.164
0.263,-0.616,-0.342,43.12,-103.34,-120.37,1785093554358.295
0.248,-0.611,-0.32,49.9,-105.75,-119.88,1785093554368.9092
0.243,-0.597,-0.333,58.38,-108.68,-120.06,1785093554382.1252
0.236,-0.571,-0.353,65.37,-111.58,-120.46,1785093554388.058
0.238,-0.567,-0.38,68.3,-115.15,-120.88,1785093554398.701
0.243,-0.573,-0.402,65.83,-119.3,-122.07,1785093554412.233
0.25,-0.584,-0.431,60.61,-123.17,-122.32,1785093554418.039
0.27,-0.612,-0.472,55.39,-126.19,-121.71,1785093554429.06
0.279,-0.637,-0.491,52.31,-127.78,-121.68,1785093554442.0537
0.265,-0.658,-0.48,53.93,-128.42,-122.78,1785093554448.197
0.241,-0.656,-0.442,61.77,-129.15,-124.55,1785093554458.757
0.223,-0.625,-0.415,74.74,-130.5,-125.4,1785093554472.0142
0.228,-0.603,-0.423,90.27,-132.54,-125.31,1785093554477.99
0.243,-0.608,-0.478,103.92,-135.07,-125.1,1785093554488.8342
0.241,-0.614,-0.525,110.11,-137.67,-124.82,1785093554502.013
0.244,-0.647,-0.571,110.17,-139.93,-123.81,1785093554508.0361
0.229,-0.681,-0.587,107.18,-141.64,-123.39,1785093554519.264
0.215,-0.689,-0.582,103.64,-143.01,-121.68,1785093554532.111
0.21,-0.682,-0.568,103.18,-143.89,-119.21,1785093554538.2778
0.196,-0.672,-0.541,107.27,-144.32,-117.68,1785093554549.313
0.178,-0.654,-0.522,114.02,-144.78,-117.22,1785093554562.4849
0.176,-0.636,-0.515,121.71,-145.88,-116.98,1785093554568.521
0.166,-0.636,-0.524,128.15,-148.17,-116.55,1785093554581.98
0.159,-0.654,-0.543,131.44,-150.85,-114.81,1785093554587.872
0.147,-0.671,-0.557,132.6,-153.51,-112.37,1785093554598.729
0.155,-0.673,-0.589,132.42,-156.07,-108.4,1785093554612.1973
0.164,-0.675,-0.612,131.69,-157.75,-103.67,1785093554618.2048
0.154,-0.681,-0.618,129.06,-159.12,-99.73,1785093554629.322
0.156,-0.69,-0.638,125.25,-160.37,-96.5,1785093554642.282
0.169,-0.691,-0.655,121.07,-160.83,-93.57,1785093554648.728
0.177,-0.679,-0.651,115.18,-161.2,-90.06,1785093554659.065
0.177,-0.666,-0.653,107.3,-161.96,-85.36,1785093554672.231
0.176,-0.671,-0.667,98.57,-162.66,-80.29,1785093554678.5547
0.172,-0.701,-0.694,90.03,-162.42,-76.39,1785093554688.69
0.164,-0.735,-0.711,82.13,-161.17,-74.25,1785093554702.062
0.151,-0.761,-0.696,76.27,-159.49,-73.06,1785093554708.011
0.131,-0.781,-0.675,75.53,-157.57,-71.9,1785093554718.498
0.111,-0.778,-0.656,78.98,-155.8,-70.41,1785093554729.247
0.1,-0.75,-0.659,83.07,-154.7,-68.12,1785093554742.3757
0.097,-0.713,-0.66,83.96,-154.3,-65.19,1785093554748.29
0.095,-0.705,-0.684,80.23,-155.71,-61.98,1785093554758.9978
0.087,-0.752,-0.757,73.52,-157.38,-59.88,1785093554772.0872
0.06,-0.789,-0.78,63.3,-157.26,-60.18,1785093554777.985
0.044,-0.809,-0.755,53.8,-156.93,-60.09,1785093554788.5461
0.046,-0.815,-0.727,48.46,-156.47,-59.02,1785093554799.169
0.046,-0.815,-0.727,48.4,-155.74,-58.41,1785093554812.411
