ax,ay,az,gx,gy,gz,timestamp_ms
0.246,-0.956,-0.448,13.21,59.85,101.08,1785093688063.5352
0.263,-1.012,-0.466,22.83,62.07,99.43,1785093688063.848
0.254,-1.048,-0.453,33.69,63.36,99.98,1785093688064.107
0.216,-1.069,-0.434,43.98,63.17,102.08,1785093688064.3599
0.18,-1.067,-0.418,49.68,61.25,107.88,1785093688064.621
0.147,-0.947,-0.397,50.36,62.59,106.54,1785093688064.8691
0.099,-0.855,-0.406,45.08,64.12,104.19,1785093688065.1191
0.074,-0.862,-0.422,32.44,63.14,107.15,1785093688065.3691
0.092,-0.877,-0.445,17.46,62.29,108.19,1785093688065.611
0.121,-0.886,-0.467,6.1,65.07,103.43,1785093688065.86
0.144,-0.936,-0.463,-1.92,67.78,98.88,1785093688066.108
0.134,-1.005,-0.434,-6.53,68.48,96.71,1785093688066.354
0.09,-1.047,-0.386,-7.35,67.96,97.05,1785093688066.607
0.06,-1.057,-0.343,-4.85,66.19,101.54,1785093688066.8582
0.058,-1.018,-0.313,-1.62,64.42,108.43,1785093688067.1082
0.04,-0.954,-0.295,0.85,63.3,113.35,1785093688067.345
0.008,-0.915,-0.297,0.58,61.25,116.73,1785093688067.6218
-0.017,-0.889,-0.319,-4.03,58.53,118.26,1785093688067.877
-0.03,-0.88,-0.354,-11.23,57.31,116.86,1785093688068.175
-0.048,-0.933,-0.374,-17.76,55.79,114.78,1785093688068.445
-0.059,-1.001,-0.356,-21.39,54.17,112.09,1785093688068.7202
-0.08,-1.018,-0.326,-16.91,53.13,107.76,1785093688068.997
-0.083,-1.023,-0.315,-3.39,52.03,108.55,1785093688069.2842
-0.077,-0.999,-0.311,12.94,50.48,113.1,1785093688069.543
-0.077,-0.945,-0.31,27.95,48.68,118.44,1785093688069.846
-0.086,-0.891,-0.321,38.94,47.43,123.08,1785093688070.1143
-0.117,-0.862,-0.335,43.28,47.15,125.28,1785093688070.3738
-0.161,-0.86,-0.346,38.76,46.66,126.1,1785093688070.6409
-0.195,-0.877,-0.344,28.26,46.33,126.47,1785093688070.8853
-0.213,-0.947,-0.337,18.37,46.36,126.13,1785093688071.1099
-0.228,-1.011,-0.315,11.81,47.15,123.72,1785093688071.331
-0.252,-1.04,-0.289,12.48,48.04,122.1,1785093688071.5781
-0.256,-1.063,-0.255,20.29,47.64,124.3,1785093688071.8223
-0.262,-1.034,-0.226,31.89,46.21,125.77,1785093688072.048
-0.259,-0.995,-0.21,45.9,44.01,128.88,1785093688072.303
-0.261,-0.962,-0.21,59.54,42.15,132.33,1785093688072.527
-0.278,-0.922,-0.225,69.0,40.93,133.3,1785093688072.754
-0.311,-0.908,-0.262,71.54,40.07,131.81,1785093688072.9722
-0.366,-0.917,-0.295,64.18,40.04,126.96,1785093688073.198
-0.409,-0.931,-0.319,48.13,40.1,122.47,1785093688073.427
-0.409,-0.91,-0.32,26.61,40.19,118.81,1785093688073.655
-0.444,-0.856,-0.317,6.47,41.63,115.09,1785093688073.8772
-0.437,-0.888,-0.325,-11.44,40.1,122.2,1785093688074.114
-0.408,-0.878,-0.312,-26.28,38.51,124.15,1785093688074.344
-0.45,-0.813,-0.306,-34.03,38.91,119.6,1785093688074.569
-0.474,-0.83,-0.31,-39.43,35.62,122.93,1785093688074.789
-0.492,-0.849,-0.299,-45.59,31.04,125.64,1785093688075.036
-0.483,-0.857,-0.288,-47.0,26.58,125.58,1785093688075.265
-0.494,-0.852,-0.279,-42.48,24.48,118.99,1785093688075.483
-0.545,-0.877,-0.293,-35.83,21.42,113.04,1785093688075.7297
-0.59,-0.959,-0.301,-29.73,16.14,114.17,1785093688075.9548
-0.584,-1.0,-0.284,-22.34,11.38,115.94,1785093688076.181
-0.586,-0.948,-0.267,-9.49,9.49,112.98,1785093688076.396
-0.583,-0.907,-0.275,6.65,7.14,112.13,1785093688076.6133
-0.583,-0.865,-0.28,20.66,4.3,110.93,1785093688076.821
-0.583,-0.865,-0.28,31.8,1.37,109.16,1785093688077.031
-0.59,-0.813,-0.287,41.23,-1.68,108.58,1785093688077.24
-0.596,-0.782,-0.301,49.38,-4.06,108.07,1785093688077.45
-0.613,-0.789,-0.316,55.39,-6.07,106.39,1785093688077.662
-0.643,-0.828,-0.328,58.47,-7.08,103.31,1785093688077.878
-0.67,-0.85,-0.334,58.47,-7.08,103.31,1785093688078.0898
-0.682,-0.858,-0.328,60.15,-6.59,100.89,1785093688078.3171
-0.691,-0.855,-0.323,61.16,-5.52,99.98,1785093688078.529
-0.699,-0.834,-0.319,60.21,-4.85,100.16,1785093688078.738
-0.704,-0.796,-0.314,58.02,-4.15,100.01,1785093688078.964
-0.709,-0.768,-0.311,55.85,-3.6,99.15,1785093688079.176
-0.717,-0.763,-0.308,54.41,-2.93,96.77,1785093688079.378
-0.728,-0.764,-0.292,53.87,-2.26,92.96,1785093688079.592
-0.736,-0.766,-0.272,55.85,-1.56,89.54,1785093688079.803
-0.741,-0.766,-0.257,60.34,-0.49,87.37,1785093688080.034
-0.745,-0.769,-0.247,67.05,0.79,86.18,1785093688080.241
-0.753,-0.768,-0.236,74.34,2.29,85.7,1785093688080.4531
-0.765,-0.76,-0.234,81.39,3.69,85.24,1785093688080.668
-0.78,-0.742,-0.237,86.76,5.31,84.38,1785093688080.8718
-0.78,-0.716,-0.238,89.3,7.32,83.56,1785093688081.084
-0.779,-0.709,-0.215,91.43,9.46,81.82,1785093688081.2969
-0.779,-0.749,-0.166,96.99,10.44,78.68,1785093688081.508
-0.774,-0.839,-0.108,110.35,9.64,73.24,1785093688081.721
-0.764,-0.928,-0.06,133.43,8.51,65.98,1785093688081.935
-0.764,-0.979,-0.051,164.86,8.33,59.97,1785093688082.15
-0.766,-0.973,-0.089,199.68,9.98,56.58,1785093688082.3738
-0.781,-0.91,-0.143,229.56,13.61,55.18,1785093688082.5867
-0.803,-0.832,-0.191,248.88,17.4,54.48,1785093688082.825
-0.815,-0.76,-0.227,254.95,19.81,51.03,1785093688083.04
-0.828,-0.664,-0.231,246.47,22.13,45.93,1785093688083.248
-0.831,-0.563,-0.218,225.65,24.11,43.34,1785093688083.4702
-0.828,-0.483,-0.199,194.46,25.76,41.87,1785093688083.6868
-0.836,-0.438,-0.186,154.73,26.37,39.83,1785093688083.8962
-0.83,-0.418,-0.187,107.46,24.87,36.32,1785093688084.157
-0.838,-0.414,-0.152,59.05,23.01,30.12,1785093688084.394
-0.832,-0.48,-0.139,19.96,25.82,25.24,1785093688084.622
-0.829,-0.524,-0.14,-16.14,24.2,19.99,1785093688084.8372
-0.835,-0.522,-0.125,-48.83,20.97,15.44,1785093688085.042
-0.845,-0.544,-0.126,-75.29,18.86,16.57,1785093688085.2712
-0.857,-0.554,-0.128,-97.75,15.59,19.41,1785093688085.487
-0.861,-0.555,-0.129,-115.36,11.78,21.67,1785093688085.728
-0.856,-0.558,-0.128,-127.26,8.33,23.07,1785093688085.946
-0.849,-0.561,-0.128,-133.64,5.16,23.41,1785093688086.15
-0.85,-0.565,-0.138,-134.98,2.81,23.07,1785093688086.345
-0.861,-0.564,-0.141,-132.66,0.46,22.31,1785093688086.5479
-0.878,-0.563,-0.153,-128.06,-1.83,21.91,1785093688086.7588
-0.885,-0.561,-0.175,-122.68,-4.18,22.31,1785093688086.9539
-0.88,-0.542,-0.19,-117.28,-4.91,20.91,1785093688087.1648
-0.889,-0.527,-0.204,-112.49,-5.1,19.81,1785093688087.371
-0.868,-0.532,-0.21,-108.28,-5.58,19.26,1785093688087.6282
-0.872,-0.515,-0.211,-104.5,-4.06,15.02,1785093688087.826
-0.863,-0.509,-0.21,-101.96,-5.52,13.06,1785093688088.0288
-0.852,-0.499,-0.2,-99.19,-6.04,11.02,1785093688088.2349
-0.834,-0.498,-0.185,-95.07,-6.07,9.61,1785093688088.428
-0.818,-0.5,-0.18,-88.56,-5.58,6.87,1785093688088.627
-0.819,-0.496,-0.182,-80.29,-5.31,3.33,1785093688088.829
-0.833,-0.49,-0.192,-71.38,-5.86,0.76,1785093688089.028
-0.844,-0.479,-0.203,-62.41,-6.87,-0.95,1785093688089.2239
-0.846,-0.464,-0.219,-53.47,-7.2,-2.41,1785093688089.4238
-0.835,-0.451,-0.229,-44.77,-7.51,-3.66,1785093688089.623
-0.824,-0.442,-0.229,-35.89,-7.93,-5.25,1785093688089.8162
-0.822,-0.44,-0.228,-26.89,-8.39,-7.05,1785093688090.017
-0.828,-0.444,-0.224,-18.28,-8.82,-8.61,1785093688090.218
-0.837,-0.448,-0.221,-10.56,-9.55,-9.64,1785093688090.407
-0.844,-0.442,-0.221,-4.73,-10.59,-9.64,1785093688090.594
-0.849,-0.429,-0.221,-0.7,-11.38,-9.06,1785093688090.785
-0.857,-0.423,-0.227,2.23,-12.27,-8.45,1785093688090.997
-0.87,-0.413,-0.237,2.93,-13.09,-7.81,1785093688091.182
-0.889,-0.404,-0.245,1.8,-13.73,-6.87,1785093688091.3743
-0.906,-0.398,-0.252,-1.19,-14.34,-5.89,1785093688091.562
-0.914,-0.396,-0.253,-5.71,-14.74,-4.85,1785093688091.748
-0.913,-0.402,-0.251,-10.62,-15.05,-3.48,1785093688091.948
-0.912,-0.417,-0.243,-16.21,-15.26,-2.08,1785093688092.145
-0.919,-0.434,-0.227,-21.94,-15.78,-1.22,1785093688092.331
-0.927,-0.452,-0.214,-26.46,-16.69,-0.61,1785093688092.5232
-0.932,-0.458,-0.209,-29.39,-18.1,0.12,1785093688092.718
-0.933,-0.454,-0.209,-31.19,-19.75,1.07,1785093688092.907
-0.932,-0.449,-0.219,-32.32,-21.7,1.98,1785093688093.091
-0.925,-0.442,-0.224,-33.27,-23.83,2.5,1785093688093.28
-0.925,-0.438,-0.226,-33.75,-25.73,2.38,1785093688093.471
-0.929,-0.434,-0.235,-33.91,-27.47,2.38,1785093688093.656
-0.936,-0.425,-0.24,-34.88,-29.18,2.81,1785093688093.847
-0.944,-0.417,-0.245,-36.74,-31.01,4.03,1785093688094.038
-0.947,-0.412,-0.264,-40.19,-32.65,5.98,1785093688094.244
-0.945,-0.407,-0.296,-45.75,-33.75,8.45,1785093688094.442
-0.936,-0.408,-0.33,-53.41,-33.94,11.32,1785093688094.625
-0.927,-0.408,-0.357,-62.9,-33.57,14.86,1785093688094.82
-0.912,-0.409,-0.375,-74.16,-32.9,19.1,1785093688095.0
-0.889,-0.411,-0.376,-86.52,-31.62,23.41,1785093688095.1892
-0.867,-0.416,-0.368,-99.28,-29.94,27.07,1785093688095.3828
-0.856,-0.425,-0.363,-111.06,-28.08,29.88,1785093688095.587
-0.843,-0.434,-0.35,-120.91,-25.7,31.04,1785093688095.774
-0.835,-0.439,-0.345,-128.24,-23.59,30.92,1785093688095.967
-0.832,-0.435,-0.348,-133.58,-20.97,29.6,1785093688096.1653
-0.833,-0.43,-0.347,-136.51,-18.37,27.77,1785093688096.3462
-0.842,-0.429,-0.358,-137.0,-15.56,25.18,1785093688096.5361
-0.847,-0.432,-0.37,-135.29,-12.3,22.4,1785093688096.723
-0.851,-0.428,-0.366,-131.08,-8.06,18.83,1785093688096.9119
-0.858,-0.43,-0.354,-124.33,-4.33,15.47,1785093688097.093
-0.876,-0.433,-0.352,-115.48,-0.73,12.15,1785093688097.2832
-0.896,-0.427,-0.347,-105.84,3.45,8.85,1785093688097.471
-0.902,-0.421,-0.337,-95.37,7.2,6.07,1785093688097.6511
-0.912,-0.408,-0.328,-83.99,11.05,3.02,1785093688097.84
-0.919,-0.397,-0.321,-72.33,14.56,0.46,1785093688098.043
-0.916,-0.383,-0.317,-60.85,17.85,-2.23,1785093688098.2249
-0.915,-0.37,-0.317,-49.59,20.72,-5.19,1785093688098.4058
-0.916,-0.358,-0.328,-39.12,23.16,-8.06,1785093688098.593
-0.91,-0.341,-0.335,-30.79,25.82,-10.77,1785093688098.785
-0.903,-0.322,-0.334,-24.2,28.23,-13.28,1785093688098.968
-0.901,-0.313,-0.333,-19.41,30.06,-15.69,1785093688099.155
-0.894,-0.31,-0.326,-16.05,31.5,-18.01,1785093688099.333
-0.884,-0.306,-0.317,-13.31,32.53,-20.33,1785093688099.5112
-0.877,-0.298,-0.309,-10.99,33.27,-22.1,1785093688099.699
-0.857,-0.28,-0.31,-8.09,34.49,-24.11,1785093688100.0588
-0.858,-0.273,-0.299,-7.05,34.73,-25.27,1785093688100.238
-1.122,-0.617,-0.499,20.42,1.5,-0.52,1785093688100.5781
-1.198,-0.702,-0.398,33.69,7.42,-4.27,1785093688100.755
-1.22,-0.781,-0.302,57.5,12.21,-11.29,1785093688101.202
-1.259,-0.765,-0.332,85.12,14.71,-21.67,1785093688114.552
-1.318,-0.626,-0.43,103.4,16.45,-28.53,1785093688120.2402
-1.287,-0.544,-0.522,111.27,17.33,-30.24,1785093688131.125
-1.208,-0.489,-0.579,107.7,17.06,-33.36,1785093688144.381
-1.149,-0.446,-0.617,95.28,16.24,-35.43,1785093688150.115
-1.099,-0.448,-0.595,76.42,14.59,-33.85,1785093688160.9019
-1.059,-0.458,-0.561,57.1,12.79,-31.89,1785093688171.55
-1.034,-0.461,-0.49,42.09,11.87,-29.3,1785093688184.784
-1.034,-0.461,-0.49,34.09,10.47,-26.25,1785093688190.447
-1.01,-0.498,-0.404,33.08,7.75,-24.96,1785093688201.217
-0.98,-0.549,-0.324,38.82,3.51,-24.93,1785093688214.461
-0.942,-0.592,-0.283,45.66,-2.78,-23.62,1785093688220.101
-0.879,-0.592,-0.348,48.92,-8.3,-18.8,1785093688230.622
-0.834,-0.578,-0.443,48.92,-8.3,-18.8,1785093688241.246
-0.837,-0.579,-0.543,47.88,-12.27,-12.6,1785093688254.512
-0.847,-0.589,-0.598,44.1,-14.04,-7.42,1785093688260.247
-0.854,-0.605,-0.604,41.99,-13.64,-2.08,1785093688270.8079
-0.863,-0.642,-0.596,44.19,-10.53,3.27,1785093688281.415
-0.872,-0.686,-0.533,49.59,-5.77,6.56,1785093688294.7322
-0.873,-0.7,-0.416,58.66,-3.2,8.55,1785093688300.194
-0.837,-0.671,-0.32,71.41,-4.21,11.93,1785093688310.9707
-0.748,-0.588,-0.279,83.19,-5.4,16.72,1785093688321.248
-0.643,-0.492,-0.319,88.14,-7.26,23.38,1785093688334.6008
-0.507,-0.443,-0.395,82.19,-8.94,31.25,1785093688340.472
-0.429,-0.431,-0.435,68.21,-8.27,34.85,1785093688350.777
-0.413,-0.476,-0.425,51.55,-7.81,38.36,1785093688361.4521
-0.426,-0.559,-0.375,37.93,-8.48,41.81,1785093688374.541
-0.442,-0.635,-0.324,32.65,-10.32,45.26,1785093688380.632
-0.444,-0.671,-0.302,36.62,-12.39,50.14,1785093688391.22
-0.408,-0.648,-0.321,44.89,-15.41,56.43,1785093688401.632
-0.317,-0.572,-0.365,52.22,-18.01,63.51,1785093688414.966
-0.237,-0.506,-0.408,55.88,-18.52,69.92,1785093688420.835
-0.22,-0.489,-0.416,55.45,-16.97,73.89,1785093688431.34
-0.231,-0.527,-0.368,52.4,-15.9,76.42,1785093688444.604
-0.243,-0.594,-0.3,50.36,-17.06,77.55,1785093688450.531
-0.252,-0.653,-0.267,51.73,-19.93,78.46,1785093688461.033
-0.253,-0.683,-0.291,57.77,-22.61,80.02,1785093688471.652
-0.248,-0.68,-0.34,67.05,-24.2,82.43,1785093688484.8818
-0.23,-0.662,-0.413,76.27,-25.48,84.32,1785093688490.8599
-0.228,-0.626,-0.492,80.29,-25.88,86.52,1785093688501.385
-0.27,-0.599,-0.528,75.75,-25.18,90.27,1785093688514.6638
-0.325,-0.635,-0.509,64.42,-25.39,93.57,1785093688520.569
-0.374,-0.688,-0.452,49.84,-27.47,95.1,1785093688531.074
-0.412,-0.742,-0.409,38.36,-31.37,96.32,1785093688541.775
-0.444,-0.785,-0.429,32.93,-35.0,96.65,1785093688554.991
-0.467,-0.799,-0.466,33.78,-36.41,96.99,1785093688560.965
-0.481,-0.812,-0.483,39.95,-35.86,96.5,1785093688571.406
-0.498,-0.822,-0.469,49.35,-34.09,93.45,1785093688584.6702
-0.544,-0.83,-0.429,60.95,-32.38,91.98,1785093688590.6018
-0.49,-0.846,-0.408,70.93,-31.46,92.35,1785093688600.9941
-0.567,-0.725,-0.378,75.41,-24.32,80.72,1785093688611.871
-0.628,-0.736,-0.399,70.16,-22.03,85.85,1785093688625.048
-0.647,-0.741,-0.394,53.83,-19.53,90.67,1785093688631.161
-0.667,-0.738,-0.397,39.67,-15.69,92.2,1785093688641.528
-0.674,-0.752,-0.384,29.54,-12.97,93.75,1785093688654.809
-0.693,-0.751,-0.36,25.09,-9.4,91.71,1785093688660.252
-0.703,-0.761,-0.333,26.86,-5.62,89.14,1785093688671.0
-0.708,-0.74,-0.311,30.34,-3.33,85.24,1785093688681.545
-0.713,-0.69,-0.301,33.23,-1.89,80.02,1785093688694.7852
-0.722,-0.661,-0.29,34.61,0.03,74.86,1785093688700.684
-0.741,-0.655,-0.286,33.97,2.38,69.83,1785093688710.783
-0.766,-0.661,-0.283,31.53,4.76,65.61,1785093688721.5637
-0.791,-0.655,-0.29,27.41,6.78,63.08,1785093688734.8052
-0.812,-0.643,-0.303,22.68,9.09,61.49,1785093688740.695
-0.83,-0.632,-0.313,17.76,11.57,59.76,1785093688751.1348
-0.84,-0.625,-0.324,13.06,14.53,57.22,1785093688761.772
-0.843,-0.623,-0.331,9.13,17.82,53.32,1785093688774.938
-0.841,-0.628,-0.31,7.26,20.69,48.37,1785093688780.88
-0.842,-0.636,-0.278,9.7,22.92,43.21,1785093688791.19
-0.849,-0.64,-0.246,16.17,24.6,37.97,1785093688801.839
-0.861,-0.645,-0.24,26.03,25.94,33.14,1785093688815.068
-0.872,-0.651,-0.267,37.42,27.86,27.86,1785093688820.992
-0.876,-0.661,-0.307,48.1,30.18,22.28,1785093688832.149
-0.882,-0.67,-0.332,56.64,32.78,16.97,1785093688844.793
-0.878,-0.673,-0.345,63.66,35.19,11.63,1785093688850.6858
-0.867,-0.658,-0.344,69.7,38.09,6.74,1785093688861.1838
-0.85,-0.618,-0.322,73.73,39.89,2.35,1785093688871.595
-0.826,-0.573,-0.316,75.96,41.05,-2.96,1785093688885.123
-0.811,-0.546,-0.322,75.96,43.52,-10.38,1785093688891.141
-0.808,-0.547,-0.347,72.42,46.54,-19.71,1785093688901.3628
-0.791,-0.601,-0.395,65.25,50.45,-30.09,1785093688914.591
-0.843,-0.675,-0.426,57.56,53.25,-41.14,1785093688920.585
-0.835,-0.786,-0.449,53.71,54.08,-46.97,1785093688931.0269
-0.854,-0.809,-0.452,54.11,53.41,-55.94,1785093688941.7012
-0.846,-0.807,-0.446,60.64,52.34,-59.36,1785093688954.9229
-0.839,-0.781,-0.461,71.78,53.8,-61.56,1785093688960.8582
-0.839,-0.72,-0.489,80.97,53.22,-63.78,1785093688971.3691
-0.809,-0.654,-0.508,84.66,51.94,-65.49,1785093688984.6443
-0.77,-0.607,-0.529,82.4,51.85,-68.48,1785093688990.5852
-0.74,-0.6,-0.565,73.34,51.76,-71.14,1785093689001.091
-0.721,-0.631,-0.591,59.08,53.01,-73.27,1785093689011.847
-0.707,-0.68,-0.599,42.76,54.38,-74.28,1785093689024.9731
-0.717,-0.725,-0.595,27.86,56.18,-74.71,1785093689031.1301
-0.719,-0.764,-0.558,17.61,57.53,-73.79,1785093689041.407
-0.701,-0.764,-0.524,13.25,59.21,-73.61,1785093689054.522
-0.696,-0.754,-0.504,14.19,61.62,-73.0,1785093689060.4019
-0.703,-0.768,-0.493,19.04,65.92,-73.46,1785093689071.1628
-0.724,-0.793,-0.485,24.29,68.33,-75.87,1785093689081.8228
-0.727,-0.819,-0.474,29.57,69.28,-78.34,1785093689095.1372
-0.724,-0.85,-0.483,36.16,70.56,-79.81,1785093689100.94
-0.72,-0.87,-0.506,42.97,72.02,-80.11,1785093689111.626
-0.715,-0.873,-0.536,48.59,73.61,-78.62,1785093689124.795
-0.703,-0.858,-0.556,52.06,74.92,-76.48,1785093689130.4473
-0.699,-0.83,-0.557,53.29,76.11,-75.35,1785093689140.9531
-0.7,-0.802,-0.551,51.97,76.51,-74.22,1785093689154.47
-0.707,-0.792,-0.547,48.16,76.78,-74.22,1785093689160.3708
-0.716,-0.794,-0.535,43.58,77.3,-75.41,1785093689170.879
-0.718,-0.807,-0.526,38.51,77.82,-76.57,1785093689181.543
-0.707,-0.816,-0.509,33.54,78.65,-77.82,1785093689194.9849
-0.703,-0.817,-0.497,29.11,79.47,-78.83,1785093689200.722
-0.696,-0.839,-0.511,24.9,79.87,-77.49,1785093689211.2761
-0.679,-0.868,-0.526,20.39,79.78,-76.17,1785093689224.448
-0.665,-0.888,-0.547,16.63,79.9,-75.93,1785093689230.562
-0.654,-0.904,-0.557,14.65,80.57,-75.66,1785093689240.9402
-0.652,-0.905,-0.536,14.07,81.27,-76.3,1785093689251.575
-0.655,-0.903,-0.505,14.95,81.36,-76.39,1785093689264.885
-0.654,-0.903,-0.5,15.5,80.08,-73.73,1785093689271.041
-0.611,-0.907,-0.501,15.84,78.77,-69.67,1785093689281.3079
-0.588,-0.88,-0.479,19.75,83.01,-70.22,1785093689294.433
-0.592,-0.877,-0.478,24.26,84.99,-68.91,1785093689300.457
-0.592,-0.899,-0.451,25.79,83.65,-64.46,1785093689311.063
-0.555,-0.943,-0.397,28.32,82.67,-62.07,1785093689321.654
-0.53,-0.957,-0.372,34.0,83.47,-65.1,1785093689334.909
-0.493,-0.956,-0.361,40.04,83.5,-64.09,1785093689340.846
-0.456,-0.929,-0.359,43.61,83.1,-61.83,1785093689351.1208
-0.421,-0.909,-0.378,42.73,79.23,-57.71,1785093689364.71
-0.398,-0.886,-0.456,36.29,74.47,-53.99,1785093689370.534
-0.434,-0.867,-0.519,24.32,71.66,-49.59,1785093689381.064
-0.512,-0.875,-0.522,9.03,69.67,-43.34,1785093689391.749
-0.561,-0.893,-0.451,-5.34,68.45,-37.81,1785093689404.866
-0.557,-0.905,-0.386,-11.99,66.68,-33.45,1785093689410.753
-0.514,-0.92,-0.359,-10.41,66.56,-31.04,1785093689421.243
-0.478,-0.938,-0.348,-4.03,66.74,-32.11,1785093689431.7751
-0.457,-0.956,-0.354,2.84,66.44,-36.13,1785093689445.3271
-0.436,-0.975,-0.373,8.06,66.26,-42.3,1785093689450.9949
-0.416,-0.977,-0.404,11.05,66.23,-49.41,1785093689461.475
-0.416,-0.977,-0.404,10.65,66.19,-55.73,1785093689474.5547
-0.403,-0.967,-0.422,6.96,65.65,-60.85,1785093689480.512
-0.392,-0.958,-0.426,1.92,64.82,-65.0,1785093689490.825
-0.376,-0.954,-0.411,-2.53,63.69,-68.21,1785093689501.417
-0.363,-0.948,-0.397,-6.29,61.98,-71.78,1785093689514.71
-0.355,-0.93,-0.394,-6.29,61.98,-71.78,1785093689520.555
-0.346,-0.892,-0.403,-10.41,59.85,-75.44,1785093689530.936
-0.322,-0.843,-0.421,-15.35,57.8,-78.55,1785093689541.561
-0.312,-0.796,-0.414,-21.97,55.85,-80.87,1785093689554.846
-0.299,-0.771,-0.412,-30.12,53.56,-82.19,1785093689560.7468
-0.286,-0.762,-0.379,-37.97,51.76,-83.44,1785093689571.2449
-0.266,-0.782,-0.348,-41.08,50.57,-85.06,1785093689584.508
-0.224,-0.81,-0.357,-39.55,49.47,-86.46,1785093689590.704
-0.182,-0.815,-0.379,-36.01,48.98,-87.13,1785093689601.0361
-0.169,-0.796,-0.39,-33.08,48.83,-86.37,1785093689611.747
-0.18,-0.783,-0.383,-32.23,46.51,-82.86,1785093689624.871
-0.159,-0.786,-0.361,-32.41,42.63,-77.52,1785093689630.893
-0.149,-0.743,-0.346,-29.91,43.61,-78.16,1785093689641.3528
-0.131,-0.736,-0.371,-27.13,41.57,-74.83,1785093689654.551
-0.102,-0.744,-0.354,-27.31,39.22,-69.19,1785093689660.4521
-0.077,-0.728,-0.339,-26.34,39.89,-67.14,1785093689671.056
-0.05,-0.717,-0.335,-23.8,39.58,-65.74,1785093689681.718
-0.023,-0.721,-0.34,-22.8,38.03,-63.97,1785093689694.921
-0.001,-0.727,-0.332,-24.08,36.26,-62.04,1785093689700.8318
0.015,-0.752,-0.32,-23.71,35.52,-60.67,1785093689711.545
0.014,-0.777,-0.295,-20.17,35.04,-59.51,1785093689724.599
0.018,-0.784,-0.284,-13.43,34.33,-58.6,1785093689730.602
0.036,-0.761,-0.277,-5.31,33.42,-57.83,1785093689740.739
0.063,-0.721,-0.287,2.2,31.37,-56.79,1785093689751.322
0.094,-0.692,-0.314,7.54,30.15,-56.22,1785093689765.722
0.097,-0.675,-0.318,8.76,29.08,-55.45,1785093689770.187
0.095,-0.693,-0.322,6.93,26.37,-53.96,1785093689781.01
0.102,-0.731,-0.313,5.34,23.56,-53.04,1785093689791.6611
0.112,-0.767,-0.311,6.81,21.18,-52.8,1785093689804.8142
0.127,-0.788,-0.321,10.13,19.14,-51.85,1785093689810.7231
0.132,-0.783,-0.301,12.97,17.09,-50.42,1785093689821.147
0.133,-0.77,-0.271,14.34,13.89,-48.59,1785093689831.808
0.136,-0.759,-0.25,13.28,9.34,-47.7,1785093689845.191
0.139,-0.747,-0.242,8.94,4.24,-47.85,1785093689850.969
0.154,-0.751,-0.265,3.14,-0.34,-48.74,1785093689861.0361
0.175,-0.763,-0.319,-2.53,-3.05,-50.17,1785093689871.68
0.195,-0.755,-0.336,-7.29,-4.43,-50.63,1785093689884.801
0.209,-0.731,-0.326,-9.28,-5.92,-50.72,1785093689890.6372
0.236,-0.723,-0.325,-7.87,-8.67,-50.42,1785093689900.4841
0.251,-0.731,-0.319,-5.04,-11.54,-50.69,1785093689911.169
0.26,-0.75,-0.326,-2.11,-13.89,-50.78,1785093689924.692
0.26,-0.787,-0.319,0.34,-15.63,-50.6,1785093689930.4841
0.255,-0.811,-0.288,2.41,-17.7,-50.11,1785093689940.725
0.273,-0.809,-0.292,4.61,-20.72,-48.49,1785093689951.083
0.3,-0.791,-0.319,5.19,-23.35,-46.72,1785093689964.5947
0.312,-0.769,-0.36,3.14,-24.87,-45.9,1785093689970.419
0.311,-0.754,-0.373,-0.79,-25.21,-45.59,1785093689980.532
0.31,-0.744,-0.363,-4.24,-26.89,-45.78,1785093689991.29
0.317,-0.737,-0.357,-6.53,-29.79,-46.11,1785093690004.717
0.318,-0.754,-0.359,-7.97,-31.65,-46.45,1785093690010.4739
0.309,-0.786,-0.329,-7.75,-32.47,-47.12,1785093690020.813
0.292,-0.817,-0.282,-4.97,-34.76,-47.91,1785093690031.301
0.293,-0.823,-0.26,-0.4,-37.35,-48.07,1785093690044.596
0.317,-0.807,-0.292,4.49,-40.13,-48.01,1785093690050.452
0.337,-0.776,-0.339,6.32,-42.02,-48.34,1785093690060.7961
0.339,-0.751,-0.372,4.09,-43.86,-48.83,1785093690071.0452
0.332,-0.742,-0.381,-0.55,-46.17,-49.65,1785093690084.713
0.306,-0.736,-0.353,-4.79,-48.68,-50.57,1785093690090.493
0.296,-0.74,-0.33,-5.98,-51.94,-50.75,1785093690100.7969
0.307,-0.753,-0.329,-3.72,-55.12,-51.27,1785093690111.61
0.321,-0.757,-0.339,0.15,-56.95,-52.19,1785093690124.5342
0.328,-0.76,-0.353,4.7,-58.41,-53.68,1785093690130.528
0.329,-0.754,-0.374,7.84,-60.76,-54.96,1785093690140.7722
0.329,-0.736,-0.403,7.66,-63.42,-55.24,1785093690151.0798
0.322,-0.719,-0.416,4.61,-66.13,-54.9,1785093690164.738
0.32,-0.718,-0.426,0.12,-68.67,-54.51,1785093690170.4531
0.31,-0.721,-0.412,-4.82,-70.83,-54.66,1785093690180.746
0.301,-0.73,-0.4,-7.81,-72.73,-54.72,1785093690191.457
0.298,-0.739,-0.409,-8.88,-74.77,-54.9,1785093690204.563
0.304,-0.734,-0.441,-10.53,-76.97,-54.84,1785093690210.52
0.311,-0.732,-0.485,-13.61,-78.71,-55.06,1785093690220.965
0.313,-0.742,-0.513,-17.37,-79.9,-55.91,1785093690231.368
0.304,-0.76,-0.51,-20.51,-80.84,-56.98,1785093690245.244
0.298,-0.777,-0.501,-20.91,-82.25,-58.2,1785093690250.4312
0.29,-0.781,-0.491,-17.4,-83.35,-59.72,1785093690261.4082
0.289,-0.772,-0.482,-11.11,-83.8,-60.82,1785093690274.543
0.286,-0.756,-0.478,-2.9,-84.2,-62.07,1785093690280.49
0.277,-0.745,-0.492,5.16,-85.27,-63.54,1785093690290.8171
0.267,-0.747,-0.545,9.95,-87.19,-65.43,1785093690301.397
0.254,-0.743,-0.582,8.7,-88.99,-67.38,1785093690314.559
0.248,-0.747,-0.596,3.08,-90.67,-68.33,1785093690320.1458
0.252,-0.758,-0.593,-3.27,-92.32,-69.22,1785093690330.798
0.254,-0.764,-0.583,-7.35,-93.75,-70.35,1785093690341.333
0.248,-0.777,-0.58,-6.56,-94.73,-72.33,1785093690354.6482
0.222,-0.784,-0.579,-1.16,-95.37,-75.44,1785093690360.542
0.209,-0.773,-0.592,5.49,-95.95,-78.4,1785093690370.792
0.201,-0.767,-0.627,11.41,-96.8,-81.42,1785093690381.4468
0.186,-0.758,-0.645,13.25,-97.75,-84.11,1785093690394.5442
0.171,-0.761,-0.637,12.12,-98.91,-85.82,1785093690400.45
0.162,-0.773,-0.62,10.44,-100.5,-87.34,1785093690411.394
0.168,-0.787,-0.62,9.83,-101.99,-89.08,1785093690424.4421
0.173,-0.802,-0.645,11.14,-103.24,-92.14,1785093690430.489
0.165,-0.794,-0.651,13.4,-104.04,-96.19,1785093690441.128
0.146,-0.773,-0.635,18.22,-105.5,-99.86,1785093690451.899
0.122,-0.754,-0.633,25.39,-107.67,-102.91,1785093690465.135
0.093,-0.742,-0.635,31.71,-110.32,-105.38,1785093690471.232
0.075,-0.741,-0.667,34.21,-113.5,-108.28,1785093690485.018
0.074,-0.734,-0.705,30.58,-115.97,-110.63,1785093690490.237
0.08,-0.743,-0.747,23.13,-117.4,-112.8,1785093690501.524
0.085,-0.747,-0.763,14.4,-117.4,-115.45,1785093690514.85
0.083,-0.748,-0.74,9.25,-116.4,-117.89,1785093690520.711
0.081,-0.728,-0.692,9.37,-115.67,-119.97,1785093690531.584
0.084,-0.715,-0.655,15.35,-115.91,-122.07,1785093690544.928
0.079,-0.706,-0.665,24.41,-116.95,-124.33,1785093690550.5579
0.082,-0.684,-0.694,31.07,-117.62,-125.25,1785093690561.881
0.082,-0.668,-0.728,34.21,-118.35,-125.49,1785093690574.994
0.077,-0.662,-0.759,33.33,-118.75,-125.28,1785093690581.006
0.063,-0.663,-0.774,30.06,-118.96,-124.85,1785093690594.443
0.056,-0.648,-0.762,26.43,-118.87,-124.55,1785093690600.4128
0.064,-0.637,-0.736,25.48,-119.02,-124.03,1785093690611.564
0.074,-0.645,-0.722,28.53,-119.36,-124.42,1785093690624.643
0.06,-0.658,-0.704,34.7,-119.33,-125.55,1785093690630.505
0.038,-0.657,-0.675,42.09,-119.6,-126.44,1785093690641.551
0.029,-0.647,-0.679,49.23,-121.01,-126.71,1785093690654.871
0.029,-0.633,-0.715,52.8,-122.47,-126.9,1785093690660.7202
0.032,-0.627,-0.755,51.24,-123.57,-126.8,1785093690672.074
0.038,-0.643,-0.781,44.31,-124.21,-126.71,1785093690685.1147
0.04,-0.67,-0.776,33.91,-124.27,-127.32,1785093690691.0542
0.036,-0.708,-0.763,24.72,-124.21,-127.57,1785093690704.4968
0.032,-0.738,-0.741,20.26,-123.94,-127.14,1785093690710.5952
0.024,-0.745,-0.708,21.61,-123.57,-125.92,1785093690721.502
0.005,-0.747,-0.7,29.27,-123.6,-124.06,1785093690734.665
-0.013,-0.724,-0.725,38.91,-123.91,-122.32,1785093690740.684
-0.013,-0.724,-0.725,46.51,-123.45,-120.76,1785093690751.924
-0.017,-0.694,-0.768,49.75,-122.87,-120.06,1785093690765.004
-0.013,-0.679,-0.815,48.1,-122.5,-120.06,1785093690770.988
-0.011,-0.685,-0.852,44.4,-121.86,-120.43,1785093690784.3809
-0.014,-0.707,-0.859,42.02,-121.34,-120.85,1785093690790.397
-0.023,-0.729,-0.842,42.02,-121.34,-120.85,1785093690801.379
-0.036,-0.752,-0.834,42.05,-120.94,-121.07,1785093690814.6218
-0.06,-0.759,-0.835,42.45,-120.27,-120.91,1785093690820.601
-0.076,-0.753,-0.831,42.33,-119.3,-120.98,1785093690831.83
-0.081,-0.751,-0.817,42.3,-118.38,-121.92,1785093690844.814
-0.089,-0.763,-0.806,43.55,-117.95,-123.78,1785093690850.7632
-0.098,-0.773,-0.813,45.69,-117.34,-126.04,1785093690861.8428
-0.112,-0.777,-0.818,48.31,-116.03,-127.84,1785093690875.062
-0.125,-0.77,-0.833,49.78,-115.42,-128.64,1785093690881.027
-0.133,-0.755,-0.857,48.34,-115.42,-128.36,1785093690894.5742
-0.146,-0.749,-0.875,44.16,-115.57,-128.33,1785093690900.4219
-0.158,-0.754,-0.878,39.98,-115.12,-129.22,1785093690911.586
-0.167,-0.758,-0.861,37.87,-114.14,-130.22,1785093690924.7073
-0.174,-0.76,-0.846,38.48,-112.7,-131.44,1785093690930.773
-0.187,-0.755,-0.83,41.02,-110.9,-133.4,1785093690941.692
-0.193,-0.737,-0.815,44.31,-108.95,-135.2,1785093690954.963
-0.188,-0.729,-0.819,47.49,-107.39,-136.02,1785093690960.9739
-0.179,-0.727,-0.826,48.4,-106.3,-136.91,1785093690974.335
-0.185,-0.741,-0.825,47.76,-104.83,-138.04,1785093690980.3828
-0.201,-0.768,-0.817,48.28,-102.82,-139.19,1785093690991.4749
-0.213,-0.798,-0.793,52.86,-99.83,-140.66,1785093691004.59
-0.22,-0.843,-0.758,63.57,-96.04,-143.07,1785093691010.525
-0.238,-0.89,-0.74,78.68,-91.62,-147.1,1785093691021.2942
-0.257,-0.865,-0.733,93.36,-85.48,-149.91,1785093691034.522
-0.248,-0.784,-0.705,107.12,-78.49,-149.63,1785093691040.4702
-0.212,-0.699,-0.708,117.31,-74.28,-147.68,1785093691051.446
-0.167,-0.623,-0.757,115.76,-74.13,-145.54,1785093691064.796
-0.139,-0.559,-0.81,98.73,-76.05,-143.28,1785093691070.621
-0.113,-0.548,-0.847,71.72,-77.88,-140.87,1785093691081.397
-0.095,-0.583,-0.837,40.99,-78.49,-139.59,1785093691094.848
-0.093,-0.664,-0.788,16.88,-77.76,-139.62,1785093691100.5051
-0.112,-0.763,-0.715,8.94,-76.88,-141.21,1785093691111.316
-0.125,-0.804,-0.682,17.61,-77.06,-142.43,1785093691124.722
-0.104,-0.784,-0.714,37.35,-77.03,-141.15,1785093691130.6118
-0.072,-0.733,-0.792,58.66,-75.99,-138.34,1785093691141.284
-0.041,-0.643,-0.876,69.92,-74.13,-134.19,1785093691154.55
0.013,-0.537,-0.921,66.59,-72.21,-127.87,1785093691160.4668
0.077,-0.507,-0.914,57.37,-70.53,-121.95,1785093691171.278
0.107,-0.56,-0.904,51.48,-69.06,-118.69,1785093691184.511
0.119,-0.595,-0.875,48.98,-66.41,-115.76,1785093691190.3
0.137,-0.615,-0.855,52.52,-63.66,-111.58,1785093691201.1409
0.149,-0.596,-0.842,58.84,-61.4,-106.72,1785093691214.57
0.166,-0.58,-0.839,65.74,-59.11,-100.28,1785093691220.4092
0.172,-0.597,-0.845,72.6,-56.49,-94.76,1785093691231.117
0.182,-0.607,-0.864,78.59,-53.74,-90.06,1785093691241.667
0.193,-0.593,-0.889,82.64,-50.6,-85.12,1785093691255.0369
0.2,-0.556,-0.908,82.06,-46.72,-79.32,1785093691260.9392
0.218,-0.521,-0.916,77.52,-42.66,-72.63,1785093691271.198
0.239,-0.49,-0.902,68.24,-38.73,-66.07,1785093691285.023
0.262,-0.505,-0.872,57.34,-34.61,-60.18,1785093691290.6492
0.28,-0.552,-0.819,46.94,-30.18,-56.86,1785093691301.158
0.293,-0.627,-0.741,39.61,-26.12,-55.94,1785093691312.0671
0.291,-0.684,-0.684,34.64,-22.89,-55.36,1785093691325.0479
0.299,-0.708,-0.644,33.23,-20.05,-51.7,1785093691331.031
0.322,-0.712,-0.636,35.4,-17.88,-45.81,1785093691341.5361
0.348,-0.684,-0.646,37.26,-15.84,-40.19,1785093691354.714
0.368,-0.666,-0.684,35.92,-17.73,-31.19,1785093691360.533
0.39,-0.673,-0.659,34.18,-13.46,-25.94,1785093691371.223
0.367,-0.704,-0.63,35.34,-6.93,-27.19,1785093691381.749
0.367,-0.752,-0.644,33.2,-10.83,-25.73,1785093691395.155
0.363,-0.755,-0.622,29.57,-11.2,-23.56,1785093691400.9312
0.353,-0.751,-0.643,28.96,-6.78,-21.06,1785093691411.5042
0.364,-0.739,-0.673,24.78,-8.03,-17.33,1785093691424.638
0.369,-0.711,-0.671,17.98,-9.22,-15.41,1785093691430.837
0.366,-0.708,-0.652,13.06,-6.99,-14.68,1785093691440.7942
0.376,-0.734,-0.639,10.56,-6.99,-14.62,1785093691451.2288
0.388,-0.761,-0.633,11.54,-7.66,-15.53,1785093691464.654
0.385,-0.777,-0.652,15.9,-5.62,-17.3,1785093691470.531
0.361,-0.759,-0.64,18.52,-3.63,-18.13,1785093691480.744
0.37,-0.758,-0.626,18.16,-6.87,-13.64,1785093691491.359
0.373,-0.744,-0.622,16.85,-6.59,-11.23,1785093691504.644
0.391,-0.718,-0.629,13.28,-3.36,-10.99,1785093691510.866
0.421,-0.725,-0.626,7.72,-5.13,-5.22,1785093691520.549
0.425,-0.712,-0.621,2.41,-6.13,-2.78,1785093691531.035
0.413,-0.709,-0.628,-1.77,-4.73,-3.51,1785093691541.358
0.415,-0.731,-0.604,-5.16,-3.69,-4.33,1785093691551.931
0.406,-0.79,-0.58,-4.67,-3.45,-5.1,1785093691565.074
0.376,-0.817,-0.56,-0.73,-2.11,-5.4,1785093691570.7532
0.378,-0.801,-0.56,5.04,0.31,-4.88,1785093691580.721
0.394,-0.762,-0.571,9.58,2.84,-3.02,1785093691591.074
0.403,-0.752,-0.583,11.72,3.78,-0.98,1785093691601.56
0.407,-0.743,-0.59,10.99,3.85,0.21,1785093691614.835
0.412,-0.731,-0.587,7.84,3.85,0.98,1785093691620.545
0.403,-0.719,-0.576,3.48,3.63,1.43,1785093691630.5652
0.393,-0.719,-0.549,0.34,4.79,0.7,1785093691640.915
0.374,-0.761,-0.532,-0.58,4.64,1.34,1785093691651.309
0.358,-0.78,-0.512,0.18,5.37,1.86,1785093691661.58
0.354,-0.761,-0.511,5.13,8.27,0.85,1785093691674.84
0.366,-0.735,-0.531,10.35,9.49,1.1,1785093691680.5142
0.391,-0.73,-0.537,13.03,9.37,1.95,1785093691690.7917
0.397,-0.741,-0.542,14.44,9.55,1.43,1785093691701.2898
0.391,-0.746,-0.533,14.68,9.55,1.31,1785093691711.895
0.389,-0.753,-0.525,15.29,10.01,1.59,1785093691725.006
0.396,-0.731,-0.506,13.86,10.16,2.47,1785093691730.8958
0.409,-0.702,-0.496,9.8,9.74,5.13,1785093691741.017
0.414,-0.7,-0.489,6.16,10.04,5.65,1785093691751.502
0.424,-0.72,-0.481,4.03,10.25,3.85,1785093691764.868
0.44,-0.752,-0.465,3.66,10.32,0.92,1785093691770.59
0.441,-0.784,-0.469,5.46,10.13,-1.56,1785093691780.779
0.439,-0.793,-0.485,7.39,9.86,-1.83,1785093691791.022
0.434,-0.786,-0.501,8.88,9.98,-0.12,1785093691801.395
0.429,-0.764,-0.515,9.52,10.13,1.89,1785093691814.7148
0.434,-0.752,-0.515,8.94,10.47,3.63,1785093691820.489
0.441,-0.766,-0.514,8.42,11.14,3.42,1785093691830.4739
0.433,-0.778,-0.519,7.57,11.6,2.11,1785093691840.916
0.426,-0.781,-0.521,5.68,11.9,1.77,1785093691851.436
0.413,-0.769,-0.524,3.14,12.18,1.92,1785093691864.779
0.399,-0.755,-0.531,-0.43,12.54,2.32,1785093691870.634
0.388,-0.74,-0.541,-5.01,13.34,1.34,1785093691880.755
0.397,-0.737,-0.552,-10.07,12.97,0.06,1785093691891.341
0.406,-0.743,-0.558,-14.04,13.58,0.0,1785093691901.8948
0.399,-0.748,-0.57,-16.66,15.63,1.1,1785093691914.9639
0.385,-0.741,-0.576,-18.56,18.01,2.84,1785093691920.8079
0.371,-0.728,-0.57,-19.47,21.21,3.91,1785093691931.319
0.358,-0.719,-0.563,-19.59,24.96,4.18,1785093691941.866
0.344,-0.716,-0.566,-18.34,28.87,4.12,1785093691955.148
0.343,-0.709,-0.593,-16.21,33.11,4.79,1785093691961.014
0.351,-0.68,-0.616,-15.63,38.15,6.87,1785093691971.3
0.35,-0.668,-0.623,-16.6,43.52,9.49,1785093691981.923
0.338,-0.669,-0.608,-18.01,48.89,10.8,1785093691995.05
0.337,-0.662,-0.568,-18.49,54.35,10.96,1785093692000.8398
0.354,-0.669,-0.535,-16.17,58.32,11.66,1785093692011.736
0.366,-0.694,-0.512,-12.24,60.18,13.4,1785093692024.822
0.38,-0.696,-0.5,-8.7,62.07,14.83,1785093692030.8071
0.38,-0.696,-0.5,-7.97,63.26,17.7,1785093692041.079
0.398,-0.685,-0.504,-11.75,62.81,21.76,1785093692051.758
0.397,-0.679,-0.507,-19.65,61.89,25.12,1785093692065.021
0.371,-0.678,-0.504,-29.85,61.07,27.71,1785093692071.011
0.341,-0.693,-0.504,-29.85,61.07,27.71,1785093692081.516
0.333,-0.705,-0.509,-41.14,61.13,29.3,1785093692094.882
0.365,-0.722,-0.51,-50.2,61.92,30.43,1785093692100.717
0.397,-0.745,-0.51,-54.63,63.11,31.46,1785093692111.222
0.395,-0.764,-0.49,-54.41,64.64,33.27,1785093692121.7952
0.372,-0.775,-0.456,-50.69,65.77,35.04,1785093692135.061
0.353,-0.756,-0.424,-46.82,66.23,37.11,1785093692140.961
0.352,-0.735,-0.398,-42.97,66.1,39.31,1785093692151.5278
0.363,-0.723,-0.39,-38.36,65.46,40.16,1785093692164.775
0.394,-0.71,-0.404,-34.76,64.88,40.25,1785093692170.74
0.427,-0.708,-0.421,-33.63,64.24,40.44,1785093692181.251
0.428,-0.708,-0.432,-36.41,63.26,41.14,1785093692192.031
0.4,-0.722,-0.422,-40.83,62.65,42.76,1785093692205.109
0.356,-0.762,-0.405,-42.12,61.92,43.21,1785093692211.0132
0.341,-0.76,-0.393,-41.41,61.8,43.82,1785093692221.588
0.341,-0.737,-0.391,-37.54,62.2,46.21,1785093692234.842
0.342,-0.707,-0.401,-32.9,62.59,48.92,1785093692240.718
0.349,-0.681,-0.414,-29.36,63.17,50.72,1785093692251.261
0.345,-0.665,-0.418,-28.23,63.39,52.1,1785093692264.558
0.339,-0.658,-0.423,-30.4,63.57,53.74,1785093692270.4639
0.341,-0.652,-0.414,-35.25,63.66,55.64,1785093692281.0217
0.349,-0.657,-0.403,-41.08,63.3,57.86,1785093692291.69
0.352,-0.664,-0.394,-47.3,62.78,60.46,1785093692304.887
0.33,-0.663,-0.377,-52.43,62.01,63.84,1785093692310.496
0.293,-0.657,-0.354,-55.21,60.7,68.12,1785093692321.2202
0.265,-0.659,-0.338,-53.5,59.33,71.87,1785093692334.583
0.284,-0.652,-0.352,-47.43,58.63,74.28,1785093692340.544
0.375,-0.642,-0.386,-39.06,58.9,76.3,1785093692351.059
0.459,-0.626,-0.409,-30.79,58.32,79.38,1785093692361.7852
0.495,-0.631,-0.422,-24.96,56.09,86.76,1785093692374.887
0.497,-0.65,-0.431,-23.68,52.1,96.87,1785093692380.876
0.479,-0.682,-0.414,-24.57,47.88,105.47,1785093692391.326
0.443,-0.731,-0.384,-23.59,44.74,110.51,1785093692404.9448
0.428,-0.784,-0.331,-17.76,41.87,113.41,1785093692410.634
0.422,-0.831,-0.317,-7.6,37.57,116.76,1785093692421.3262
0.401,-0.819,-0.344,0.18,33.27,121.1,1785093692434.5999
0.377,-0.773,-0.362,3.72,29.54,126.83,1785093692440.585
0.343,-0.766,-0.396,4.3,25.39,130.56,1785093692451.0999
0.296,-0.761,-0.451,-1.1,21.58,131.53,1785093692461.829
0.267,-0.732,-0.495,-10.53,19.17,131.75,1785093692474.951
0.25,-0.725,-0.521,-19.23,18.19,129.86,1785093692480.9512
0.221,-0.75,-0.521,-26.0,17.37,125.92,1785093692491.683
0.168,-0.824,-0.504,-30.15,15.69,121.49,1785093692504.968
0.118,-0.886,-0.482,-33.45,13.82,117.34,1785093692510.894
0.1,-0.925,-0.466,-34.3,12.6,114.44,1785093692521.6328
0.104,-0.913,-0.471,-33.88,11.87,112.92,1785093692534.889
0.118,-0.858,-0.488,-34.3,11.84,113.96,1785093692540.827
0.124,-0.822,-0.503,-34.3,11.99,115.7,1785093692551.46
0.093,-0.803,-0.514,-35.07,11.54,115.27,1785093692565.06
0.049,-0.778,-0.511,-37.51,11.05,114.11,1785093692570.783
0.025,-0.778,-0.498,-37.29,11.02,112.8,1785093692581.584
0.011,-0.829,-0.493,-32.11,10.74,109.99,1785093692594.962
-0.008,-0.876,-0.493,-23.8,10.9,106.66,1785093692600.7622
-0.028,-0.911,-0.491,-12.09,11.51,105.93,1785093692611.742
-0.057,-0.917,-0.484,0.06,12.42,107.55,1785093692624.6592
-0.092,-0.878,-0.48,8.76,13.61,110.26,1785093692630.635
-0.121,-0.806,-0.468,12.67,14.59,113.44,1785093692641.325
-0.148,-0.751,-0.456,12.94,14.44,116.15,1785093692654.5579
-0.174,-0.73,-0.462,11.29,13.55,117.16,1785093692660.585
-0.202,-0.73,-0.473,8.97,12.94,117.22,1785093692671.176
-0.213,-0.751,-0.486,9.09,13.28,116.95,1785093692681.829
-0.206,-0.811,-0.496,14.74,14.56,116.03,1785093692695.082
-0.213,-0.898,-0.495,25.64,15.5,114.9,1785093692701.027
-0.239,-0.954,-0.485,37.42,16.14,115.45,1785093692711.8342
-0.256,-0.95,-0.466,47.46,16.72,120.09,1785093692726.002
-0.261,-0.904,-0.449,54.57,17.79,127.38,1785093692730.839
-0.272,-0.833,-0.436,55.18,18.34,134.98,1785093692741.797
-0.275,-0.785,-0.447,49.65,17.98,141.7,1785093692755.031
-0.269,-0.795,-0.487,40.41,17.0,145.76,1785093692760.9658
-0.279,-0.838,-0.532,26.76,16.33,146.95,1785093692771.7332
-0.303,-0.871,-0.552,9.89,16.21,147.56,1785093692785.0083
-0.334,-0.936,-0.56,-3.54,15.9,148.78,1785093692791.036
-0.384,-1.031,-0.559,-12.97,14.92,147.89,1785093692801.544
-0.417,-1.042,-0.532,-21.7,14.22,147.22,1785093692814.765
-0.405,-0.967,-0.511,-27.28,14.16,150.82,1785093692820.689
-0.394,-0.865,-0.502,-32.69,14.19,155.86,1785093692831.8022
-0.411,-0.789,-0.485,-40.62,13.12,159.15,1785093692844.804
-0.436,-0.766,-0.467,-48.19,10.38,158.39,1785093692850.677
-0.456,-0.805,-0.454,-50.11,7.23,152.59,1785093692861.408
-0.483,-0.903,-0.448,-43.0,4.46,143.62,1785093692874.414
-0.522,-0.99,-0.439,-28.53,1.74,135.41,1785093692880.322
-0.545,-1.014,-0.431,-8.51,-0.46,131.08,1785093692890.945
-0.545,-0.987,-0.434,14.56,-1.92,131.23,1785093692901.655
-0.538,-0.926,-0.447,36.5,-2.44,133.15,1785093692914.886
-0.54,-0.859,-0.456,52.98,-2.11,135.23,1785093692920.4568
-0.548,-0.805,-0.457,62.56,-1.68,136.3,1785093692931.319
-0.556,-0.774,-0.451,66.5,-1.46,135.65,1785093692944.595
-0.568,-0.768,-0.433,66.53,-1.46,133.64,1785093692950.331
-0.586,-0.791,-0.416,65.61,-1.01,130.47,1785093692961.021
-0.609,-0.818,-0.393,66.5,-0.46,126.96,1785093692971.7869
-0.629,-0.824,-0.384,70.83,-0.37,124.3,1785093692984.946
-0.646,-0.826,-0.393,77.64,0.31,123.17,1785093692990.8748
-0.667,-0.813,-0.402,82.89,1.37,122.44,1785093693001.419
-0.682,-0.781,-0.405,84.6,2.59,121.52,1785093693014.7322
