ax,ay,az,gx,gy,gz,timestamp_ms
-0.873,-0.2,-0.386,-13.82,3.23,3.63,1785104669425.933
-0.872,-0.206,-0.382,-13.98,4.12,4.09,1785104669426.402
-0.875,-0.21,-0.386,-12.73,4.64,4.39,1785104669426.84
-0.88,-0.214,-0.391,-10.62,4.97,4.76,1785104669427.251
-0.882,-0.214,-0.393,-8.15,4.79,5.43,1785104669427.67
-0.883,-0.216,-0.392,-5.68,4.3,5.92,1785104669428.086
-0.883,-0.212,-0.393,-3.72,3.91,6.5,1785104669428.4868
-0.884,-0.207,-0.393,-2.17,3.72,6.99,1785104669428.874
-0.883,-0.205,-0.391,-1.22,3.69,7.29,1785104669429.2732
-0.882,-0.201,-0.39,-1.01,3.66,7.69,1785104669429.672
-0.879,-0.201,-0.385,-1.25,3.66,8.12,1785104669430.06
-0.879,-0.211,-0.381,-0.85,3.88,8.15,1785104669430.461
-0.881,-0.224,-0.38,0.85,4.0,7.97,1785104669430.8638
-0.884,-0.227,-0.381,3.33,3.91,7.93,1785104669431.297
-0.886,-0.223,-0.385,5.46,4.03,8.0,1785104669431.7817
-0.888,-0.219,-0.384,6.9,4.15,7.87,1785104669432.25
-0.887,-0.215,-0.377,7.32,4.18,7.93,1785104669432.5981
-0.883,-0.213,-0.375,6.99,4.18,8.0,1785104669432.933
-0.884,-0.214,-0.372,6.32,3.97,7.9,1785104669433.271
-0.882,-0.216,-0.367,5.34,3.97,7.66,1785104669433.6108
-0.881,-0.218,-0.365,4.79,3.85,7.23,1785104669433.946
-0.884,-0.218,-0.359,4.43,3.54,6.78,1785104669434.2751
-0.885,-0.216,-0.357,4.09,3.17,6.53,1785104669434.612
-0.887,-0.218,-0.353,3.45,2.96,6.1,1785104669434.946
-0.888,-0.218,-0.35,2.96,2.75,5.62,1785104669435.277
-0.885,-0.22,-0.35,2.81,2.47,5.1,1785104669435.617
-0.888,-0.224,-0.349,3.08,2.08,4.21,1785104669435.953
-0.888,-0.225,-0.349,3.54,1.5,3.75,1785104669436.284
-0.886,-0.223,-0.345,4.24,0.89,3.42,1785104669436.623
-0.885,-0.219,-0.349,4.73,0.31,2.81,1785104669436.959
-0.883,-0.213,-0.355,4.55,-0.03,2.17,1785104669437.302
-0.88,-0.211,-0.36,3.42,-0.21,1.74,1785104669437.6353
-0.881,-0.212,-0.36,2.23,-0.27,1.4,1785104669437.971
-0.883,-0.213,-0.365,1.43,-0.34,0.95,1785104669438.3108
-0.883,-0.214,-0.368,0.73,-0.55,0.46,1785104669438.647
-0.882,-0.214,-0.369,0.31,-0.85,0.46,1785104669439.035
-0.883,-0.217,-0.372,0.09,-1.07,0.4,1785104669439.411
-0.882,-0.213,-0.378,0.06,-1.34,0.12,1785104669439.7532
-0.881,-0.209,-0.384,-0.4,-1.5,0.06,1785104669440.068
-0.877,-0.203,-0.39,-1.74,-1.37,0.21,1785104669440.358
-0.874,-0.196,-0.393,-3.45,-1.1,0.15,1785104669440.64
-0.875,-0.196,-0.398,-5.28,-0.73,-0.18,1785104669440.9202
-0.877,-0.2,-0.401,-7.23,-0.31,-0.55,1785104669441.208
-0.879,-0.208,-0.402,-8.85,0.21,-0.95,1785104669441.496
-0.881,-0.213,-0.399,-9.43,0.46,-1.19,1785104669441.7842
-0.881,-0.211,-0.401,-9.03,0.46,-0.95,1785104669442.063
-0.884,-0.208,-0.4,-7.87,0.21,-0.58,1785104669442.3628
-0.883,-0.209,-0.398,-6.56,-0.12,-0.4,1785104669442.6692
-0.883,-0.205,-0.403,-6.01,0.0,-0.46,1785104669442.958
-0.88,-0.202,-0.408,-5.92,0.18,-0.15,1785104669443.243
-0.879,-0.199,-0.407,-6.01,0.46,-0.09,1785104669443.5288
-0.88,-0.199,-0.407,-6.1,0.98,-0.24,1785104669443.816
-0.879,-0.199,-0.404,-5.89,1.46,-0.27,1785104669444.094
-0.877,-0.197,-0.401,-5.43,1.65,-0.03,1785104669444.3782
-0.877,-0.198,-0.398,-4.52,1.74,0.18,1785104669444.6677
-0.878,-0.196,-0.393,-3.94,1.92,0.34,1785104669444.949
-0.876,-0.194,-0.394,-3.2,2.11,0.46,1785104669445.236
-0.876,-0.194,-0.394,-2.59,2.14,0.4,1785104669445.527
-0.876,-0.198,-0.393,-2.04,2.17,0.4,1785104669445.8298
-0.879,-0.197,-0.39,-1.4,2.04,0.76,1785104669446.115
-0.878,-0.195,-0.388,-1.19,1.8,0.92,1785104669446.406
-0.88,-0.194,-0.388,-1.43,1.68,1.1,1785104669446.696
-0.88,-0.191,-0.386,-1.43,1.68,1.1,1785104669446.9702
-0.88,-0.189,-0.38,-1.74,1.43,1.31,1785104669447.258
-0.879,-0.189,-0.378,-1.89,1.19,1.4,1785104669447.573
-0.879,-0.188,-0.383,-2.08,1.28,1.13,1785104669447.855
-0.884,-0.195,-0.387,-2.69,1.5,0.73,1785104669448.1301
-0.886,-0.197,-0.387,-3.11,1.68,0.52,1785104669448.4028
-0.886,-0.197,-0.384,-3.11,1.62,0.49,1785104669448.6558
-0.887,-0.197,-0.383,-2.78,1.37,0.49,1785104669448.9321
-0.883,-0.195,-0.38,-2.69,0.98,0.43,1785104669449.1921
-0.881,-0.193,-0.38,-2.62,0.92,0.34,1785104669449.444
-0.881,-0.191,-0.38,-3.14,0.73,0.15,1785104669449.6902
-0.876,-0.191,-0.377,-3.88,0.61,0.06,1785104669449.939
-0.876,-0.191,-0.377,-4.27,0.4,0.0,1785104669450.188
-0.876,-0.187,-0.378,-4.58,0.06,-0.21,1785104669450.435
-0.876,-0.184,-0.38,-5.28,-0.21,-0.27,1785104669450.688
-0.88,-0.184,-0.386,-6.16,-0.4,-0.43,1785104669450.948
-0.881,-0.184,-0.386,-7.42,-0.55,-0.46,1785104669451.204
-0.88,-0.186,-0.381,-8.76,-0.55,-0.43,1785104669451.4592
-0.88,-0.188,-0.382,-9.58,-0.73,-0.58,1785104669451.766
-0.88,-0.186,-0.385,-10.38,-0.76,-0.31,1785104669452.0488
-0.882,-0.187,-0.386,-11.17,-0.7,-0.21,1785104669452.307
-0.88,-0.186,-0.384,-11.9,-0.64,-0.34,1785104669452.5881
-0.875,-0.187,-0.385,-12.45,-0.58,-0.24,1785104669452.8599
-0.876,-0.192,-0.383,-12.6,-0.64,-0.37,1785104669453.1208
-0.877,-0.193,-0.381,-12.36,-0.89,-0.61,1785104669453.3708
-0.875,-0.192,-0.381,-12.02,-1.04,-0.58,1785104669453.6628
-0.875,-0.193,-0.387,-11.44,-1.31,-0.85,1785104669453.919
-0.88,-0.189,-0.389,-10.93,-1.31,-1.43,1785104669454.1702
-0.88,-0.189,-0.39,-10.83,-1.46,-1.56,1785104669454.434
-0.878,-0.189,-0.389,-10.99,-1.53,-1.74,1785104669454.7
-0.88,-0.187,-0.39,-10.96,-1.4,-1.68,1785104669454.955
-0.88,-0.187,-0.389,-10.83,-1.43,-1.74,1785104669455.209
-0.88,-0.187,-0.39,-10.56,-1.53,-1.86,1785104669455.4722
-0.879,-0.184,-0.391,-10.44,-1.59,-1.71,1785104669455.736
-0.878,-0.184,-0.391,-10.38,-1.43,-1.65,1785104669455.98
-0.875,-0.188,-0.392,-10.35,-1.16,-1.68,1785104669456.239
-0.874,-0.187,-0.396,-10.35,-0.98,-1.89,1785104669456.479
-0.874,-0.184,-0.396,-10.25,-0.82,-1.83,1785104669456.713
-0.874,-0.182,-0.396,-9.83,-0.79,-1.77,1785104669456.9468
-0.875,-0.181,-0.398,-9.67,-0.58,-2.08,1785104669457.18
-0.876,-0.179,-0.401,-10.07,-0.18,-2.38,1785104669457.4158
-0.874,-0.182,-0.398,-10.47,0.18,-2.59,1785104669457.645
-0.872,-0.184,-0.398,-10.35,0.4,-2.9,1785104669457.8792
-0.873,-0.186,-0.395,-9.49,0.67,-3.05,1785104669458.119
-0.872,-0.183,-0.394,-8.76,0.82,-2.99,1785104669458.35
-0.873,-0.179,-0.395,-7.9,0.85,-3.23,1785104669458.585
-0.874,-0.177,-0.393,-7.35,0.89,-3.36,1785104669458.819
-0.873,-0.177,-0.393,-7.08,0.92,-3.48,1785104669459.046
-0.873,-0.177,-0.393,-6.81,1.04,-3.54,1785104669459.3
-0.876,-0.177,-0.392,-6.38,1.13,-3.63,1785104669459.5398
-0.88,-0.175,-0.388,-5.83,1.16,-3.72,1785104669459.779
-0.876,-0.173,-0.386,-5.07,1.01,-3.66,1785104669460.0088
-0.875,-0.169,-0.381,-4.76,0.98,-3.6,1785104669460.246
-0.876,-0.165,-0.382,-4.27,0.82,-3.81,1785104669460.489
-0.875,-0.169,-0.383,-3.97,0.98,-4.24,1785104669460.719
-0.879,-0.171,-0.383,-3.81,1.19,-4.7,1785104669460.958
-0.882,-0.168,-0.38,-3.69,1.07,-4.79,1785104669461.1929
-0.887,-0.166,-0.377,-3.45,0.85,-4.76,1785104669461.426
-0.887,-0.159,-0.379,-3.27,0.55,-4.58,1785104669461.6692
-0.888,-0.156,-0.381,-3.45,0.27,-4.52,1785104669461.8982
-0.892,-0.154,-0.382,-3.91,-0.06,-4.58,1785104669462.124
-0.895,-0.154,-0.383,-4.43,-0.34,-4.24,1785104669462.344
-0.896,-0.156,-0.384,-4.7,-0.82,-3.91,1785104669462.566
-0.897,-0.158,-0.389,-4.91,-0.98,-3.85,1785104669462.805
-0.896,-0.156,-0.395,-5.19,-1.07,-3.57,1785104669463.0288
-0.896,-0.157,-0.398,-5.34,-1.34,-3.02,1785104669463.2478
-0.893,-0.156,-0.402,-5.31,-1.62,-2.66,1785104669463.469
-0.888,-0.152,-0.403,-5.46,-1.74,-2.29,1785104669463.7173
-0.884,-0.151,-0.407,-5.22,-1.89,-1.98,1785104669463.9392
-0.881,-0.155,-0.41,-5.25,-1.74,-1.65,1785104669464.16
-0.877,-0.157,-0.408,-5.43,-1.56,-1.46,1785104669464.376
-0.874,-0.157,-0.407,-5.28,-1.34,-1.25,1785104669464.589
-0.872,-0.157,-0.409,-4.91,-1.31,-0.85,1785104669464.808
-0.872,-0.156,-0.41,-4.64,-1.19,-0.27,1785104669465.035
-0.87,-0.155,-0.413,-4.39,-1.13,0.46,1785104669465.2458
-0.868,-0.156,-0.413,-4.12,-1.22,0.89,1785104669465.466
-0.865,-0.159,-0.413,-4.24,-0.95,1.71,1785104669465.7122
-0.87,-0.162,-0.414,-4.39,-0.58,2.26,1785104669465.921
-0.876,-0.165,-0.414,-4.52,-0.46,2.81,1785104669466.1372
-0.885,-0.165,-0.416,-4.55,-0.43,3.33,1785104669466.351
-0.887,-0.162,-0.417,-4.67,-0.31,3.78,1785104669466.5652
-0.891,-0.163,-0.421,-4.73,-0.34,4.12,1785104669466.774
-0.894,-0.164,-0.422,-5.1,-0.21,4.21,1785104669466.995
-0.893,-0.169,-0.421,-5.58,-0.09,3.91,1785104669467.2131
-0.888,-0.175,-0.421,-5.74,0.0,3.39,1785104669467.425
-0.881,-0.178,-0.417,-5.43,0.03,3.02,1785104669467.666
-0.871,-0.177,-0.417,-4.58,0.15,2.23,1785104669467.875
-0.866,-0.181,-0.418,-3.48,0.15,1.25,1785104669468.076
-0.857,-0.178,-0.415,-2.93,0.21,0.24,1785104669468.279
-0.852,-0.173,-0.418,-2.44,0.37,-0.52,1785104669468.487
-0.85,-0.171,-0.418,-1.86,0.34,-1.01,1785104669468.69
-0.848,-0.169,-0.418,-1.89,0.43,-1.4,1785104669468.8918
-0.842,-0.171,-0.415,-2.35,0.7,-1.71,1785104669469.103
-0.838,-0.175,-0.416,-2.84,1.01,-1.68,1785104669469.307
-0.834,-0.175,-0.414,-2.59,1.5,-1.62,1785104669469.5042
-0.83,-0.176,-0.41,-2.41,1.77,-1.43,1785104669469.7039
-0.829,-0.178,-0.407,-2.04,2.08,-1.13,1785104669469.92
-0.835,-0.178,-0.406,-1.1,2.2,-0.67,1785104669470.119
-0.847,-0.177,-0.405,-0.43,2.53,-0.12,1785104669470.326
-0.858,-0.181,-0.406,0.06,2.81,0.46,1785104669470.5378
-0.868,-0.182,-0.408,0.49,3.08,1.04,1785104669470.764
-0.878,-0.184,-0.406,0.98,3.2,1.83,1785104669470.973
-0.887,-0.185,-0.401,1.65,3.23,2.29,1785104669471.1921
-0.892,-0.186,-0.404,2.17,3.23,2.72,1785104669471.416
-0.898,-0.185,-0.401,2.2,3.2,3.2,1785104669471.649
-0.904,-0.185,-0.399,2.04,3.08,3.27,1785104669471.8772
-0.912,-0.186,-0.396,1.86,3.08,3.05,1785104669472.09
-0.917,-0.184,-0.392,1.46,2.99,2.75,1785104669472.295
-0.924,-0.182,-0.388,0.92,2.78,2.2,1785104669472.5
-0.932,-0.175,-0.383,-0.31,2.62,1.37,1785104669472.701
-0.937,-0.171,-0.379,-1.86,2.29,0.67,1785104669472.904
-0.94,-0.169,-0.37,-4.97,1.28,-1.31,1785104669473.3079
-0.935,-0.171,-0.362,-6.29,0.76,-2.29,1785104669473.509
-0.885,-0.103,-0.418,31.5,4.36,39.09,1785104669473.908
-0.9,-0.089,-0.403,32.23,4.55,40.13,1785104669474.112
-0.911,-0.078,-0.379,32.32,4.67,41.6,1785104669474.318
-0.908,-0.091,-0.376,32.62,4.43,41.6,1785104669478.218
-0.911,-0.116,-0.382,32.53,4.97,39.77,1785104669488.8142
-0.918,-0.125,-0.38,32.35,5.49,38.51,1785104669499.368
-0.914,-0.129,-0.391,33.78,5.83,37.78,1785104669512.6309
-0.912,-0.133,-0.422,37.6,6.41,35.92,1785104669518.2952
-0.91,-0.137,-0.458,43.24,7.48,33.72,1785104669528.7979
-0.904,-0.132,-0.485,51.03,8.61,31.62,1785104669539.376
-0.89,-0.115,-0.502,59.91,10.04,30.15,1785104669552.64
-0.873,-0.102,-0.537,69.12,12.15,29.02,1785104669558.389
-0.856,-0.089,-0.583,78.28,15.26,29.05,1785104669569.147
-0.845,-0.077,-0.629,87.56,19.75,28.6,1785104669582.34
-0.843,-0.07,-0.671,96.96,25.09,27.71,1785104669588.241
-0.853,-0.068,-0.696,106.78,30.55,27.47,1785104669598.9648
-0.869,-0.082,-0.709,117.16,35.52,27.59,1785104669612.116
-0.887,-0.119,-0.729,130.01,39.4,28.08,1785104669618.031
-0.894,-0.165,-0.767,145.48,42.21,28.23,1785104669628.908
-0.884,-0.19,-0.839,162.11,44.77,27.25,1785104669642.315
-0.882,-0.179,-0.921,176.46,47.94,25.12,1785104669648.4612
-0.884,-0.145,-0.975,183.2,51.85,22.03,1785104669659.0688
-0.884,-0.145,-0.975,181.1,57.65,17.94,1785104669672.3188
-0.886,-0.137,-1.01,171.61,65.58,12.45,1785104669678.221
-0.894,-0.161,-1.026,158.3,73.76,6.2,1785104669688.904
-0.893,-0.206,-1.026,145.02,81.03,1.01,1785104669699.5671
-0.873,-0.236,-1.014,133.49,87.53,-2.9,1785104669712.594
-0.858,-0.252,-1.025,133.49,87.53,-2.9,1785104669718.735
-0.851,-0.254,-1.043,121.86,94.33,-5.74,1785104669729.247
-0.857,-0.257,-1.046,111.61,101.32,-6.47,1785104669742.532
-0.87,-0.259,-1.021,104.13,107.76,-6.41,1785104669748.492
-0.869,-0.288,-0.978,98.91,112.74,-5.19,1785104669759.155
-0.88,-0.343,-0.942,96.8,117.13,-3.51,1785104669772.394
-0.881,-0.415,-0.894,101.41,119.63,-1.83,1785104669778.357
-0.869,-0.437,-0.831,110.42,120.24,-1.5,1785104669789.011
-0.873,-0.432,-0.781,122.2,122.01,-1.46,1785104669802.279
-0.879,-0.47,-0.747,133.37,122.68,-0.7,1785104669808.196
-0.86,-0.507,-0.761,139.29,124.58,-1.62,1785104669819.0022
-0.87,-0.515,-0.816,138.71,128.76,-5.8,1785104669832.3518
-0.912,-0.587,-0.817,136.97,132.94,-5.46,1785104669838.297
-0.954,-0.62,-0.746,143.8,133.67,-8.48,1785104669848.9421
-0.946,-0.613,-0.711,159.73,129.55,-11.47,1785104669862.2139
-0.955,-0.559,-0.69,172.89,124.88,-14.74,1785104669868.276
-0.944,-0.519,-0.707,177.34,120.21,-19.35,1785104669879.209
-0.906,-0.511,-0.716,169.9,118.32,-25.21,1785104669892.17
-0.895,-0.531,-0.695,155.95,118.44,-34.18,1785104669898.4019
-0.896,-0.534,-0.677,137.97,118.81,-43.79,1785104669909.5837
-0.875,-0.548,-0.653,115.91,118.72,-47.98,1785104669922.7341
-0.865,-0.532,-0.64,96.44,119.75,-53.47,1785104669928.621
-0.864,-0.543,-0.625,81.55,120.58,-59.05,1785104669939.5198
-0.828,-0.596,-0.598,72.33,119.45,-62.44,1785104669952.781
-0.792,-0.63,-0.604,69.64,117.31,-65.28,1785104669958.647
-0.761,-0.593,-0.616,67.45,115.36,-65.89,1785104669969.52
-0.711,-0.569,-0.625,64.27,114.41,-64.21,1785104669982.6821
-0.661,-0.564,-0.623,61.59,113.86,-62.9,1785104669988.675
-0.632,-0.557,-0.617,59.82,112.46,-62.01,1785104669999.4558
-0.603,-0.571,-0.629,57.56,110.97,-61.01,1785104670012.647
-0.58,-0.586,-0.642,55.54,109.87,-59.3,1785104670018.808
-0.567,-0.589,-0.654,55.02,107.97,-56.83,1785104670029.362
-0.537,-0.59,-0.671,54.69,105.96,-55.02,1785104670042.639
-0.512,-0.582,-0.669,53.38,104.68,-53.87,1785104670048.5261
-0.517,-0.577,-0.657,51.33,103.82,-53.22,1785104670059.342
-0.511,-0.59,-0.651,48.8,102.57,-51.97,1785104670072.625
-0.492,-0.612,-0.639,47.79,101.5,-49.87,1785104670078.529
-0.488,-0.615,-0.627,49.84,100.56,-49.1,1785104670089.3162
-0.478,-0.589,-0.619,51.21,99.0,-48.74,1785104670102.68
-0.45,-0.559,-0.589,49.44,97.78,-47.61,1785104670108.4768
-0.441,-0.551,-0.553,46.78,96.62,-47.98,1785104670119.092
-0.431,-0.541,-0.515,45.05,95.52,-46.91,1785104670129.646
-0.39,-0.555,-0.465,47.36,92.78,-43.21,1785104670142.935
-0.373,-0.548,-0.41,52.8,89.24,-41.54,1785104670148.8098
-0.361,-0.539,-0.355,58.11,84.87,-38.27,1785104670159.3389
-0.327,-0.528,-0.286,65.03,78.8,-33.39,1785104670172.659
-0.286,-0.505,-0.268,72.79,71.5,-29.24,1785104670179.565
-0.245,-0.448,-0.3,74.31,64.21,-25.18,1785104670189.117
-0.201,-0.446,-0.326,66.96,59.51,-21.3,1785104670202.4
-0.168,-0.491,-0.33,50.45,56.89,-18.92,1785104670208.28
-0.199,-0.526,-0.309,30.18,55.79,-16.66,1785104670218.8953
-0.219,-0.615,-0.229,16.42,53.93,-11.05,1785104670229.37
-0.177,-0.651,-0.172,5.86,47.18,-9.19,1785104670242.6482
-0.199,-0.709,-0.066,-2.2,43.12,-7.17,1785104670248.4731
-0.192,-0.788,-0.015,-0.27,36.74,-5.89,1785104670258.587
-0.198,-0.822,0.011,5.31,29.57,-6.99,1785104670269.156
-0.221,-0.861,0.041,14.89,21.82,-8.76,1785104670279.5781
-0.221,-0.883,0.042,25.94,12.76,-12.3,1785104670292.8389
-0.194,-0.879,0.028,34.58,3.91,-15.69,1785104670298.736
-0.164,-0.859,0.002,37.23,-4.55,-18.86,1785104670309.189
-0.141,-0.851,-0.036,33.05,-11.11,-22.49,1785104670322.3948
-0.127,-0.866,-0.049,24.2,-16.21,-25.67,1785104670328.296
-0.127,-0.888,-0.041,13.43,-20.87,-28.5,1785104670338.8281
-0.143,-0.916,-0.041,5.19,-26.15,-31.95,1785104670349.395
-0.171,-0.929,-0.036,-1.22,-31.92,-35.46,1785104670362.653
-0.174,-0.931,-0.033,-7.45,-38.33,-38.85,1785104670368.671
-0.176,-0.953,-0.046,-12.94,-44.74,-42.91,1785104670378.8958
-0.183,-0.97,-0.083,-18.8,-51.18,-48.55,1785104670389.578
-0.183,-0.956,-0.138,-25.09,-57.37,-54.05,1785104670402.867
-0.193,-0.927,-0.201,-34.88,-61.68,-58.78,1785104670408.738
-0.203,-0.912,-0.249,-47.79,-63.91,-63.75,1785104670419.357
-0.195,-0.916,-0.256,-60.73,-65.52,-68.54,1785104670432.638
-0.201,-0.94,-0.246,-70.07,-67.29,-72.39,1785104670438.504
-0.209,-0.952,-0.267,-74.77,-70.16,-75.96,1785104670449.0317
-0.234,-0.933,-0.273,-75.72,-72.94,-79.32,1785104670459.755
-0.256,-0.908,-0.275,-74.86,-76.33,-81.73,1785104670472.944
-0.258,-0.888,-0.303,-72.12,-79.38,-84.05,1785104670478.781
-0.273,-0.878,-0.327,-66.68,-81.06,-85.82,1785104670489.791
-0.291,-0.882,-0.335,-59.11,-82.92,-86.79,1785104670502.6628
-0.303,-0.888,-0.361,-48.98,-86.0,-87.25,1785104670508.508
-0.303,-0.881,-0.392,-36.32,-89.57,-86.58,1785104670519.1492
-0.309,-0.851,-0.433,-22.0,-93.17,-85.67,1785104670532.344
-0.308,-0.814,-0.489,-8.09,-96.74,-85.15,1785104670538.264
-0.311,-0.772,-0.532,1.62,-99.43,-84.81,1785104670548.527
-0.3,-0.71,-0.57,5.04,-99.43,-84.05,1785104670559.126
-0.289,-0.683,-0.612,4.03,-98.54,-83.01,1785104670572.407
-0.268,-0.715,-0.618,-0.12,-96.9,-81.33,1785104670578.258
-0.321,-0.735,-0.595,-4.55,-94.88,-81.48,1785104670588.5762
-0.386,-0.772,-0.547,-6.87,-97.02,-81.58,1785104670599.1318
-0.396,-0.801,-0.506,-4.21,-100.25,-84.63,1785104670612.35
-0.379,-0.79,-0.549,8.79,-104.59,-92.07,1785104670618.4011
-0.365,-0.722,-0.635,23.01,-107.76,-97.72,1785104670628.8892
-0.375,-0.627,-0.735,26.09,-107.64,-99.52,1785104670639.628
-0.345,-0.544,-0.795,13.89,-106.88,-97.11,1785104670652.952
-0.27,-0.502,-0.838,-6.5,-107.03,-92.96,1785104670658.903
-0.263,-0.516,-0.82,-29.6,-104.4,-91.53,1785104670669.5208
-0.296,-0.541,-0.723,-53.38,-102.15,-92.65,1785104670682.7468
-0.3,-0.566,-0.667,-66.77,-102.63,-93.26,1785104670688.704
-0.306,-0.593,-0.645,-71.72,-103.24,-93.91,1785104670699.473
-0.315,-0.651,-0.621,-73.55,-102.54,-94.7,1785104670712.7302
-0.339,-0.698,-0.558,-69.12,-101.63,-96.07,1785104670718.392
-0.353,-0.714,-0.547,-55.24,-103.55,-97.02,1785104670729.4663
-0.34,-0.712,-0.572,-38.0,-105.75,-97.66,1785104670742.719
-0.314,-0.665,-0.631,-22.8,-107.85,-97.93,1785104670748.6248
-0.306,-0.62,-0.707,-13.49,-109.26,-97.45,1785104670759.4602
-0.305,-0.598,-0.756,-11.54,-108.37,-97.23,1785104670772.632
-0.323,-0.647,-0.74,-14.4,-106.23,-96.38,1785104670778.6072
-0.345,-0.696,-0.676,-15.96,-105.17,-96.13,1785104670789.4148
-0.32,-0.691,-0.658,-11.81,-108.22,-96.04,1785104670802.619
-0.307,-0.67,-0.709,-6.32,-111.36,-96.68,1785104670808.5261
-0.298,-0.663,-0.752,-6.44,-112.03,-98.03,1785104670819.249
-0.301,-0.687,-0.767,-11.17,-110.51,-98.76,1785104670832.4658
-0.337,-0.693,-0.767,-16.54,-109.1,-100.07,1785104670838.352
-0.346,-0.688,-0.742,-20.17,-109.1,-102.3,1785104670849.3271
-0.35,-0.675,-0.735,-21.0,-109.47,-105.01,1785104670862.645
-0.385,-0.651,-0.688,-19.87,-109.93,-106.6,1785104670868.57
-0.378,-0.679,-0.656,-19.38,-111.85,-107.21,1785104670879.5369
-0.4,-0.745,-0.671,-18.8,-113.56,-110.75,1785104670892.612
-0.417,-0.825,-0.69,-21.21,-115.15,-117.71,1785104670898.756
-0.365,-0.852,-0.758,-25.97,-117.31,-130.1,1785104670912.3499
-0.333,-0.735,-0.913,-27.86,-117.31,-142.09,1785104670918.283
-0.348,-0.675,-1.025,-35.77,-110.39,-149.24,1785104670929.18
-0.379,-0.731,-0.944,-48.95,-99.83,-152.78,1785104670942.455
-0.403,-0.735,-0.774,-48.1,-94.97,-155.03,1785104670948.354
-0.403,-0.735,-0.774,-34.0,-97.17,-148.84,1785104670959.1592
-0.432,-0.73,-0.611,-6.96,-104.37,-148.72,1785104670972.44
-0.402,-0.644,-0.605,10.41,-110.05,-140.72,1785104670978.375
-0.339,-0.595,-0.638,21.3,-112.22,-133.88,1785104670989.299
-0.292,-0.586,-0.743,25.24,-111.21,-127.14,1785104671002.6428
-0.297,-0.594,-0.791,25.24,-111.21,-127.14,1785104671008.522
-0.35,-0.592,-0.75,27.8,-110.57,-126.9,1785104671019.6963
-0.289,-0.6,-0.737,30.98,-114.05,-128.57,1785104671032.804
-0.319,-0.513,-0.799,34.0,-117.77,-125.64,1785104671038.789
-0.301,-0.45,-0.838,30.3,-120.55,-121.01,1785104671052.333
-0.275,-0.479,-0.818,16.51,-120.37,-116.06,1785104671058.1418
-0.292,-0.535,-0.754,2.96,-119.48,-113.96,1785104671069.186
-0.288,-0.569,-0.732,-3.54,-120.67,-111.73,1785104671082.4312
-0.281,-0.57,-0.745,-7.75,-122.5,-108.8,1785104671088.354
-0.259,-0.511,-0.745,-10.59,-123.26,-104.74,1785104671099.252
-0.241,-0.455,-0.802,-10.5,-123.75,-100.04,1785104671112.3708
-0.217,-0.502,-0.834,-12.94,-122.93,-96.44,1785104671118.4841
-0.206,-0.566,-0.82,-16.75,-122.14,-93.02,1785104671129.152
-0.221,-0.548,-0.851,-14.44,-122.62,-88.5,1785104671142.452
-0.238,-0.528,-0.848,-14.16,-122.2,-84.87,1785104671148.3518
-0.233,-0.537,-0.836,-15.08,-121.37,-81.27,1785104671159.141
-0.256,-0.513,-0.849,-13.79,-120.67,-78.37,1785104671172.206
-0.249,-0.501,-0.861,-13.52,-120.33,-76.72,1785104671178.298
-0.252,-0.526,-0.866,-17.43,-118.99,-77.52,1785104671189.113
-0.273,-0.555,-0.883,-23.96,-117.65,-80.23,1785104671202.412
-0.302,-0.535,-0.883,-30.09,-116.4,-82.83,1785104671208.263
-0.315,-0.479,-0.866,-38.48,-115.67,-86.06,1785104671219.1912
-0.327,-0.427,-0.861,-51.85,-114.75,-89.79,1785104671232.366
-0.356,-0.383,-0.892,-68.45,-113.07,-95.19,1785104671238.383
-0.331,-0.32,-0.975,-87.22,-111.0,-101.29,1785104671249.185
-0.301,-0.291,-1.032,-104.25,-105.01,-106.94,1785104671262.3857
-0.32,-0.312,-1.001,-118.78,-95.89,-111.3,1785104671268.5598
-0.347,-0.354,-0.91,-127.66,-87.59,-112.03,1785104671279.542
-0.35,-0.402,-0.81,-123.23,-82.4,-110.17,1785104671292.688
-0.363,-0.414,-0.774,-105.08,-80.29,-106.97,1785104671298.613
-0.377,-0.383,-0.78,-80.08,-78.95,-101.23,1785104671309.587
-0.356,-0.344,-0.798,-55.3,-78.86,-94.33,1785104671322.8538
-0.338,-0.301,-0.831,-34.0,-79.5,-88.78,1785104671328.7139
-0.33,-0.256,-0.852,-19.47,-79.65,-83.25,1785104671339.284
-0.316,-0.219,-0.861,-13.03,-79.56,-78.95,1785104671352.839
-0.317,-0.156,-0.85,-13.61,-78.95,-75.75,1785104671358.1729
-0.326,-0.115,-0.857,-20.33,-79.2,-72.39,1785104671369.1133
-0.337,-0.107,-0.846,-30.95,-78.25,-70.04,1785104671379.658
-0.352,-0.116,-0.799,-43.34,-76.85,-67.81,1785104671392.883
-0.367,-0.17,-0.738,-54.05,-75.72,-65.98,1785104671398.81
-0.425,-0.257,-0.648,-57.56,-74.89,-64.82,1785104671409.3398
-0.461,-0.311,-0.561,-49.29,-77.43,-61.86,1785104671422.647
-0.433,-0.26,-0.551,-31.92,-83.65,-54.11,1785104671428.4858
-0.388,-0.148,-0.605,-14.92,-89.36,-44.5,1785104671439.057
-0.343,-0.008,-0.641,-6.04,-91.8,-35.52,1785104671449.6052
-0.297,0.159,-0.682,-8.79,-92.32,-22.68,1785104671462.8347
-0.246,0.301,-0.753,-24.78,-90.82,-6.44,1785104671468.8792
-0.245,0.285,-0.81,-48.34,-88.17,5.65,1785104671479.0442
-0.298,0.155,-0.798,-69.0,-85.12,17.33,1785104671489.6619
-0.369,-0.009,-0.73,-79.41,-86.73,28.81,1785104671502.963
-0.362,-0.124,-0.853,-69.92,-94.67,38.7,1785104671508.863
-0.389,-0.032,-0.987,-50.78,-100.92,46.21,1785104671519.567
-0.345,0.014,-1.099,-39.34,-100.74,52.25,1785104671532.774
-0.357,0.024,-1.168,-34.09,-95.34,54.66,1785104671538.7212
-0.38,0.019,-1.207,-27.95,-89.42,56.61,1785104671549.258
-0.393,0.051,-1.28,-19.53,-84.14,59.42,1785104671562.483
-0.431,0.08,-1.309,-17.98,-76.82,62.99,1785104671568.5928
-0.474,0.074,-1.253,-21.58,-69.03,68.18,1785104671578.9658
-0.499,0.02,-1.17,-22.37,-62.93,73.4,1785104671589.598
-0.535,-0.055,-1.113,-17.91,-58.75,76.85,1785104671602.865
-0.58,-0.135,-1.052,-7.9,-54.63,78.31,1785104671608.738
-0.625,-0.242,-0.998,8.58,-51.79,78.19,1785104671619.165
-0.68,-0.356,-0.937,29.88,-50.29,76.91,1785104671632.3618
-0.668,-0.411,-0.885,59.11,-50.05,76.39,1785104671638.282
-0.63,-0.363,-0.869,90.7,-50.11,75.05,1785104671648.839
-0.68,-0.25,-0.786,108.43,-47.0,71.54,1785104671659.551
-0.683,-0.174,-0.715,109.9,-44.62,70.16,1785104671672.853
-0.686,-0.181,-0.673,98.09,-42.05,68.27,1785104671678.778
-0.697,-0.263,-0.655,78.1,-39.61,65.34,1785104671689.332
-0.721,-0.377,-0.635,56.22,-36.29,60.49,1785104671702.5862
-0.743,-0.538,-0.571,44.74,-35.22,54.41,1785104671708.489
-0.762,-0.653,-0.541,51.76,-39.19,48.55,1785104671719.07
-0.772,-0.694,-0.52,69.77,-45.99,45.08,1785104671732.304
-0.803,-0.745,-0.442,90.21,-52.19,40.25,1785104671738.307
-0.849,-0.803,-0.367,113.99,-59.36,35.65,1785104671748.859
-0.861,-0.831,-0.347,141.7,-66.65,36.07,1785104671759.861
-0.785,-0.751,-0.478,174.32,-69.43,41.51,1785104671772.7812
-0.674,-0.552,-0.713,195.44,-63.05,46.6,1785104671778.473
-0.626,-0.409,-0.817,186.53,-48.89,47.64,1785104671789.691
-0.62,-0.437,-0.687,154.27,-32.84,45.59,1785104671802.587
-0.615,-0.586,-0.489,129.46,-21.24,43.52,1785104671808.363
-0.648,-0.73,-0.346,128.09,-18.43,41.51,1785104671819.641
-0.7,-0.821,-0.34,146.12,-23.5,42.36,1785104671832.8618
-0.712,-0.851,-0.389,171.39,-30.46,48.52,1785104671838.888
-0.685,-0.834,-0.475,195.32,-35.28,57.47,1785104671849.552
-0.638,-0.703,-0.58,208.08,-32.93,66.16,1785104671862.8372
-0.6,-0.515,-0.667,201.45,-25.42,71.72,1785104671868.761
-0.58,-0.398,-0.674,173.47,-14.07,71.93,1785104671879.252
-0.583,-0.402,-0.582,134.56,-1.22,68.82,1785104671892.812
-0.621,-0.498,-0.441,99.86,7.51,64.58,1785104671898.711
-0.692,-0.611,-0.365,77.88,10.04,62.72,1785104671909.157
-0.759,-0.689,-0.346,64.55,8.12,65.98,1785104671919.7769
-0.771,-0.77,-0.327,55.51,4.49,75.23,1785104671932.605
-0.734,-0.839,-0.285,50.17,2.35,85.24,1785104671938.784
-0.722,-0.85,-0.282,50.05,3.42,88.96,1785104671949.1572
-0.742,-0.838,-0.337,50.81,2.17,88.84,1785104671959.6328
-0.741,-0.808,-0.404,50.54,-1.13,86.86,1785104671972.9111
-0.741,-0.79,-0.449,51.7,-2.01,82.86,1785104671978.8318
-0.768,-0.771,-0.463,50.6,-1.77,76.14,1785104671989.066
-0.806,-0.756,-0.469,46.3,-2.53,69.8,1785104671999.6182
-0.834,-0.747,-0.438,37.63,-3.97,65.71,1785104672012.887
-0.823,-0.709,-0.391,24.54,-4.49,64.82,1785104672018.954
-0.823,-0.702,-0.444,12.97,3.3,62.11,1785104672029.0789
-0.889,-0.728,-0.506,-3.48,7.39,54.51,1785104672039.5862
-0.901,-0.733,-0.497,-18.28,10.25,53.22,1785104672052.8389
-0.879,-0.708,-0.43,-23.22,11.54,56.15,1785104672058.6738
-0.841,-0.657,-0.329,-24.08,11.75,62.53,1785104672069.3481
-0.804,-0.577,-0.303,-20.69,8.82,66.65,1785104672082.5212
-0.779,-0.491,-0.292,-25.12,7.81,67.57,1785104672088.5242
-0.788,-0.481,-0.263,-32.9,8.58,69.12,1785104672098.6821
-0.805,-0.505,-0.256,-37.05,9.31,71.78,1785104672109.225
-0.812,-0.551,-0.286,-33.3,9.22,71.66,1785104672122.528
-0.833,-0.576,-0.3,-26.52,8.3,70.28,1785104672128.385
-0.843,-0.578,-0.277,-18.68,6.96,71.66,1785104672138.7031
-0.839,-0.59,-0.24,-8.58,5.46,73.52,1785104672149.168
-0.841,-0.6,-0.21,5.46,2.99,74.56,1785104672159.6182
-0.85,-0.601,-0.221,23.77,-0.24,75.87,1785104672172.685
-0.846,-0.579,-0.253,42.09,-3.08,77.79,1785104672178.805
-0.843,-0.538,-0.265,56.43,-5.22,78.98,1785104672189.0881
-0.842,-0.509,-0.288,65.58,-5.37,79.71,1785104672199.6328
-0.846,-0.499,-0.311,69.92,-3.88,80.05,1785104672212.873
-0.862,-0.506,-0.332,70.8,-1.46,79.62,1785104672218.959
-0.867,-0.515,-0.366,70.04,1.56,78.77,1785104672229.0361
-0.873,-0.545,-0.392,69.58,2.93,78.25,1785104672239.679
-0.873,-0.545,-0.392,72.7,2.56,78.31,1785104672253.196
-0.877,-0.578,-0.39,78.74,3.88,75.56,1785104672258.8633
-0.877,-0.588,-0.384,85.63,4.94,71.9,1785104672269.1672
-0.886,-0.629,-0.36,96.74,4.33,69.52,1785104672279.391
-0.883,-0.672,-0.353,96.74,4.33,69.52,1785104672292.643
-0.874,-0.648,-0.371,109.38,3.57,64.79,1785104672298.905
-0.864,-0.589,-0.403,115.7,4.18,59.72,1785104672309.268
-0.838,-0.534,-0.48,117.47,10.47,54.69,1785104672322.471
-0.833,-0.522,-0.504,115.15,17.03,45.81,1785104672328.435
-0.842,-0.476,-0.473,108.43,23.35,36.19,1785104672339.2388
-0.82,-0.459,-0.469,100.41,29.02,31.34,1785104672352.555
-0.816,-0.396,-0.465,88.66,33.72,24.48,1785104672358.367
-0.803,-0.37,-0.445,74.04,38.3,20.48,1785104672368.8682
-0.797,-0.349,-0.415,59.45,41.23,17.98,1785104672379.6501
-0.799,-0.341,-0.38,46.39,41.84,14.53,1785104672392.9182
-0.791,-0.369,-0.344,35.52,41.08,14.07,1785104672398.8708
-0.796,-0.372,-0.313,28.93,38.91,13.55,1785104672409.3928
-0.808,-0.339,-0.297,26.03,35.22,13.49,1785104672422.594
-0.816,-0.303,-0.292,22.71,30.7,15.11,1785104672428.334
-0.829,-0.296,-0.297,17.06,27.25,16.82,1785104672439.09
-0.85,-0.305,-0.302,10.07,25.7,16.72,1785104672449.667
-0.865,-0.324,-0.315,4.0,24.96,16.54,1785104672462.91
-0.873,-0.361,-0.332,0.55,24.48,15.84,1785104672468.947
-0.901,-0.44,-0.337,0.4,24.26,12.54,1785104672479.103
-0.949,-0.599,-0.297,7.48,24.41,6.96,1785104672489.6362
-0.986,-0.824,-0.237,29.08,24.48,0.18,1785104672502.933
-1.021,-0.993,-0.183,66.96,23.41,-8.0,1785104672508.827
-1.066,-1.028,-0.157,113.71,19.71,-17.46,1785104672519.338
-1.071,-0.975,-0.176,160.47,13.98,-28.5,1785104672532.554
-1.026,-0.887,-0.208,198.83,8.27,-38.42,1785104672538.521
-0.976,-0.78,-0.251,223.61,2.29,-46.27,1785104672549.101
-0.931,-0.658,-0.311,232.49,-3.02,-52.98,1785104672559.667
-0.886,-0.508,-0.389,222.75,-7.57,-58.26,1785104672572.9011
-0.856,-0.359,-0.435,193.49,-10.44,-60.21,1785104672578.8538
-0.816,-0.232,-0.466,149.69,-10.53,-60.88,1785104672599.6511
-0.786,-0.115,-0.48,94.24,-7.02,-63.02,1785104672602.657
-0.743,-0.051,-0.429,29.88,-0.61,-59.18,1785104672608.148
-0.712,-0.086,-0.379,-30.09,4.27,-54.08,1785104672618.697
-0.709,-0.147,-0.333,-78.13,7.17,-48.37,1785104672629.2732
-0.705,-0.165,-0.308,-109.44,7.78,-41.6,1785104672642.6958
-0.737,-0.09,-0.335,-133.12,9.92,-35.43,1785104672648.827
-0.774,-0.003,-0.399,-158.51,14.83,-28.11,1785104672659.358
-0.768,0.048,-0.461,-189.09,20.11,-19.9,1785104672672.5518
-0.753,0.085,-0.498,-221.2,22.77,-10.96,1785104672678.478
-0.75,0.066,-0.408,-247.57,22.74,-0.89,1785104672689.2039
-0.752,0.011,-0.22,-258.43,19.1,8.97,1785104672702.503
-0.746,-0.076,-0.131,-249.21,12.12,20.08,1785104672708.3608
-0.792,-0.185,-0.137,-224.52,4.58,27.71,1785104672719.036
-0.869,-0.29,-0.142,-186.93,-4.0,33.81,1785104672729.596
-0.91,-0.368,-0.163,-136.57,-14.95,41.08,1785104672742.952
-0.916,-0.368,-0.21,-81.39,-26.83,45.01,1785104672748.899
-0.911,-0.31,-0.278,-33.6,-36.07,46.6,1785104672759.465
-0.921,-0.272,-0.362,-1.53,-40.68,46.91,1785104672772.691
-0.929,-0.278,-0.438,13.61,-40.16,45.93,1785104672778.598
-0.917,-0.317,-0.504,18.28,-35.19,43.4,1785104672789.032
-0.915,-0.333,-0.528,17.09,-29.54,39.7,1785104672799.667
-0.924,-0.335,-0.54,11.63,-25.3,36.44,1785104672812.9421
-0.936,-0.346,-0.527,0.34,-20.54,33.23,1785104672818.845
-0.951,-0.396,-0.483,-11.75,-16.24,29.97,1785104672829.49
-0.968,-0.466,-0.433,-17.98,-14.74,27.86,1785104672842.587
-0.95,-0.519,-0.408,-13.37,-16.42,26.67,1785104672848.4722
-0.89,-0.518,-0.427,-2.75,-19.75,24.57,1785104672858.92
-0.828,-0.498,-0.456,6.29,-22.34,22.58,1785104672869.493
-0.785,-0.483,-0.477,11.81,-23.16,20.33,1785104672882.7488
-0.765,-0.462,-0.5,15.38,-22.92,17.64,1785104672888.8208
-0.755,-0.431,-0.522,16.6,-21.09,14.47,1785104672899.2751
-0.759,-0.399,-0.539,13.49,-18.01,11.32,1785104672912.544
-0.784,-0.369,-0.538,6.53,-14.16,8.21,1785104672918.382
-0.798,-0.348,-0.525,-2.59,-10.13,6.04,1785104672928.5278
-0.789,-0.344,-0.505,-11.23,-5.71,5.31,1785104672939.0159
-0.791,-0.338,-0.475,-17.18,-1.89,3.94,1785104672949.495
-0.807,-0.339,-0.439,-20.14,0.43,3.2,1785104672962.7468
-0.812,-0.333,-0.409,-20.05,1.46,3.66,1785104672968.663
-0.822,-0.312,-0.4,-17.61,1.43,4.18,1785104672978.719
-0.833,-0.283,-0.396,-15.5,0.7,4.12,1785104672989.147
-0.848,-0.249,-0.388,-15.38,0.34,4.21,1785104672999.595
-0.866,-0.227,-0.372,-16.42,0.09,4.58,1785104673012.871
-0.885,-0.211,-0.365,-17.79,-0.09,4.36,1785104673018.803
-0.902,-0.199,-0.373,-19.56,-0.27,3.05,1785104673028.786
-0.917,-0.198,-0.374,-21.24,-0.03,1.62,1785104673039.298
-0.924,-0.196,-0.369,-21.97,-0.09,0.52,1785104673052.562
-0.921,-0.19,-0.362,-21.82,-0.52,-0.4,1785104673058.311
-0.919,-0.182,-0.361,-21.49,-1.34,-1.43,1785104673068.5
-0.915,-0.173,-0.363,-21.67,-2.23,-2.14,1785104673078.8428
-0.912,-0.166,-0.368,-21.73,-2.9,-2.87,1785104673089.392
-0.91,-0.158,-0.378,-22.37,-3.08,-3.11,1785104673102.5679
-0.897,-0.147,-0.387,-23.47,-2.93,-2.44,1785104673108.085
-0.886,-0.15,-0.406,-24.41,-2.04,-1.83,1785104673118.686
-0.882,-0.151,-0.42,-26.76,-0.52,-1.19,1785104673129.02
-0.872,-0.14,-0.444,-30.43,1.43,-0.46,1785104673139.5369
-0.862,-0.094,-0.479,-38.21,4.82,-0.34,1785104673152.8152
-0.855,-0.064,-0.516,-51.94,8.88,-0.21,1785104673161.2559
-0.86,-0.079,-0.52,-70.31,12.88,-1.01,1785104673168.763
-0.867,-0.141,-0.466,-86.86,15.66,-2.04,1785104673179.348
-0.864,-0.226,-0.39,-92.62,15.93,-1.83,1785104673192.6
-0.862,-0.286,-0.342,-84.17,13.31,-1.43,1785104673198.7358
-0.859,-0.302,-0.327,-66.77,9.31,-1.25,1785104673208.688
-0.856,-0.291,-0.334,-45.96,4.94,-0.67,1785104673219.218
-0.853,-0.269,-0.354,-25.12,1.62,0.27,1785104673229.6008
-0.852,-0.252,-0.375,-5.68,-0.55,0.92,1785104673242.906
-0.855,-0.24,-0.398,11.17,-1.95,1.74,1785104673248.5781
-0.854,-0.228,-0.424,24.96,-2.35,3.3,1785104673258.6921
-0.85,-0.211,-0.44,36.38,-2.32,5.01,1785104673269.212
-0.853,-0.202,-0.448,45.9,-2.29,6.26,1785104673279.634
-0.853,-0.194,-0.459,53.35,-2.23,7.05,1785104673292.9358
-0.85,-0.186,-0.473,58.29,-1.98,7.81,1785104673298.7112
-0.85,-0.172,-0.487,59.88,-1.04,9.13,1785104673308.691
-0.851,-0.157,-0.494,58.26,0.12,10.25,1785104673319.55
-0.856,-0.153,-0.495,54.57,1.34,10.86,1785104673332.7073
-0.856,-0.151,-0.482,49.41,2.35,11.35,1785104673338.6482
-0.858,-0.152,-0.472,43.7,3.33,11.66,1785104673348.845
-0.86,-0.15,-0.465,37.32,4.3,12.09,1785104673359.5068
-0.862,-0.156,-0.456,30.43,5.07,12.02,1785104673372.641
-0.868,-0.174,-0.435,23.68,5.71,12.05,1785104673378.539
-0.872,-0.187,-0.41,18.74,5.65,11.78,1785104673388.8909
-0.875,-0.194,-0.39,15.87,5.01,11.66,1785104673399.4648
-0.873,-0.195,-0.384,14.13,4.33,10.74,1785104673412.718
-0.88,-0.198,-0.376,12.7,3.51,9.74,1785104673418.7031
-0.884,-0.203,-0.37,11.38,2.56,9.67,1785104673428.674
-0.877,-0.2,-0.362,10.1,1.65,9.77,1785104673439.1492
-0.872,-0.195,-0.362,9.19,0.95,9.52,1785104673449.4988
-0.871,-0.195,-0.358,7.48,0.52,9.43,1785104673462.771
-0.87,-0.198,-0.349,5.71,0.18,9.7,1785104673468.538
-0.878,-0.204,-0.35,5.19,-0.06,9.74,1785104673478.415
-0.881,-0.214,-0.352,5.58,-0.82,10.16,1785104673488.916
-0.88,-0.22,-0.355,7.42,-2.04,10.77,1785104673499.451
-0.88,-0.217,-0.355,10.38,-3.3,11.2,1785104673512.604
-0.875,-0.213,-0.362,13.09,-4.43,11.78,1785104673518.688
-0.875,-0.213,-0.362,14.77,-4.88,11.66,1785104673528.812
-0.873,-0.214,-0.372,15.78,-5.04,11.47,1785104673539.464
-0.873,-0.216,-0.377,17.12,-5.1,11.38,1785104673552.692
-0.869,-0.222,-0.384,19.01,-5.4,10.56,1785104673558.5862
-0.87,-0.224,-0.391,20.87,-5.52,9.49,1785104673569.0051
-0.88,-0.216,-0.404,20.87,-5.52,9.49,1785104673579.2761
-0.883,-0.206,-0.409,21.09,-5.34,8.76,1785104673589.7449
-0.876,-0.203,-0.417,20.29,-4.91,8.15,1785104673603.084
-0.877,-0.209,-0.43,19.62,-3.85,6.9,1785104673608.9768
-0.883,-0.206,-0.424,18.4,-3.14,5.62,1785104673618.924
-0.885,-0.194,-0.418,17.0,-2.41,4.58,1785104673629.332
-0.885,-0.197,-0.42,15.05,-1.46,3.75,1785104673642.69
-0.887,-0.202,-0.418,12.51,-0.34,2.78,1785104673648.4402
-0.892,-0.203,-0.405,10.93,0.46,2.26,1785104673658.546
-0.892,-0.201,-0.396,10.53,0.67,2.29,1785104673669.062
-0.888,-0.193,-0.394,9.19,0.73,2.35,1785104673679.343
-0.89,-0.185,-0.396,7.05,0.89,2.75,1785104673692.7048
-0.891,-0.182,-0.389,4.49,1.22,3.02,1785104673698.281
-0.888,-0.183,-0.382,2.01,1.04,3.36,1785104673708.363
-0.89,-0.179,-0.379,-0.95,0.98,3.48,1785104673718.6921
-0.892,-0.178,-0.375,-4.76,0.95,3.94,1785104673729.035
-0.889,-0.182,-0.366,-7.93,0.92,4.33,1785104673739.5442
-0.889,-0.189,-0.363,-9.55,0.76,4.46,1785104673752.722
-0.893,-0.19,-0.362,-10.32,0.46,4.24,1785104673758.543
-0.898,-0.195,-0.368,-9.7,0.24,4.09,1785104673768.49
-0.901,-0.193,-0.37,-8.27,-0.46,4.3,1785104673778.924
-0.906,-0.186,-0.372,-5.95,-1.43,5.01,1785104673789.7349
-0.907,-0.184,-0.379,-4.24,-2.47,5.52,1785104673799.605
-0.895,-0.172,-0.389,-3.81,-3.23,5.92,1785104673812.829
-0.895,-0.163,-0.402,-3.72,-3.14,5.83,1785104673818.476
-0.902,-0.164,-0.409,-5.62,-2.78,5.86,1785104673828.4531
-0.895,-0.177,-0.411,-8.48,-2.11,6.26,1785104673838.8591
-0.891,-0.18,-0.406,-10.25,-1.34,6.07,1785104673849.4248
-0.895,-0.183,-0.406,-10.04,-0.82,5.95,1785104673862.581
-0.897,-0.186,-0.411,-9.31,0.12,5.8,1785104673868.31
-0.896,-0.194,-0.414,-7.39,1.01,5.55,1785104673878.4111
-0.898,-0.204,-0.414,-3.94,1.62,5.16,1785104673888.559
-0.891,-0.206,-0.408,0.18,1.77,5.31,1785104673899.162
-0.883,-0.198,-0.407,4.73,1.25,4.97,1785104673909.5317
-0.876,-0.175,-0.412,8.24,0.82,4.12,1785104673922.828
-0.876,-0.156,-0.419,8.48,0.89,3.36,1785104673928.374
-0.876,-0.151,-0.423,5.52,1.53,2.5,1785104673938.435
-0.877,-0.156,-0.417,0.79,2.47,1.5,1785104673948.7969
-0.877,-0.162,-0.402,-3.33,2.96,0.89,1785104673959.1902
-0.878,-0.156,-0.382,-5.83,2.62,0.43,1785104673969.586
-0.871,-0.151,-0.381,-7.97,2.08,-0.21,1785104673982.781
-0.871,-0.153,-0.38,-10.5,2.17,-1.04,1785104673988.616
-0.871,-0.164,-0.373,-12.54,2.5,-1.56,1785104673998.7158
-0.87,-0.172,-0.367,-13.09,2.72,-1.77,1785104674009.17
-0.873,-0.179,-0.363,-11.32,2.81,-2.14,1785104674019.672
-0.872,-0.179,-0.358,-8.88,2.84,-2.5,1785104674032.9038
-0.863,-0.173,-0.355,-6.1,2.96,-2.53,1785104674038.598
-0.858,-0.171,-0.36,-3.23,2.9,-2.26,1785104674048.595
-0.869,-0.176,-0.365,-0.46,2.9,-2.01,1785104674058.924
-0.875,-0.183,-0.365,2.72,2.72,-1.53,1785104674069.3691
-0.865,-0.178,-0.366,6.32,2.32,-1.07,1785104674079.686
-0.858,-0.156,-0.373,8.73,1.98,-1.07,1785104674092.9531
-0.859,-0.131,-0.385,8.09,1.86,-1.56,1785104674098.816
-0.861,-0.122,-0.386,5.04,1.8,-1.62,1785104674108.646
-0.857,-0.128,-0.385,1.28,1.86,-1.25,1785104674119.1099
-0.846,-0.135,-0.387,-2.56,1.95,-1.19,1785104674129.418
-0.844,-0.143,-0.387,-5.52,2.11,-1.43,1785104674142.647
-0.85,-0.149,-0.388,-7.29,2.11,-1.53,1785104674148.298
-0.857,-0.147,-0.391,-8.39,1.77,-1.25,1785104674158.289
-0.866,-0.141,-0.401,-9.4,1.34,-1.07,1785104674168.802
-0.874,-0.136,-0.407,-10.96,1.07,-0.79,1785104674179.178
-0.88,-0.14,-0.411,-12.79,0.95,-0.18,1785104674189.634
-0.89,-0.146,-0.414,-13.98,1.13,0.37,1785104674202.949
-0.898,-0.151,-0.42,-14.95,1.4,0.76,1785104674208.712
-0.901,-0.153,-0.423,-15.63,1.86,1.1,1785104674218.913
-0.904,-0.156,-0.426,-15.53,2.29,1.28,1785104674229.291
-0.913,-0.161,-0.428,-14.86,2.5,1.37,1785104674242.6309
-0.919,-0.167,-0.431,-13.34,2.38,1.16,1785104674248.337
-0.923,-0.172,-0.439,-10.74,2.04,0.76,1785104674258.469
-0.925,-0.172,-0.44,-8.24,1.62,0.37,1785104674268.9211
-0.916,-0.164,-0.431,-5.28,1.22,0.06,1785104674279.201
-0.899,-0.158,-0.421,-2.14,1.04,-0.15,1785104674289.5833
-0.889,-0.155,-0.419,1.13,0.85,-0.73,1785104674302.895
-0.879,-0.153,-0.42,4.15,1.1,-1.46,1785104674308.4941
-0.866,-0.151,-0.42,7.02,1.71,-1.5,1785104674318.794
-0.863,-0.15,-0.417,9.83,2.47,-1.4,1785104674328.9148
-0.87,-0.156,-0.407,12.12,3.02,-1.56,1785104674339.4602
-0.866,-0.152,-0.407,14.53,2.69,-1.19,1785104674352.6667
-0.852,-0.138,-0.412,16.24,2.41,0.03,1785104674358.4548
-0.842,-0.125,-0.413,16.17,2.08,0.82,1785104674368.694
-0.838,-0.123,-0.416,14.47,1.74,1.56,1785104674379.0422
-0.845,-0.131,-0.42,11.66,1.5,2.9,1785104674389.537
-0.857,-0.135,-0.426,8.42,1.13,4.43,1785104674402.8699
-0.862,-0.136,-0.43,5.55,0.58,5.8,1785104674408.4302
