ax,ay,az,gx,gy,gz,timestamp_ms
0.469,-0.753,-0.481,1.5,-4.94,-4.15,1784845500447.5369
0.474,-0.744,-0.476,1.8,-4.67,-4.76,1784845500449.74
0.473,-0.739,-0.475,2.35,-4.55,-5.55,1784845500450.572
0.469,-0.728,-0.481,3.94,-4.43,-5.68,1784845500451.175
0.467,-0.725,-0.497,3.88,-3.91,-6.1,1784845500451.753
0.47,-0.733,-0.497,1.1,-3.57,-7.42,1784845500452.851
0.476,-0.745,-0.487,-2.75,-3.69,-8.55,1784845500453.791
0.473,-0.754,-0.478,-5.28,-3.85,-9.7,1784845500454.4792
0.468,-0.756,-0.469,-5.16,-3.94,-10.56,1784845500455.336
0.464,-0.745,-0.461,-3.57,-4.09,-10.35,1784845500455.9229
0.457,-0.728,-0.46,-2.72,-4.52,-9.7,1784845500456.5261
0.449,-0.716,-0.454,-3.2,-5.22,-9.31,1784845500457.119
0.438,-0.713,-0.453,-4.64,-6.41,-9.83,1784845500457.835
0.444,-0.707,-0.456,-5.83,-7.57,-10.65,1784845500458.455
0.447,-0.7,-0.457,-6.23,-8.21,-11.2,1784845500459.436
0.439,-0.693,-0.448,-5.92,-8.73,-11.14,1784845500460.119
0.428,-0.683,-0.446,-5.37,-9.46,-9.98,1784845500460.7083
0.414,-0.669,-0.439,-6.16,-10.5,-7.72,1784845500461.377
0.417,-0.669,-0.437,-7.87,-11.72,-5.43,1784845500461.949
0.415,-0.675,-0.433,-8.18,-12.67,-4.3,1784845500462.515
0.407,-0.678,-0.435,-6.56,-13.58,-4.03,1784845500462.983
0.421,-0.673,-0.434,-4.18,-14.07,-4.09,1784845500464.0962
0.432,-0.668,-0.439,-1.56,-14.53,-3.88,1784845500464.8472
0.428,-0.65,-0.452,-0.37,-15.26,-3.33,1784845500465.5403
0.431,-0.632,-0.474,-1.62,-16.21,-1.98,1784845500466.1611
0.435,-0.639,-0.496,-4.91,-17.37,-0.09,1784845500466.706
0.434,-0.65,-0.511,-8.88,-18.68,1.71,1784845500467.183
0.439,-0.663,-0.515,-12.67,-19.65,3.45,1784845500467.653
0.442,-0.674,-0.513,-14.77,-19.81,4.43,1784845500468.126
0.45,-0.705,-0.515,-14.83,-19.9,5.28,1784845500468.601
0.463,-0.749,-0.502,-13.25,-19.47,5.43,1784845500469.331
0.463,-0.749,-0.502,-8.12,-18.28,5.43,1784845500470.1318
0.471,-0.776,-0.495,-0.79,-16.51,6.2,1784845500470.721
0.477,-0.769,-0.512,4.97,-14.65,6.78,1784845500471.299
0.467,-0.758,-0.545,6.78,-13.43,6.44,1784845500471.7668
0.454,-0.746,-0.573,5.22,-12.76,6.23,1784845500472.2341
0.459,-0.735,-0.588,5.22,-12.76,6.23,1784845500472.646
0.458,-0.735,-0.59,2.23,-11.96,5.95,1784845500473.042
0.451,-0.732,-0.586,-1.19,-11.81,5.62,1784845500473.4321
0.454,-0.732,-0.579,-4.61,-12.15,6.01,1784845500473.831
0.448,-0.748,-0.572,-7.45,-12.39,6.44,1784845500474.231
0.44,-0.755,-0.572,-9.4,-13.15,7.26,1784845500474.6282
0.443,-0.759,-0.568,-10.59,-13.46,8.67,1784845500475.0312
0.441,-0.76,-0.556,-10.74,-13.09,9.46,1784845500475.432
0.434,-0.754,-0.546,-9.77,-13.28,9.34,1784845500475.8289
0.433,-0.745,-0.538,-9.25,-13.67,8.55,1784845500476.221
0.428,-0.738,-0.534,-10.25,-13.7,7.35,1784845500476.638
0.401,-0.731,-0.516,-12.48,-14.01,5.4,1784845500477.042
0.378,-0.729,-0.479,-14.77,-14.83,3.02,1784845500477.4412
0.355,-0.731,-0.43,-16.02,-16.39,-0.06,1784845500477.8418
0.325,-0.721,-0.388,-16.36,-19.32,-3.72,1784845500478.241
0.323,-0.698,-0.362,-16.57,-22.74,-8.36,1784845500478.6438
0.33,-0.692,-0.355,-12.48,-24.57,-14.4,1784845500479.0469
0.279,-0.667,-0.352,-4.49,-25.7,-20.36,1784845500479.454
0.221,-0.593,-0.328,0.03,-28.44,-22.64,1784845500479.866
0.221,-0.536,-0.307,-1.83,-32.9,-21.73,1784845500480.3462
0.204,-0.513,-0.281,-8.0,-38.21,-22.25,1784845500480.751
0.163,-0.49,-0.25,-14.47,-45.14,-23.71,1784845500481.182
0.131,-0.453,-0.239,-18.83,-53.19,-24.69,1784845500481.5923
0.122,-0.407,-0.278,-19.71,-60.3,-25.24,1784845500481.9998
0.127,-0.367,-0.304,-14.95,-63.91,-24.35,1784845500482.372
0.092,-0.318,-0.323,-8.55,-66.07,-20.94,1784845500482.719
0.053,-0.266,-0.334,-9.03,-70.59,-13.18,1784845500483.072
0.062,-0.28,-0.305,-15.93,-76.14,-3.69,1784845500483.515
0.088,-0.357,-0.276,-22.83,-80.29,2.2,1784845500483.875
0.08,-0.455,-0.267,-23.01,-83.59,5.65,1784845500484.257
0.06,-0.527,-0.293,-15.87,-88.81,8.24,1784845500484.6133
0.044,-0.55,-0.354,-8.3,-93.75,9.0,1784845500484.958
0.032,-0.545,-0.392,-7.35,-98.12,10.25,1784845500485.4888
0.024,-0.558,-0.428,-12.51,-103.92,12.88,1784845500485.973
0.011,-0.57,-0.441,-21.42,-110.11,14.74,1784845500486.333
-0.017,-0.619,-0.429,-26.06,-116.06,16.11,1784845500486.691
-0.055,-0.673,-0.433,-26.64,-121.83,17.37,1784845500487.051
-0.072,-0.702,-0.438,-27.04,-128.76,17.49,1784845500487.4111
-0.083,-0.729,-0.433,-27.95,-137.33,17.33,1784845500487.767
-0.129,-0.742,-0.411,-31.89,-147.74,15.5,1784845500488.117
-0.186,-0.747,-0.379,-38.42,-161.93,11.87,1784845500488.4749
-0.212,-0.756,-0.381,-45.63,-178.53,7.42,1784845500488.8342
-0.206,-0.766,-0.443,-51.67,-194.68,1.77,1784845500489.179
-0.171,-0.773,-0.554,-56.25,-207.53,-6.29,1784845500489.532
-0.156,-0.792,-0.662,-58.08,-214.55,-17.03,1784845500489.897
-0.239,-0.795,-0.703,-65.52,-219.49,-25.27,1784845500490.2551
-0.332,-0.813,-0.678,-83.22,-227.61,-29.94,1784845500490.609
-0.377,-0.855,-0.598,-103.58,-239.11,-33.54,1784845500490.968
-0.398,-0.905,-0.544,-116.28,-252.57,-37.32,1784845500491.3271
-0.36,-0.916,-0.631,-114.78,-264.26,-43.49,1784845500491.688
-0.258,-0.883,-0.803,-95.68,-266.24,-52.89,1784845500492.0298
-0.25,-0.791,-0.942,-73.46,-258.37,-61.92,1784845500492.3489
-0.339,-0.667,-0.997,-68.36,-250.04,-66.1,1784845500492.6702
-0.419,-0.598,-0.95,-79.93,-247.69,-65.95,1784845500493.0078
-0.455,-0.62,-0.844,-96.13,-251.14,-63.36,1784845500493.3188
-0.477,-0.686,-0.762,-102.33,-258.13,-61.68,1784845500493.6462
-0.459,-0.671,-0.824,-90.85,-263.13,-61.4,1784845500493.9639
-0.441,-0.573,-0.963,-63.57,-260.6,-58.57,1784845500494.2788
-0.476,-0.431,-1.156,-39.98,-254.28,-54.99,1784845500494.592
-0.526,-0.298,-1.337,-36.9,-246.1,-53.13,1784845500494.921
-0.573,-0.245,-1.391,-55.6,-239.57,-51.45,1784845500495.2441
-0.599,-0.281,-1.307,-88.78,-235.69,-48.34,1784845500495.5562
-0.638,-0.388,-1.159,-121.71,-234.41,-46.94,1784845500495.8853
-0.677,-0.516,-1.032,-141.0,-233.68,-48.16,1784845500496.209
-0.707,-0.618,-0.949,-139.96,-230.2,-49.93,1784845500496.5298
-0.746,-0.639,-0.921,-121.1,-224.13,-53.07,1784845500496.84
-0.779,-0.578,-1.003,-90.95,-214.85,-55.48,1784845500497.1562
-0.774,-0.434,-1.187,-60.67,-198.1,-53.93,1784845500497.4739
-0.795,-0.282,-1.261,-42.15,-177.28,-52.16,1784845500497.793
-0.789,-0.2,-1.204,-43.4,-161.69,-50.33,1784845500498.104
-0.752,-0.201,-1.086,-57.92,-150.64,-51.55,1784845500498.418
-0.75,-0.277,-0.968,-71.02,-141.73,-52.25,1784845500498.7322
-0.768,-0.366,-0.869,-73.4,-132.33,-47.85,1784845500499.046
-0.807,-0.432,-0.79,-59.24,-123.72,-40.35,1784845500499.378
-0.84,-0.447,-0.764,-31.37,-116.4,-33.54,1784845500499.695
-0.851,-0.418,-0.778,1.62,-108.68,-28.72,1784845500500.0059
-0.852,-0.38,-0.799,31.4,-100.77,-25.3,1784845500500.326
-0.868,-0.328,-0.816,51.45,-94.52,-21.88,1784845500500.6453
-0.893,-0.26,-0.797,58.14,-90.7,-16.54,1784845500500.973
-0.917,-0.184,-0.756,49.1,-90.79,-8.94,1784845500501.2832
-0.895,-0.147,-0.703,25.42,-93.66,-1.89,1784845500501.589
-0.848,-0.189,-0.678,-4.94,-98.51,-2.66,1784845500501.896
-0.85,-0.259,-0.672,-37.39,-102.69,-10.19,1784845500502.3042
-0.888,-0.325,-0.664,-65.1,-103.98,-16.08,1784845500502.6328
-0.907,-0.384,-0.656,-81.55,-103.64,-18.1,1784845500502.9448
-0.898,-0.41,-0.638,-87.65,-101.6,-18.83,1784845500503.263
-0.879,-0.413,-0.618,-85.3,-97.63,-18.95,1784845500503.581
-0.873,-0.411,-0.592,-76.33,-92.84,-18.46,1784845500503.891
-0.861,-0.415,-0.584,-64.46,-87.71,-16.91,1784845500504.197
-0.889,-0.401,-0.576,-56.15,-83.62,-16.08,1784845500504.509
-0.944,-0.365,-0.569,-55.02,-81.76,-13.89,1784845500504.821
-0.955,-0.353,-0.558,-58.96,-80.94,-12.33,1784845500505.134
-0.955,-0.351,-0.541,-62.65,-80.36,-13.76,1784845500505.441
-0.941,-0.336,-0.526,-61.37,-78.22,-14.65,1784845500505.7622
-0.916,-0.296,-0.518,-54.81,-74.89,-13.73,1784845500506.073
-0.91,-0.25,-0.53,-45.41,-70.07,-11.9,1784845500506.382
-0.904,-0.222,-0.55,-36.23,-65.03,-11.63,1784845500506.697
-0.901,-0.206,-0.568,-29.48,-60.91,-14.5,1784845500507.015
-0.892,-0.209,-0.585,-25.3,-57.22,-18.28,1784845500507.3438
-0.888,-0.226,-0.598,-23.16,-52.95,-20.94,1784845500507.679
-0.884,-0.241,-0.598,-23.13,-48.37,-20.75,1784845500507.997
-0.871,-0.27,-0.594,-22.1,-42.94,-19.5,1784845500508.31
-0.86,-0.301,-0.584,-15.44,-36.62,-18.13,1784845500508.623
-0.859,-0.318,-0.564,-5.89,-30.15,-15.02,1784845500508.928
-0.85,-0.33,-0.575,2.84,-23.32,-11.23,1784845500509.2412
-0.843,-0.332,-0.591,9.28,-14.16,-7.02,1784845500509.553
-0.846,-0.339,-0.606,15.23,-4.82,-2.75,1784845500509.86
-0.854,-0.339,-0.596,19.96,1.19,0.18,1784845500510.1628
-0.863,-0.332,-0.578,21.49,3.2,2.38,1784845500510.4692
-0.862,-0.328,-0.55,17.88,3.88,4.79,1784845500510.7751
-0.855,-0.338,-0.515,10.68,3.39,6.44,1784845500511.078
-0.849,-0.36,-0.478,2.66,1.31,6.9,1784845500511.3853
-0.844,-0.387,-0.439,-4.33,-1.37,6.2,1784845500511.69
-0.845,-0.404,-0.405,-8.73,-3.75,5.34,1784845500512.0042
-0.845,-0.42,-0.38,-11.38,-5.46,5.16,1784845500512.3079
-0.842,-0.425,-0.361,-14.44,-7.08,4.88,1784845500512.615
-0.839,-0.419,-0.342,-17.55,-8.58,4.3,1784845500512.9211
-0.834,-0.417,-0.328,-20.54,-9.83,3.54,1784845500513.221
-0.83,-0.418,-0.314,-23.71,-10.93,2.44,1784845500513.532
-0.825,-0.415,-0.3,-26.49,-11.6,0.85,1784845500513.839
-0.821,-0.41,-0.288,-27.59,-11.93,-0.43,1784845500514.148
-0.824,-0.407,-0.282,-26.98,-11.72,-0.92,1784845500514.451
-0.828,-0.406,-0.273,-25.03,-11.05,-0.98,1784845500514.761
-0.83,-0.405,-0.269,-21.76,-10.53,-1.5,1784845500515.07
-0.83,-0.405,-0.269,-18.28,-10.01,-2.44,1784845500515.3767
-0.835,-0.405,-0.271,-14.8,-9.06,-3.23,1784845500515.677
-0.835,-0.402,-0.283,-11.63,-8.73,-4.15,1784845500515.9822
-0.835,-0.398,-0.292,-9.25,-9.13,-4.91,1784845500516.305
-0.837,-0.39,-0.299,-6.9,-9.37,-5.62,1784845500516.617
-0.842,-0.386,-0.304,-6.9,-9.37,-5.62,1784845500516.9219
-0.846,-0.384,-0.308,-4.36,-9.28,-5.98,1784845500517.234
-0.854,-0.383,-0.316,-2.23,-8.94,-6.38,1784845500517.559
-0.855,-0.381,-0.323,-0.82,-8.39,-6.29,1784845500517.86
-0.844,-0.375,-0.337,-1.25,-7.45,-5.89,1784845500518.476
-0.844,-0.367,-0.347,-3.27,-6.9,-5.71,1784845500518.813
-0.826,-0.396,-0.365,-2.93,-1.95,-0.89,1784845500519.287
-0.824,-0.393,-0.367,-2.84,-2.01,-1.04,1784845500519.589
-0.822,-0.392,-0.369,-2.81,-2.17,-1.04,1784845500519.888
-0.822,-0.391,-0.372,-3.02,-2.2,-0.95,1784845500520.187
-0.821,-0.39,-0.374,-3.11,-2.44,-0.85,1784845500520.4841
-0.822,-0.392,-0.38,-3.33,-2.62,-1.01,1784845500525.374
-0.824,-0.393,-0.383,-3.91,-2.59,-0.92,1784845500538.666
-0.825,-0.394,-0.383,-4.24,-2.44,-0.82,1784845500544.178
-0.825,-0.395,-0.383,-4.18,-2.35,-0.67,1784845500554.304
-0.825,-0.399,-0.383,-4.03,-2.11,-0.49,1784845500564.669
-0.824,-0.402,-0.381,-3.81,-1.74,-0.31,1784845500575.0479
-0.823,-0.404,-0.377,-3.36,-1.34,-0.03,1784845500585.423
-0.825,-0.404,-0.372,-3.02,-1.25,0.06,1784845500598.738
-0.824,-0.403,-0.37,-3.02,-1.07,0.18,1784845500604.184
-0.824,-0.402,-0.369,-2.99,-0.89,0.37,1784845500614.412
-0.824,-0.402,-0.369,-3.11,-0.67,0.06,1784845500624.705
-0.825,-0.402,-0.367,-3.39,-0.67,-0.31,1784845500635.124
-0.826,-0.4,-0.365,-3.97,-0.73,-0.4,1784845500645.581
-0.825,-0.399,-0.364,-4.52,-0.7,-0.58,1784845500658.997
-0.825,-0.4,-0.362,-4.73,-0.79,-0.7,1784845500664.406
-0.822,-0.4,-0.364,-4.73,-0.79,-0.7,1784845500674.4548
-0.82,-0.397,-0.363,-5.13,-0.7,-0.61,1784845500684.8672
-0.816,-0.396,-0.362,-5.43,-0.67,-0.58,1784845500695.29
-0.812,-0.397,-0.362,-5.34,-0.95,-0.7,1784845500705.623
-0.811,-0.393,-0.364,-5.25,-0.85,-0.98,1784845500719.277
-0.814,-0.388,-0.366,-5.92,-0.79,-1.07,1784845500724.8928
-0.82,-0.383,-0.364,-6.56,-1.1,-0.73,1784845500734.833
-0.821,-0.385,-0.369,-7.17,-1.77,-0.61,1784845500745.183
-0.818,-0.392,-0.371,-7.81,-2.17,-1.04,1784845500755.4473
-0.816,-0.395,-0.379,-9.09,-2.56,-1.74,1784845500770.824
-0.811,-0.398,-0.384,-10.62,-3.23,-2.11,1784845500774.218
-0.808,-0.404,-0.392,-12.21,-4.03,-2.53,1784845500784.509
-0.807,-0.406,-0.401,-13.76,-4.88,-3.02,1784845500794.837
-0.803,-0.41,-0.413,-14.68,-5.16,-3.6,1784845500805.4001
-0.798,-0.422,-0.418,-14.71,-4.88,-4.58,1784845500818.7341
-0.791,-0.439,-0.418,-14.13,-4.36,-5.89,1784845500824.827
-0.784,-0.454,-0.411,-12.91,-3.3,-7.23,1784845500834.8748
-0.778,-0.473,-0.424,-10.22,-3.05,-8.51,1784845500845.0361
-0.777,-0.485,-0.443,-7.35,-2.62,-9.64,1784845500855.754
-0.773,-0.499,-0.473,-5.83,-2.26,-11.2,1784845500869.156
-0.761,-0.509,-0.508,-5.71,-1.59,-13.46,1784845500874.9949
-0.756,-0.513,-0.531,-7.45,-0.73,-16.24,1784845500884.5662
-0.753,-0.519,-0.545,-10.13,0.21,-19.07,1784845500895.2131
-0.751,-0.531,-0.55,-13.95,1.34,-21.61,1784845500908.8462
-0.75,-0.545,-0.561,-18.25,2.2,-23.96,1784845500914.1519
-0.747,-0.557,-0.578,-23.07,2.41,-26.22,1784845500924.733
-0.746,-0.56,-0.603,-29.85,1.56,-28.26,1784845500935.401
-0.734,-0.553,-0.669,-40.16,-0.15,-29.69,1784845500948.644
-0.734,-0.533,-0.747,-53.8,-0.09,-31.34,1784845500954.467
-0.732,-0.527,-0.801,-68.58,1.04,-34.64,1784845500971.415
-0.728,-0.532,-0.846,-84.54,2.59,-40.96,1784845500975.2021
-0.727,-0.535,-0.866,-99.06,6.07,-47.06,1784845500988.4841
-0.731,-0.545,-0.851,-106.36,12.3,-50.69,1784845500994.2742
-0.736,-0.557,-0.819,-103.31,19.96,-52.25,1784845501005.1
-0.735,-0.566,-0.793,-92.38,28.5,-52.0,1784845501015.868
-0.738,-0.58,-0.777,-77.09,37.08,-50.6,1784845501029.095
-0.743,-0.59,-0.761,-60.12,45.56,-48.89,1784845501035.319
-0.741,-0.596,-0.751,-44.19,53.68,-47.49,1784845501045.524
-0.742,-0.584,-0.758,-31.74,60.52,-46.94,1784845501058.746
-0.73,-0.574,-0.787,-24.75,65.49,-47.0,1784845501064.474
-0.725,-0.56,-0.807,-23.74,69.34,-48.19,1784845501075.084
-0.732,-0.541,-0.82,-28.53,72.18,-48.8,1784845501085.682
-0.739,-0.537,-0.829,-37.97,74.68,-49.56,1784845501099.0642
-0.742,-0.547,-0.838,-47.98,76.39,-51.94,1784845501104.84
-0.729,-0.577,-0.836,-55.85,78.65,-54.99,1784845501115.632
-0.72,-0.605,-0.823,-60.7,81.3,-57.86,1784845501128.772
-0.713,-0.627,-0.825,-61.71,84.48,-58.44,1784845501134.587
-0.722,-0.642,-0.83,-59.3,87.37,-58.26,1784845501145.128
-0.736,-0.618,-0.839,-57.04,88.9,-58.29,1784845501158.4001
-0.736,-0.6,-0.846,-55.36,89.69,-58.29,1784845501164.2812
-0.727,-0.595,-0.859,-55.06,90.09,-59.54,1784845501175.067
-0.716,-0.599,-0.871,-56.79,91.16,-60.64,1784845501185.548
-0.709,-0.594,-0.879,-59.18,93.39,-60.82,1784845501198.9119
-0.709,-0.569,-0.878,-61.28,96.29,-58.72,1784845501204.659
-0.695,-0.546,-0.866,-63.2,98.73,-55.09,1784845501215.273
-0.663,-0.55,-0.863,-63.48,100.25,-52.46,1784845501228.553
-0.644,-0.564,-0.861,-62.26,101.38,-52.55,1784845501234.505
-0.648,-0.561,-0.862,-59.72,103.43,-53.16,1784845501245.3052
-0.649,-0.549,-0.867,-57.22,106.17,-52.37,1784845501258.471
-0.644,-0.545,-0.841,-56.86,108.22,-51.82,1784845501264.2551
-0.626,-0.549,-0.826,-57.86,108.55,-51.55,1784845501275.225
-0.611,-0.544,-0.815,-58.99,108.95,-50.9,1784845501288.4578
-0.599,-0.534,-0.808,-58.53,109.53,-49.38,1784845501294.182
-0.586,-0.524,-0.808,-56.79,109.56,-48.07,1784845501305.164
-0.581,-0.517,-0.809,-54.2,109.44,-47.76,1784845501320.085
-0.574,-0.515,-0.807,-50.08,110.48,-46.97,1784845501324.084
-0.568,-0.513,-0.79,-45.01,111.85,-46.05,1784845501335.15
-0.557,-0.511,-0.76,-39.52,112.67,-45.05,1784845501348.248
-0.533,-0.509,-0.736,-34.55,112.34,-44.19,1784845501354.1682
-0.498,-0.5,-0.747,-31.16,111.33,-43.76,1784845501364.974
-0.474,-0.475,-0.769,-29.51,111.24,-44.19,1784845501375.683
-0.458,-0.459,-0.789,-29.11,110.72,-45.29,1784845501389.036
-0.438,-0.451,-0.822,-30.09,109.84,-47.36,1784845501394.749
-0.432,-0.449,-0.827,-31.37,109.59,-49.87,1784845501405.719
-0.43,-0.448,-0.82,-31.62,109.04,-51.15,1784845501418.993
-0.407,-0.438,-0.81,-31.01,108.25,-50.94,1784845501424.783
-0.379,-0.409,-0.812,-30.52,105.72,-50.78,1784845501435.669
-0.343,-0.381,-0.844,-31.1,101.96,-50.42,1784845501448.967
-0.321,-0.363,-0.895,-34.27,98.27,-50.84,1784845501454.75
-0.307,-0.344,-0.932,-40.56,95.89,-52.1,1784845501465.3381
-0.297,-0.327,-0.946,-46.78,94.73,-53.41,1784845501478.645
-0.288,-0.305,-0.929,-51.42,94.24,-54.14,1784845501485.17
-0.268,-0.285,-0.911,-54.2,93.36,-53.38,1784845501495.105
-0.237,-0.278,-0.89,-55.54,92.56,-50.9,1784845501508.29
-0.203,-0.28,-0.868,-53.96,91.22,-48.19,1784845501514.175
-0.176,-0.281,-0.875,-50.45,89.69,-45.44,1784845501524.712
-0.149,-0.271,-0.893,-47.15,89.24,-42.39,1784845501535.4219
-0.137,-0.252,-0.894,-43.64,89.21,-40.04,1784845501548.723
-0.132,-0.234,-0.885,-39.31,89.14,-38.03,1784845501554.3052
-0.12,-0.214,-0.879,-35.83,88.72,-35.89,1784845501565.076
-0.096,-0.18,-0.874,-34.18,89.08,-34.79,1784845501578.3281
-0.091,-0.15,-0.861,-33.69,89.69,-34.91,1784845501583.9749
-0.077,-0.142,-0.842,-35.13,88.05,-33.91,1784845501594.8071
-0.064,-0.134,-0.825,-39.03,86.25,-33.94,1784845501605.44
-0.043,-0.121,-0.825,-44.31,83.99,-33.42,1784845501618.6619
0.004,-0.093,-0.842,-49.13,80.36,-34.82,1784845501624.3179
-0.036,-0.086,-0.841,-54.41,79.5,-38.3,1784845501635.036
-0.006,-0.1,-0.836,-61.25,76.54,-27.16,1784845501648.353
0.009,-0.078,-0.828,-70.68,71.84,-23.13,1784845501654.1318
0.005,-0.052,-0.806,-82.64,67.42,-25.91,1784845501664.9312
0.018,-0.039,-0.787,-95.43,61.19,-24.32,1784845501675.594
0.072,-0.069,-0.756,-102.42,56.86,-17.0,1784845501688.843
0.109,-0.097,-0.738,-101.6,55.36,-12.05,1784845501694.6519
0.115,-0.129,-0.731,-96.32,52.06,-8.33,1784845501705.396
0.15,-0.171,-0.721,-89.18,48.4,-2.9,1784845501718.645
0.179,-0.206,-0.724,-79.81,47.36,-0.82,1784845501724.468
0.191,-0.184,-0.709,-69.15,51.06,-7.39,1784845501734.819
0.192,-0.139,-0.677,-55.42,54.63,-13.46,1784845501752.538
0.187,-0.103,-0.626,-39.61,55.82,-11.02,1784845501758.645
0.206,-0.105,-0.589,-23.38,54.2,0.09,1784845501764.28
0.185,-0.039,-0.594,-9.7,56.64,-4.39,1784845501774.901
0.146,0.007,-0.647,-1.37,51.21,-5.43,1784845501785.3032
0.162,0.012,-0.667,-1.28,39.86,5.86,1784845501798.527
0.161,0.054,-0.704,-1.25,30.3,13.21,1784845501804.401
0.102,0.058,-0.723,-5.19,21.52,17.58,1784845501814.812
0.166,0.074,-0.736,-9.74,14.65,21.55,1784845501825.203
0.209,0.052,-0.749,-13.82,3.69,32.07,1784845501838.5752
0.203,0.049,-0.769,-16.39,-0.58,31.43,1784845501844.27
0.197,0.025,-0.77,-16.66,-2.38,28.93,1784845501854.874
0.195,-0.006,-0.774,-14.62,-4.61,28.87,1784845501865.364
0.2,-0.033,-0.804,-8.27,-6.56,31.77,1784845501878.539
0.209,-0.036,-0.843,0.34,-8.36,36.01,1784845501884.305
0.216,-0.026,-0.86,7.97,-10.13,41.29,1784845501894.571
0.228,-0.011,-0.875,10.56,-10.47,44.71,1784845501906.553
0.228,-0.011,-0.875,9.55,-8.03,43.7,1784845501915.743
0.264,-0.014,-0.898,10.99,-3.6,38.64,1784845501929.0051
0.305,-0.019,-0.93,16.48,1.53,32.96,1784845501934.675
0.319,-0.017,-0.955,22.52,6.59,28.35,1784845501945.171
0.321,-0.005,-0.988,28.02,11.17,26.09,1784845501958.415
0.329,0.012,-1.031,28.02,11.17,26.09,1784845501964.18
0.319,0.026,-1.076,30.95,14.77,26.31,1784845501974.878
0.309,0.045,-1.107,29.45,17.3,27.65,1784845501985.549
0.316,0.052,-1.117,27.01,19.84,29.63,1784845501998.754
0.316,0.054,-1.124,25.21,22.16,31.43,1784845502004.6921
0.291,0.05,-1.112,22.28,24.2,33.69,1784845502015.21
0.285,0.033,-1.094,18.28,23.62,36.56,1784845502028.7922
0.294,0.025,-1.097,14.16,21.45,39.86,1784845502034.344
0.294,0.018,-1.106,9.95,22.86,40.25,1784845502044.875
0.271,0.018,-1.089,6.56,27.13,36.01,1784845502056.254
0.267,0.016,-1.061,4.03,28.6,34.46,1784845502069.229
0.284,0.002,-1.041,2.56,27.83,37.11,1784845502074.514
0.282,-0.011,-1.037,3.02,28.81,39.12,1784845502085.0198
0.273,-0.023,-1.04,5.1,31.22,39.77,1784845502095.4531
0.269,-0.02,-1.044,6.01,32.99,39.55,1784845502109.0
0.274,-0.019,-1.05,4.64,34.85,39.52,1784845502114.688
0.272,-0.025,-1.054,3.11,37.08,40.5,1784845502125.249
0.259,-0.028,-1.038,1.62,38.67,43.52,1784845502135.678
0.264,-0.017,-1.029,-1.86,39.16,46.78,1784845502148.755
0.278,-0.021,-1.029,-6.41,39.74,48.86,1784845502154.9211
0.287,-0.038,-1.016,-11.02,40.35,50.17,1784845502165.171
0.302,-0.052,-1.009,-14.86,40.41,51.52,1784845502176.0068
0.295,-0.078,-0.996,-16.85,41.11,53.59,1784845502189.025
0.287,-0.095,-0.974,-17.21,42.21,56.03,1784845502195.31
0.287,-0.103,-0.951,-15.78,42.91,58.99,1784845502205.324
0.289,-0.115,-0.927,-13.76,44.04,62.01,1784845502218.893
0.299,-0.117,-0.897,-11.96,45.23,64.79,1784845502227.2698
0.313,-0.117,-0.878,-9.83,45.63,67.11,1784845502236.01
0.321,-0.138,-0.879,-7.29,45.72,69.03,1784845502245.602
0.322,-0.165,-0.885,-5.43,46.48,70.96,1784845502258.7632
0.317,-0.18,-0.874,-4.52,47.46,73.15,1784845502264.555
0.331,-0.192,-0.871,-3.81,48.49,75.41,1784845502274.9263
0.338,-0.212,-0.856,-1.4,50.17,77.24,1784845502285.85
0.36,-0.222,-0.84,2.93,51.79,78.74,1784845502298.831
0.383,-0.218,-0.84,6.32,52.28,79.93,1784845502304.4832
0.378,-0.213,-0.859,6.71,52.1,81.48,1784845502314.964
0.371,-0.21,-0.887,4.33,52.16,82.86,1784845502325.417
0.37,-0.222,-0.897,0.52,52.77,84.08,1784845502338.7031
0.369,-0.247,-0.883,-4.09,53.5,84.69,1784845502344.94
0.381,-0.266,-0.844,-7.08,53.62,84.81,1784845502354.899
0.414,-0.279,-0.827,-7.57,52.89,84.78,1784845502365.4558
0.42,-0.294,-0.841,-6.56,52.46,83.93,1784845502378.769
0.403,-0.292,-0.85,-5.37,52.31,82.55,1784845502384.4658
0.397,-0.277,-0.854,-6.38,51.67,82.09,1784845502394.984
0.402,-0.279,-0.863,-10.32,51.09,82.71,1784845502405.576
0.398,-0.295,-0.861,-14.22,51.33,82.34,1784845502418.925
0.405,-0.305,-0.851,-17.15,51.88,81.48,1784845502424.563
0.423,-0.316,-0.831,-17.67,52.49,82.09,1784845502435.261
0.425,-0.33,-0.819,-15.75,52.98,81.7,1784845502448.488
0.422,-0.345,-0.811,-14.31,53.25,80.94,1784845502454.2808
0.42,-0.368,-0.802,-13.73,53.19,80.66,1784845502464.967
0.427,-0.381,-0.788,-13.15,52.95,80.72,1784845502475.5928
0.445,-0.386,-0.784,-11.96,52.34,80.66,1784845502488.857
0.445,-0.391,-0.782,-10.9,52.61,80.45,1784845502494.617
0.444,-0.393,-0.771,-10.68,52.83,80.45,1784845502505.3252
0.447,-0.384,-0.773,-11.11,51.76,80.02,1784845502518.6309
0.448,-0.38,-0.786,-14.07,51.0,79.47,1784845502524.3662
0.449,-0.39,-0.785,-19.5,50.51,79.35,1784845502535.014
0.455,-0.409,-0.772,-24.41,49.47,79.35,1784845502545.6572
0.461,-0.435,-0.749,-27.22,48.71,79.2,1784845502558.9348
0.47,-0.454,-0.727,-27.44,48.31,78.65,1784845502564.744
0.484,-0.453,-0.721,-25.54,47.52,78.01,1784845502575.3281
0.488,-0.445,-0.741,-23.96,46.75,77.3,1784845502588.5872
0.477,-0.441,-0.76,-25.09,46.36,76.57,1784845502594.422
0.468,-0.447,-0.772,-28.5,45.66,76.36,1784845502605.1672
0.462,-0.458,-0.778,-31.43,45.32,75.87,1784845502615.756
0.475,-0.465,-0.763,-32.2,45.69,74.92,1784845502629.033
0.5,-0.474,-0.755,-31.95,45.9,73.73,1784845502634.739
0.499,-0.493,-0.744,-31.37,46.78,72.15,1784845502645.4348
0.493,-0.504,-0.717,-29.27,47.64,70.68,1784845502658.7148
0.506,-0.498,-0.695,-26.43,47.52,70.1,1784845502664.649
0.51,-0.491,-0.706,-24.08,47.21,69.7,1784845502675.194
0.503,-0.481,-0.726,-23.19,46.75,69.37,1784845502685.759
0.512,-0.467,-0.744,-24.23,46.14,69.7,1784845502699.0203
0.509,-0.466,-0.77,-26.76,46.36,69.95,1784845502704.7578
0.485,-0.481,-0.755,-29.79,47.7,69.83,1784845502715.486
0.496,-0.499,-0.716,-32.78,47.98,70.99,1784845502728.833
0.514,-0.522,-0.678,-34.18,47.79,72.08,1784845502734.438
0.522,-0.541,-0.663,-31.95,47.61,72.36,1784845502745.185
0.535,-0.533,-0.666,-27.56,47.3,71.99,1784845502758.4387
0.534,-0.526,-0.677,-23.77,47.94,71.08,1784845502765.045
0.514,-0.524,-0.691,-21.79,48.46,69.34,1784845502774.872
0.514,-0.523,-0.687,-22.13,47.98,69.46,1784845502785.759
0.526,-0.526,-0.682,-23.74,47.79,70.41,1784845502798.746
0.52,-0.537,-0.669,-24.69,48.49,70.04,1784845502804.631
0.523,-0.54,-0.656,-24.6,49.26,68.24,1784845502815.395
0.526,-0.555,-0.657,-24.45,48.46,68.48,1784845502828.575
0.504,-0.577,-0.668,-23.83,46.39,70.28,1784845502834.197
0.511,-0.575,-0.663,-21.67,45.53,71.08,1784845502844.99
0.546,-0.564,-0.662,-19.84,44.77,71.66,1784845502855.5652
0.555,-0.558,-0.663,-18.92,46.63,68.64,1784845502869.083
0.539,-0.545,-0.664,-18.22,49.41,63.05,1784845502874.6309
0.533,-0.543,-0.66,-20.42,49.56,61.43,1784845502885.584
0.526,-0.555,-0.662,-23.99,48.46,61.31,1784845502898.508
0.524,-0.563,-0.648,-25.27,48.52,59.51,1784845502904.803
0.522,-0.571,-0.636,-25.54,47.91,57.62,1784845502914.979
0.518,-0.589,-0.639,-27.31,46.05,57.34,1784845502925.659
0.525,-0.589,-0.648,-27.95,44.86,55.97,1784845502938.896
0.55,-0.573,-0.652,-25.61,45.59,54.35,1784845502945.1367
0.552,-0.567,-0.661,-22.77,47.76,53.22,1784845502955.591
0.523,-0.567,-0.645,-20.23,49.96,53.59,1784845502968.601
0.522,-0.559,-0.621,-18.89,50.78,56.28,1784845502974.4792
0.539,-0.551,-0.608,-17.58,51.61,59.27,1784845502985.133
0.556,-0.551,-0.584,-14.65,53.41,61.56,1784845502995.769
0.559,-0.568,-0.555,-9.16,54.63,63.42,1784845503009.0618
0.545,-0.589,-0.535,-2.08,54.9,65.03,1784845503015.166
0.544,-0.603,-0.52,4.46,54.84,67.05,1784845503025.4058
0.549,-0.621,-0.51,9.55,55.36,69.58,1784845503035.851
0.544,-0.642,-0.501,14.5,57.16,71.35,1784845503049.8738
0.542,-0.658,-0.489,20.63,59.14,72.36,1784845503054.776
0.543,-0.658,-0.487,27.07,60.34,73.4,1784845503073.3298
0.548,-0.65,-0.476,31.53,61.49,74.89,1784845503078.5752
0.549,-0.636,-0.461,31.4,62.29,75.72,1784845503084.5771
0.534,-0.624,-0.446,27.01,62.38,74.4,1784845503095.219
0.516,-0.644,-0.411,22.74,61.77,71.9,1784845503105.718
0.511,-0.674,-0.374,20.02,60.27,68.36,1784845503119.009
0.515,-0.7,-0.355,20.26,58.2,64.67,1784845503125.0452
0.52,-0.726,-0.357,23.99,56.12,60.85,1784845503135.534
0.527,-0.741,-0.359,29.6,54.66,57.41,1784845503148.866
0.533,-0.733,-0.371,33.17,53.47,54.66,1784845503154.451
0.511,-0.685,-0.363,30.09,52.34,52.22,1784845503165.1929
0.492,-0.659,-0.352,23.26,49.35,50.36,1784845503175.715
0.497,-0.657,-0.347,14.37,44.95,47.91,1784845503189.0361
0.515,-0.665,-0.345,6.68,40.89,44.34,1784845503195.736
0.515,-0.665,-0.345,2.72,38.18,41.05,1784845503205.4038
0.527,-0.676,-0.343,0.18,36.23,38.36,1784845503218.6592
0.513,-0.682,-0.332,-2.56,33.78,36.1,1784845503224.598
0.497,-0.682,-0.329,-6.99,30.64,35.25,1784845503234.7769
0.509,-0.668,-0.323,-12.82,27.53,35.65,1784845503245.383
0.53,-0.654,-0.314,-12.82,27.53,35.65,1784845503259.308
0.532,-0.673,-0.298,-17.21,24.69,35.68,1784845503264.596
0.526,-0.706,-0.27,-18.22,22.31,34.76,1784845503275.0808
0.527,-0.73,-0.244,-15.17,21.09,34.36,1784845503285.7412
0.526,-0.745,-0.245,-8.42,20.39,34.27,1784845503299.202
0.519,-0.756,-0.264,0.09,20.14,34.15,1784845503304.7512
0.502,-0.756,-0.272,6.81,19.87,34.09,1784845503315.0498
0.503,-0.743,-0.284,9.98,18.28,34.3,1784845503325.6829
0.519,-0.719,-0.283,8.0,16.27,35.25,1784845503339.2341
0.523,-0.729,-0.28,2.96,13.86,36.47,1784845503344.6829
0.507,-0.753,-0.293,-3.54,10.56,36.29,1784845503355.498
0.502,-0.771,-0.297,-9.49,7.39,36.23,1784845503365.8792
0.509,-0.797,-0.293,-11.6,4.82,36.84,1784845503379.0068
0.505,-0.815,-0.285,-9.64,3.27,36.19,1784845503384.5132
0.497,-0.816,-0.271,-5.19,2.14,34.85,1784845503395.0642
0.503,-0.817,-0.272,0.61,1.13,33.3,1784845503405.433
0.508,-0.81,-0.28,5.92,0.55,31.4,1784845503418.841
0.495,-0.799,-0.295,9.92,0.12,29.33,1784845503424.548
0.469,-0.798,-0.314,12.05,-0.58,27.25,1784845503434.804
0.45,-0.79,-0.321,11.44,-1.07,24.87,1784845503445.251
0.436,-0.775,-0.306,9.37,-1.13,22.49,1784845503455.82
