ax,ay,az,gx,gy,gz,timestamp_ms
-0.076,-0.385,-0.295,22.22,-119.24,-77.06,1784845591495.548
-0.039,-0.352,-0.315,19.62,-129.95,-77.91,1784845591496.069
-0.007,-0.339,-0.359,16.82,-139.44,-78.16,1784845591496.5872
-0.014,-0.331,-0.415,10.99,-148.32,-78.55,1784845591497.105
-0.04,-0.338,-0.485,3.2,-156.93,-78.37,1784845591497.7632
-0.09,-0.37,-0.523,-5.01,-163.76,-77.15,1784845591498.352
-0.149,-0.403,-0.53,-13.06,-169.77,-75.14,1784845591498.966
-0.183,-0.42,-0.523,-18.43,-175.05,-71.57,1784845591499.5789
-0.195,-0.443,-0.511,-17.49,-178.47,-66.68,1784845591500.176
-0.174,-0.468,-0.541,-11.96,-180.91,-60.73,1784845591501.03
-0.115,-0.459,-0.641,-5.46,-182.5,-55.09,1784845591501.6372
-0.1,-0.429,-0.703,0.95,-182.47,-49.78,1784845591502.245
-0.119,-0.415,-0.713,4.7,-183.05,-43.76,1784845591502.837
-0.138,-0.44,-0.727,7.57,-185.95,-38.7,1784845591503.4658
-0.188,-0.48,-0.694,13.52,-189.34,-34.73,1784845591504.214
-0.248,-0.541,-0.642,30.67,-192.6,-29.45,1784845591504.8398
-0.282,-0.627,-0.573,66.62,-192.88,-25.36,1784845591505.4478
-0.301,-0.724,-0.611,123.33,-189.12,-24.51,1784845591506.044
-0.315,-0.756,-0.815,181.43,-175.85,-20.48,1784845591506.643
-0.35,-0.739,-0.992,222.72,-157.6,-9.49,1784845591507.242
-0.417,-0.654,-1.068,234.17,-148.63,2.87,1784845591507.857
-0.436,-0.621,-1.087,213.48,-149.24,14.8,1784845591508.575
-0.408,-0.68,-0.972,173.71,-154.73,19.07,1784845591509.175
-0.371,-0.741,-0.837,130.59,-163.88,19.71,1784845591509.776
-0.368,-0.797,-0.719,96.65,-169.32,25.21,1784845591510.376
-0.38,-0.854,-0.706,77.73,-171.3,34.27,1784845591511.4087
-0.391,-0.875,-0.836,69.34,-168.19,43.31,1784845591512.133
-0.438,-0.879,-0.984,67.08,-162.21,50.48,1784845591512.6292
-0.479,-0.873,-1.11,62.75,-159.22,56.0,1784845591513.118
-0.494,-0.861,-1.19,52.03,-157.81,61.31,1784845591513.7852
-0.505,-0.849,-1.209,38.27,-156.32,65.71,1784845591514.271
-0.52,-0.838,-1.223,23.44,-154.15,68.18,1784845591514.8262
-0.535,-0.823,-1.236,9.13,-149.91,68.73,1784845591515.326
-0.556,-0.819,-1.196,0.0,-143.62,68.15,1784845591515.8232
-0.584,-0.813,-1.132,-0.43,-136.54,68.76,1784845591516.309
-0.606,-0.802,-1.074,4.94,-127.45,72.57,1784845591516.7942
-0.621,-0.79,-1.017,14.62,-116.61,77.79,1784845591517.28
-0.639,-0.765,-0.977,25.7,-104.98,83.07,1784845591517.76
-0.653,-0.737,-0.961,36.41,-93.23,88.47,1784845591518.2422
-0.68,-0.709,-0.951,45.84,-81.88,92.65,1784845591518.7268
-0.689,-0.681,-0.947,51.97,-70.96,96.65,1784845591519.2058
-0.69,-0.659,-0.934,55.57,-60.3,98.73,1784845591519.753
-0.728,-0.651,-0.924,57.89,-51.12,98.48,1784845591520.305
-0.759,-0.66,-0.924,57.95,-43.21,98.33,1784845591521.217
-0.787,-0.673,-0.892,58.66,-35.58,97.6,1784845591521.785
-0.806,-0.706,-0.845,63.05,-28.44,95.49,1784845591522.2002
-0.821,-0.72,-0.803,70.47,-21.55,90.52,1784845591522.656
-0.854,-0.725,-0.783,77.39,-14.83,86.52,1784845591523.0698
-0.855,-0.745,-0.786,81.88,-9.95,86.37,1784845591523.4739
-0.848,-0.766,-0.786,85.57,-5.98,85.24,1784845591523.8818
-0.701,-0.752,-0.797,88.11,-3.2,80.2,1784845591524.2961
-0.852,-0.644,-0.818,81.42,-0.52,57.5,1784845591524.7048
-0.783,-0.761,-0.768,68.88,-9.8,60.79,1784845591525.11
-0.681,-0.83,-0.716,75.84,-12.45,65.86,1784845591525.538
-0.687,-0.805,-0.748,92.78,-11.23,63.78,1784845591525.95
-0.672,-0.816,-0.758,104.31,-9.55,62.72,1784845591526.362
-0.658,-0.79,-0.762,106.17,-3.54,55.73,1784845591526.769
-0.658,-0.727,-0.722,90.03,3.91,43.46,1784845591527.188
-0.636,-0.719,-0.683,63.72,5.07,32.14,1784845591527.601
-0.62,-0.738,-0.61,38.09,4.7,22.31,1784845591528.009
-0.598,-0.781,-0.545,20.14,2.9,18.1,1784845591528.4119
-0.551,-0.793,-0.511,9.22,0.92,16.82,1784845591528.8188
-0.512,-0.793,-0.48,4.03,1.53,16.08,1784845591529.2292
-0.512,-0.793,-0.48,5.43,4.52,16.97,1784845591529.63
-0.49,-0.804,-0.465,11.38,9.31,18.25,1784845591530.044
-0.482,-0.804,-0.449,17.3,13.86,19.38,1784845591530.486
-0.504,-0.783,-0.429,19.84,17.06,21.39,1784845591530.901
-0.517,-0.761,-0.418,19.84,17.06,21.39,1784845591531.314
-0.525,-0.734,-0.397,15.81,19.04,22.28,1784845591531.7278
-0.524,-0.713,-0.375,7.9,19.17,21.52,1784845591532.211
-0.525,-0.707,-0.357,2.5,19.71,19.59,1784845591532.632
-0.543,-0.708,-0.331,0.55,21.3,18.68,1784845591533.038
-0.561,-0.701,-0.304,-0.21,21.42,19.81,1784845591533.397
-0.556,-0.706,-0.284,1.56,21.85,21.64,1784845591533.7578
-0.563,-0.689,-0.276,3.66,22.55,22.64,1784845591534.113
-0.587,-0.664,-0.271,3.05,21.49,23.9,1784845591534.4692
-0.599,-0.654,-0.265,1.01,18.49,24.93,1784845591534.829
-0.615,-0.637,-0.278,-2.9,14.71,23.68,1784845591535.1848
-0.635,-0.621,-0.288,-9.16,10.35,21.79,1784845591535.533
-0.658,-0.632,-0.288,-14.28,7.32,21.21,1784845591535.8938
-0.676,-0.647,-0.294,-17.4,5.19,21.55,1784845591536.265
-0.683,-0.648,-0.294,-18.8,3.45,22.0,1784845591536.768
-0.683,-0.636,-0.296,-18.22,1.71,22.25,1784845591537.162
-0.691,-0.626,-0.291,-17.67,0.09,21.36,1784845591537.528
-0.675,-0.636,-0.286,-15.17,-0.46,18.83,1784845591537.886
-0.736,-0.592,-0.313,-17.03,-4.36,14.37,1784845591538.2322
-0.731,-0.597,-0.292,-23.65,-8.42,15.96,1784845591538.5852
-0.731,-0.621,-0.29,-23.83,-8.67,15.78,1784845591538.938
-0.758,-0.613,-0.307,-23.32,-10.16,15.38,1784845591539.2917
-0.748,-0.608,-0.314,-25.03,-13.18,16.97,1784845591539.6428
-0.733,-0.589,-0.315,-26.92,-14.47,16.82,1784845591540.0032
-0.728,-0.577,-0.33,-26.15,-13.76,15.72,1784845591540.3591
-0.736,-0.582,-0.343,-23.44,-13.76,13.34,1784845591540.7158
-0.745,-0.587,-0.35,-22.46,-14.74,9.34,1784845591541.085
-0.755,-0.594,-0.352,-23.26,-16.08,5.74,1784845591541.4421
-0.762,-0.599,-0.36,-24.26,-17.43,3.23,1784845591541.8032
-0.77,-0.603,-0.365,-24.26,-17.85,1.46,1784845591542.1628
-0.776,-0.6,-0.377,-22.95,-18.28,0.09,1784845591542.51
-0.778,-0.586,-0.391,-22.4,-18.74,-1.1,1784845591542.8438
-0.779,-0.573,-0.397,-22.49,-18.92,-2.47,1784845591543.156
-0.777,-0.563,-0.401,-21.64,-19.38,-4.7,1784845591543.4648
-0.781,-0.547,-0.411,-21.33,-20.02,-7.45,1784845591543.785
-0.779,-0.528,-0.419,-22.25,-20.48,-9.46,1784845591544.102
-0.772,-0.511,-0.426,-24.45,-21.3,-11.6,1784845591544.4219
-0.766,-0.495,-0.434,-27.07,-22.34,-14.53,1784845591544.733
-0.763,-0.478,-0.442,-30.98,-23.8,-17.61,1784845591545.049
-0.755,-0.467,-0.446,-35.89,-24.57,-19.84,1784845591545.365
-0.753,-0.478,-0.444,-39.16,-25.03,-22.4,1784845591545.681
-0.751,-0.498,-0.442,-40.01,-25.27,-25.21,1784845591545.9941
-0.754,-0.512,-0.439,-38.48,-24.9,-27.25,1784845591546.3308
-0.755,-0.523,-0.438,-34.49,-23.71,-28.02,1784845591546.659
-0.755,-0.531,-0.439,-29.79,-21.61,-27.38,1784845591546.9749
-0.768,-0.536,-0.437,-25.39,-19.38,-25.91,1784845591547.2908
-0.757,-0.53,-0.437,-20.39,-17.18,-22.55,1784845591547.6082
-0.752,-0.521,-0.431,-15.93,-14.59,-19.56,1784845591547.9229
-0.751,-0.502,-0.426,-12.79,-12.88,-16.82,1784845591548.233
-0.746,-0.479,-0.422,-11.2,-11.29,-13.79,1784845591548.549
-0.73,-0.481,-0.414,-10.16,-9.8,-11.87,1784845591548.866
-0.725,-0.498,-0.407,-7.97,-9.09,-11.38,1784845591549.1797
-0.722,-0.508,-0.403,-3.88,-8.91,-11.14,1784845591549.488
-0.713,-0.515,-0.396,0.52,-7.93,-10.22,1784845591549.802
-0.7,-0.531,-0.389,6.44,-6.56,-9.34,1784845591550.106
-0.697,-0.533,-0.379,13.55,-5.1,-9.49,1784845591550.41
-0.7,-0.525,-0.369,19.23,-3.54,-9.34,1784845591550.718
-0.702,-0.53,-0.358,23.26,-2.35,-9.0,1784845591551.029
-0.708,-0.54,-0.349,26.0,-1.95,-9.28,1784845591551.338
-0.715,-0.546,-0.349,26.7,-2.44,-9.92,1784845591551.642
-0.719,-0.554,-0.354,24.72,-4.06,-10.62,1784845591551.952
-0.723,-0.563,-0.361,20.48,-5.95,-11.78,1784845591552.28
-0.725,-0.572,-0.362,14.86,-7.78,-13.06,1784845591552.609
-0.726,-0.579,-0.355,9.52,-9.7,-14.01,1784845591552.916
-0.726,-0.584,-0.346,4.97,-11.32,-14.59,1784845591553.24
-0.726,-0.584,-0.337,0.7,-12.97,-14.77,1784845591553.5537
-0.723,-0.58,-0.329,-3.27,-15.08,-14.86,1784845591553.8672
-0.716,-0.571,-0.322,-8.24,-17.61,-14.71,1784845591554.183
-0.711,-0.564,-0.311,-13.34,-20.42,-14.59,1784845591554.5
-0.707,-0.563,-0.301,-17.94,-23.32,-14.62,1784845591554.819
-0.709,-0.563,-0.296,-22.64,-26.25,-14.56,1784845591555.1292
-0.715,-0.568,-0.296,-27.13,-29.15,-14.13,1784845591555.445
-0.726,-0.565,-0.297,-31.5,-31.74,-13.58,1784845591555.7593
-0.728,-0.565,-0.3,-35.95,-34.27,-13.0,1784845591556.0752
-0.73,-0.573,-0.304,-40.1,-37.02,-12.57,1784845591556.386
-0.733,-0.579,-0.315,-43.82,-39.61,-12.21,1784845591556.701
-0.728,-0.588,-0.322,-46.57,-41.41,-11.32,1784845591557.016
-0.727,-0.594,-0.326,-48.13,-42.85,-10.25,1784845591557.3262
-0.73,-0.597,-0.332,-48.74,-43.82,-8.91,1784845591557.636
-0.731,-0.6,-0.337,-48.74,-43.73,-7.45,1784845591557.9487
-0.734,-0.605,-0.34,-47.79,-43.37,-6.16,1784845591558.264
-0.737,-0.605,-0.341,-47.33,-43.46,-5.19,1784845591558.574
-0.734,-0.6,-0.345,-48.49,-43.7,-4.33,1784845591558.899
-0.728,-0.596,-0.35,-50.66,-43.7,-3.69,1784845591559.2131
-0.726,-0.598,-0.356,-52.74,-43.67,-3.42,1784845591559.5242
-0.729,-0.597,-0.361,-54.93,-43.43,-3.69,1784845591559.832
-0.729,-0.595,-0.368,-57.5,-43.43,-4.24,1784845591560.147
-0.729,-0.595,-0.371,-60.37,-43.21,-5.31,1784845591560.4602
-0.732,-0.593,-0.369,-62.75,-42.54,-6.65,1784845591560.774
-0.736,-0.591,-0.368,-64.27,-41.75,-8.15,1784845591561.085
-0.739,-0.59,-0.362,-65.07,-41.02,-9.49,1784845591561.395
-0.742,-0.589,-0.354,-65.43,-40.13,-10.5,1784845591561.712
-0.745,-0.586,-0.346,-65.22,-38.91,-11.57,1784845591562.022
-0.747,-0.581,-0.341,-64.58,-37.72,-12.42,1784845591562.339
-0.749,-0.573,-0.338,-63.84,-36.32,-13.0,1784845591562.655
-0.748,-0.567,-0.334,-63.02,-34.79,-13.46,1784845591562.9702
-0.75,-0.562,-0.333,-62.32,-33.2,-13.92,1784845591563.2808
-0.752,-0.555,-0.328,-61.62,-31.98,-14.4,1784845591563.595
-0.756,-0.549,-0.323,-61.01,-31.13,-14.71,1784845591563.9119
-0.756,-0.543,-0.323,-60.98,-30.0,-14.95,1784845591564.23
-0.76,-0.541,-0.323,-60.73,-28.93,-15.26,1784845591564.542
-0.755,-0.537,-0.321,-58.75,-26.86,-15.5,1784845591565.191
-0.752,-0.531,-0.323,-57.71,-25.94,-15.53,1784845591565.5051
-0.745,-0.431,-0.415,-0.21,13.0,2.38,1784845591566.2432
-0.745,-0.437,-0.41,0.46,13.31,0.76,1784845591566.549
-0.748,-0.444,-0.412,0.85,13.67,-0.55,1784845591566.8582
-0.745,-0.446,-0.413,0.7,14.37,-1.19,1784845591567.1658
-0.739,-0.445,-0.41,0.31,14.92,-1.4,1784845591567.4739
-0.734,-0.445,-0.405,0.03,15.5,-1.4,1784845591577.417
-0.732,-0.443,-0.394,-0.06,16.24,-1.22,1784845591590.6702
-0.734,-0.441,-0.384,0.34,16.63,-0.73,1784845591598.176
-0.735,-0.441,-0.372,1.19,16.79,-0.46,1784845591607.9722
-0.741,-0.438,-0.366,2.59,16.72,-0.27,1784845591617.2002
-0.748,-0.436,-0.364,4.3,16.45,-0.06,1784845591627.5242
-0.751,-0.437,-0.365,5.4,16.36,0.03,1784845591640.843
-0.753,-0.437,-0.367,5.86,16.24,0.12,1784845591646.476
-0.755,-0.439,-0.368,6.01,15.96,-0.06,1784845591656.7512
-0.758,-0.44,-0.364,5.55,15.63,-0.27,1784845591667.2058
-0.767,-0.446,-0.358,4.85,15.14,-0.18,1784845591677.6472
-0.774,-0.45,-0.353,4.55,14.44,0.12,1784845591690.9849
-0.781,-0.452,-0.351,4.52,13.73,0.31,1784845591696.548
-0.782,-0.454,-0.351,4.79,12.88,0.15,1784845591706.8857
-0.781,-0.453,-0.349,5.37,11.99,-0.21,1784845591717.349
-0.783,-0.451,-0.352,6.1,10.93,-0.85,1784845591730.742
-0.785,-0.45,-0.354,6.65,9.64,-1.77,1784845591736.323
-0.787,-0.448,-0.36,7.26,8.21,-2.78,1784845591746.449
-0.785,-0.447,-0.359,8.18,6.93,-3.94,1784845591756.997
-0.784,-0.446,-0.356,9.13,5.65,-5.28,1784845591767.497
-0.779,-0.443,-0.356,9.77,4.46,-6.41,1784845591777.633
-0.772,-0.439,-0.36,10.16,3.2,-7.39,1784845591791.2
-0.77,-0.437,-0.369,10.56,2.14,-8.45,1784845591796.7732
-0.765,-0.436,-0.385,10.71,1.4,-9.49,1784845591806.849
-0.769,-0.428,-0.393,11.54,1.16,-10.47,1784845591817.232
-0.77,-0.427,-0.393,12.76,0.79,-10.77,1784845591828.089
-0.766,-0.439,-0.394,14.28,0.06,-11.63,1784845591841.1711
-0.761,-0.451,-0.396,16.17,-0.09,-12.39,1784845591846.878
-0.758,-0.476,-0.399,19.26,0.12,-13.28,1784845591857.414
-0.75,-0.511,-0.397,24.26,0.18,-14.86,1784845591870.545
-0.73,-0.538,-0.39,29.63,-0.12,-16.75,1784845591883.044
-0.708,-0.585,-0.408,35.71,-1.04,-18.52,1784845591886.959
-0.695,-0.65,-0.449,41.32,-2.23,-21.58,1784845591897.248
-0.69,-0.692,-0.492,42.45,-3.63,-25.06,1784845591908.01
-0.682,-0.733,-0.534,38.67,-5.62,-28.35,1784845591921.3171
-0.667,-0.753,-0.575,27.59,-9.03,-32.75,1784845591927.1748
-0.652,-0.748,-0.613,7.11,-13.06,-36.99,1784845591937.5479
-0.629,-0.737,-0.637,-22.64,-17.67,-41.08,1784845591950.5322
-0.613,-0.742,-0.662,-56.89,-23.56,-46.75,1784845591956.328
-0.586,-0.767,-0.688,-90.4,-28.75,-52.98,1784845591967.296
-0.559,-0.781,-0.709,-119.75,-32.72,-57.92,1784845591977.761
-0.52,-0.806,-0.735,-141.33,-34.0,-61.59,1784845591991.345
-0.493,-0.833,-0.756,-152.75,-32.53,-65.77,1784845591997.207
-0.484,-0.848,-0.761,-153.14,-28.11,-69.09,1784845592008.086
-0.495,-0.836,-0.751,-143.35,-21.12,-70.99,1784845592021.426
-0.51,-0.796,-0.733,-127.57,-13.34,-71.93,1784845592027.2861
-0.521,-0.765,-0.726,-109.5,-6.32,-72.97,1784845592037.707
-0.524,-0.732,-0.75,-93.57,-0.43,-74.25,1784845592050.873
-0.538,-0.708,-0.769,-80.69,5.19,-75.84,1784845592056.611
-0.559,-0.697,-0.792,-68.21,10.1,-78.34,1784845592067.2651
-0.579,-0.678,-0.827,-57.92,15.72,-80.66,1784845592077.903
-0.595,-0.653,-0.851,-54.41,21.73,-82.49,1784845592091.1538
-0.611,-0.639,-0.858,-56.12,27.16,-84.63,1784845592096.8572
-0.63,-0.629,-0.845,-60.3,32.32,-86.61,1784845592107.469
-0.641,-0.614,-0.825,-64.73,37.23,-86.43,1784845592120.9119
-0.646,-0.601,-0.82,-69.61,41.72,-83.83,1784845592126.545
-0.646,-0.601,-0.82,-76.85,45.23,-80.63,1784845592137.2427
-0.642,-0.595,-0.81,-82.98,48.01,-78.52,1784845592147.8938
-0.642,-0.601,-0.798,-83.68,51.48,-77.21,1784845592161.098
-0.641,-0.619,-0.783,-78.92,55.21,-76.97,1784845592166.896
-0.65,-0.629,-0.77,-78.92,55.21,-76.97,1784845592177.5308
-0.674,-0.619,-0.76,-71.6,58.32,-76.6,1784845592190.8381
-0.684,-0.615,-0.756,-64.67,60.03,-74.62,1784845592196.569
-0.692,-0.614,-0.764,-59.6,60.3,-74.28,1784845592207.208
-0.697,-0.604,-0.783,-57.99,60.34,-74.59,1784845592217.9512
-0.704,-0.591,-0.792,-59.63,60.88,-73.12,1784845592231.1968
-0.701,-0.574,-0.793,-63.17,61.19,-70.77,1784845592236.9722
-0.687,-0.558,-0.781,-66.29,61.89,-68.88,1784845592247.6091
-0.674,-0.551,-0.755,-67.23,62.44,-66.68,1784845592269.399
-0.649,-0.534,-0.735,-65.19,62.5,-64.97,1784845592270.3318
-0.626,-0.513,-0.726,-62.44,63.26,-63.81,1784845592277.363
-0.597,-0.509,-0.722,-60.3,63.51,-64.0,1784845592290.553
-0.575,-0.517,-0.73,-59.11,63.14,-66.1,1784845592296.326
-0.561,-0.526,-0.747,-58.6,63.72,-67.81,1784845592306.9812
-0.552,-0.526,-0.751,-57.34,65.43,-67.51,1784845592317.6692
-0.541,-0.515,-0.751,-54.78,66.53,-65.46,1784845592331.357
-0.518,-0.502,-0.751,-51.58,66.9,-62.07,1784845592336.8362
-0.484,-0.506,-0.764,-48.52,67.23,-57.95,1784845592347.38
-0.457,-0.511,-0.78,-47.73,67.42,-54.63,1784845592360.733
-0.447,-0.503,-0.779,-49.87,67.32,-51.7,1784845592366.3628
-0.435,-0.485,-0.764,-53.83,65.8,-48.83,1784845592376.943
-0.42,-0.474,-0.752,-57.16,63.57,-46.27,1784845592387.7517
-0.39,-0.482,-0.75,-59.54,61.95,-44.31,1784845592401.032
-0.361,-0.483,-0.759,-62.81,60.82,-43.46,1784845592406.689
-0.339,-0.476,-0.797,-69.64,60.12,-42.02,1784845592417.4048
-0.328,-0.462,-0.829,-83.68,59.42,-39.19,1784845592430.697
-0.32,-0.469,-0.84,-102.51,57.56,-36.47,1784845592436.595
-0.306,-0.492,-0.834,-122.14,55.24,-34.94,1784845592447.489
-0.27,-0.532,-0.782,-133.52,54.54,-34.42,1784845592460.4749
-0.225,-0.586,-0.726,-126.99,54.41,-34.97,1784845592466.3198
-0.162,-0.64,-0.709,-106.6,54.66,-36.04,1784845592477.242
-0.168,-0.66,-0.721,-84.75,55.24,-42.45,1784845592487.9402
-0.173,-0.661,-0.735,-69.03,55.88,-40.68,1784845592501.162
-0.155,-0.633,-0.768,-56.58,56.0,-36.87,1784845592506.803
-0.167,-0.574,-0.803,-48.28,56.76,-39.06,1784845592517.7322
-0.174,-0.522,-0.833,-42.6,57.53,-42.12,1784845592530.9849
-0.175,-0.451,-0.841,-35.95,58.63,-47.12,1784845592536.79
-0.188,-0.364,-0.828,-26.12,59.6,-51.64,1784845592547.3289
-0.207,-0.295,-0.822,-18.65,58.2,-53.38,1784845592560.5781
-0.219,-0.239,-0.841,-18.25,54.14,-53.35,1784845592566.5159
-0.217,-0.199,-0.883,-23.68,49.68,-51.61,1784845592576.9531
-0.207,-0.189,-0.92,-31.98,45.9,-49.35,1784845592587.658
-0.209,-0.178,-0.938,-42.02,42.36,-48.31,1784845592600.885
-0.208,-0.163,-0.951,-51.85,38.88,-46.72,1784845592606.642
-0.212,-0.148,-0.936,-60.7,35.89,-44.53,1784845592617.3042
-0.209,-0.14,-0.93,-66.81,33.23,-42.18,1784845592630.559
-0.2,-0.142,-0.941,-70.13,31.13,-39.61,1784845592636.2612
-0.2,-0.141,-0.945,-71.75,30.4,-37.2,1784845592646.993
-0.198,-0.142,-0.948,-71.47,30.18,-35.13,1784845592657.624
-0.186,-0.155,-0.953,-68.85,30.82,-33.54,1784845592670.993
-0.17,-0.165,-0.96,-64.0,32.23,-33.72,1784845592676.6409
-0.156,-0.16,-0.99,-57.47,33.94,-34.18,1784845592687.387
-0.152,-0.142,-1.017,-52.52,36.38,-34.76,1784845592700.602
-0.134,-0.115,-1.03,-49.93,38.45,-36.87,1784845592706.317
-0.143,-0.108,-1.046,-50.14,40.38,-38.51,1784845592716.9878
-0.096,-0.104,-1.047,-51.64,42.3,-33.69,1784845592727.676
-0.069,-0.081,-1.055,-51.88,44.71,-33.39,1784845592741.028
-0.048,-0.076,-1.049,-52.28,47.21,-33.57,1784845592746.7808
-0.037,-0.076,-1.029,-51.06,49.68,-33.23,1784845592757.4358
-0.012,-0.091,-1.03,-47.52,52.28,-32.04,1784845592770.7222
0.01,-0.111,-1.026,-44.95,54.87,-31.1,1784845592776.58
0.017,-0.104,-1.037,-47.79,56.15,-29.48,1784845592787.062
0.034,-0.088,-1.03,-58.47,55.79,-25.67,1784845592797.772
0.078,-0.104,-0.977,-69.89,53.19,-20.97,1784845592810.954
0.152,-0.134,-0.978,-81.15,48.71,-19.04,1784845592816.796
0.151,-0.093,-0.914,-95.92,41.93,-25.09,1784845592827.434
0.148,-0.095,-0.844,-100.77,37.2,-25.09,1784845592840.699
0.202,-0.119,-0.81,-96.16,32.32,-18.95,1784845592846.5972
0.166,-0.104,-0.821,-90.0,29.02,-22.1,1784845592857.186
0.116,-0.119,-0.843,-85.45,27.22,-23.96,1784845592870.647
0.096,-0.137,-0.844,-82.95,25.79,-23.65,1784845592876.2441
0.083,-0.127,-0.833,-77.06,25.3,-23.96,1784845592886.994
0.076,-0.084,-0.808,-65.49,26.31,-22.86,1784845592897.682
0.077,-0.026,-0.777,-50.26,28.72,-20.75,1784845592919.2268
0.057,0.036,-0.75,-35.16,30.82,-19.99,1784845592920.049
0.049,0.109,-0.742,-22.86,31.1,-18.65,1784845592927.532
0.055,0.154,-0.764,-13.82,31.22,-16.05,1784845592940.617
0.04,0.176,-0.794,-8.09,32.01,-14.07,1784845592946.321
0.017,0.198,-0.816,-5.52,32.35,-12.6,1784845592956.888
0.01,0.209,-0.83,-3.39,32.38,-10.8,1784845592967.43
-0.001,0.233,-0.835,-0.55,31.71,-8.73,1784845592977.812
-0.004,0.269,-0.83,1.5,30.3,-5.86,1784845592991.094
0.004,0.306,-0.844,2.01,27.99,-2.78,1784845592996.8
0.004,0.33,-0.869,-0.24,25.42,0.27,1784845593007.0771
-0.001,0.346,-0.878,-3.51,23.38,3.51,1784845593017.559
0.013,0.352,-0.885,-5.07,21.88,7.72,1784845593030.8782
0.023,0.345,-0.896,-4.27,20.97,11.41,1784845593036.86
0.016,0.339,-0.897,-1.8,20.84,14.4,1784845593047.112
0.021,0.341,-0.9,2.26,21.06,17.76,1784845593057.394
0.041,0.345,-0.918,6.56,21.12,21.55,1784845593070.73
0.054,0.355,-0.947,9.37,21.12,25.39,1784845593076.7732
0.067,0.375,-0.985,9.52,21.0,29.94,1784845593087.009
0.08,0.388,-1.026,7.11,21.12,35.58,1784845593097.4788
0.086,0.385,-1.052,2.56,21.15,41.9,1784845593110.995
0.094,0.386,-1.05,-3.97,21.06,48.07,1784845593116.566
0.12,0.373,-1.035,-11.66,19.99,53.74,1784845593127.127
0.146,0.344,-1.028,-19.78,17.73,58.41,1784845593137.6729
0.162,0.305,-1.034,-29.15,14.19,61.86,1784845593151.01
0.168,0.267,-1.073,-41.02,9.03,64.55,1784845593156.7659
0.16,0.213,-1.104,-53.68,4.46,67.69,1784845593167.348
0.145,0.166,-1.106,-63.39,1.34,71.14,1784845593177.794
0.142,0.14,-1.077,-69.12,-0.24,74.98,1784845593191.081
0.161,0.114,-1.008,-70.28,-0.79,79.23,1784845593196.7317
0.2,0.091,-0.946,-64.94,-1.28,83.29,1784845593207.118
0.233,0.071,-0.945,-53.99,-1.01,85.45,1784845593217.679
0.224,0.058,-0.981,-41.84,1.37,85.67,1784845593231.1108
0.196,0.071,-1.019,-31.98,4.7,84.44,1784845593236.834
0.19,0.103,-1.046,-24.63,8.21,83.77,1784845593247.1877
0.185,0.128,-1.049,-19.56,12.33,83.32,1784845593257.718
0.172,0.154,-1.042,-17.06,16.36,82.83,1784845593271.2969
0.174,0.165,-1.025,-15.35,19.9,82.37,1784845593277.0933
0.177,0.165,-1.014,-12.73,22.74,81.03,1784845593299.846
0.169,0.176,-1.014,-9.43,24.69,79.56,1784845593300.6047
0.159,0.187,-1.024,-8.7,25.42,78.86,1784845593306.2332
0.152,0.185,-1.026,-11.44,25.61,78.55,1784845593316.968
0.15,0.174,-1.014,-14.16,26.12,78.43,1784845593327.528
0.168,0.167,-0.992,-15.29,26.73,78.07,1784845593340.8909
0.187,0.184,-0.974,-14.8,26.7,77.7,1784845593346.556
0.193,0.197,-0.965,-14.86,26.15,78.49,1784845593357.441
0.196,0.202,-0.974,-17.0,25.36,79.81,1784845593371.035
0.203,0.196,-0.982,-19.17,25.06,81.67,1784845593376.51
0.207,0.175,-0.977,-19.62,25.57,84.9,1784845593387.1511
0.21,0.143,-0.954,-18.04,26.46,88.56,1784845593397.81
0.22,0.12,-0.925,-15.47,26.73,91.37,1784845593410.93
0.22,0.12,-0.925,-11.9,27.01,93.3,1784845593416.8188
0.237,0.099,-0.902,-6.47,27.83,93.91,1784845593427.368
0.25,0.079,-0.894,-0.18,28.66,94.15,1784845593440.6719
0.258,0.085,-0.904,5.25,29.45,95.55,1784845593446.315
0.262,0.099,-0.913,8.97,30.4,97.69,1784845593456.882
0.267,0.093,-0.917,8.97,30.4,97.69,1784845593467.6611
0.279,0.074,-0.913,10.04,31.34,99.8,1784845593480.8042
0.303,0.036,-0.903,10.71,32.2,101.41,1784845593486.706
0.315,-0.01,-0.892,13.18,33.2,101.96,1784845593497.3108
0.322,-0.026,-0.884,16.48,34.67,101.57,1784845593510.6602
0.323,-0.027,-0.881,21.3,36.56,101.41,1784845593516.598
0.328,-0.016,-0.89,25.36,38.39,101.29,1784845593527.273
0.337,-0.005,-0.901,28.02,40.47,101.35,1784845593540.467
0.348,-0.012,-0.912,29.88,42.63,101.72,1784845593546.133
0.349,-0.026,-0.921,27.74,44.1,102.33,1784845593557.201
0.346,-0.043,-0.912,22.22,44.4,102.91,1784845593567.791
0.353,-0.065,-0.898,17.24,43.67,103.37,1784845593581.0518
0.36,-0.082,-0.882,11.23,43.0,102.45,1784845593586.835
0.372,-0.101,-0.857,4.97,41.78,100.22,1784845593597.688
0.382,-0.13,-0.84,1.07,40.38,97.51,1784845593610.955
0.386,-0.15,-0.836,-2.75,38.91,96.07,1784845593616.633
0.395,-0.16,-0.839,-6.74,37.57,95.98,1784845593627.062
0.408,-0.175,-0.84,-9.06,37.23,96.16,1784845593637.762
0.415,-0.194,-0.842,-10.53,37.81,95.71,1784845593651.006
0.42,-0.213,-0.834,-11.26,38.3,95.19,1784845593656.7412
0.424,-0.23,-0.813,-10.59,38.33,94.94,1784845593667.4712
0.433,-0.247,-0.796,-10.71,37.97,94.33,1784845593680.768
0.434,-0.252,-0.781,-12.79,37.84,92.81,1784845593686.566
0.432,-0.258,-0.75,-13.25,38.06,90.91,1784845593697.202
0.445,-0.263,-0.721,-10.96,38.03,88.44,1784845593707.8452
0.457,-0.261,-0.706,-7.05,38.0,85.88,1784845593721.427
0.451,-0.263,-0.69,-2.81,38.42,83.22,1784845593726.983
0.454,-0.258,-0.696,0.43,37.72,80.66,1784845593737.487
0.461,-0.252,-0.71,1.34,37.05,78.13,1784845593748.0112
0.455,-0.25,-0.707,0.52,36.77,75.72,1784845593761.438
0.462,-0.251,-0.702,-0.03,36.35,73.61,1784845593767.3962
0.46,-0.256,-0.684,0.67,36.26,72.21,1784845593777.428
0.454,-0.255,-0.668,1.89,35.31,70.89,1784845593787.931
0.458,-0.242,-0.676,1.19,33.72,69.43,1784845593801.15
0.46,-0.236,-0.717,-1.34,33.05,68.21,1784845593806.932
0.449,-0.252,-0.672,-1.07,33.57,67.08,1784845593817.2458
0.478,-0.232,-0.688,0.18,30.82,65.77,1784845593827.726
0.486,-0.214,-0.714,-0.18,29.48,64.82,1784845593841.075
0.482,-0.213,-0.718,-0.98,28.75,64.52,1784845593846.8962
0.48,-0.206,-0.725,-2.87,27.19,63.66,1784845593857.311
0.476,-0.198,-0.73,-6.78,24.72,63.48,1784845593868.254
0.474,-0.202,-0.76,-12.48,22.16,65.43,1784845593881.186
0.456,-0.219,-0.795,-20.45,20.54,69.37,1784845593886.826
0.446,-0.245,-0.796,-27.59,19.44,73.09,1784845593897.671
0.467,-0.273,-0.757,-30.03,18.92,76.14,1784845593910.8801
0.504,-0.3,-0.695,-26.03,19.65,78.13,1784845593916.4521
0.531,-0.32,-0.69,-15.23,20.42,78.28,1784845593927.571
0.518,-0.33,-0.73,-4.09,21.58,78.59,1784845593943.855
0.486,-0.331,-0.775,0.64,22.03,80.9,1784845593951.05
0.486,-0.332,-0.815,-1.65,21.15,84.44,1784845593957.011
0.511,-0.352,-0.831,-6.62,20.42,88.05,1784845593967.217
0.518,-0.376,-0.828,-10.59,21.0,90.18,1784845593977.823
0.512,-0.387,-0.795,-12.36,22.03,90.4,1784845593991.4219
0.517,-0.407,-0.751,-12.54,21.88,89.45,1784845593997.2239
0.518,-0.433,-0.727,-12.15,20.81,87.31,1784845594007.836
0.509,-0.464,-0.721,-10.8,19.96,85.33,1784845594020.869
0.503,-0.487,-0.733,-10.07,18.89,83.96,1784845594026.5
0.492,-0.497,-0.748,-12.51,17.58,83.13,1784845594037.728
0.503,-0.497,-0.762,-19.44,15.38,83.01,1784845594050.672
0.529,-0.493,-0.784,-28.63,13.49,82.28,1784845594056.602
0.538,-0.504,-0.784,-35.25,13.46,80.29,1784845594067.083
0.54,-0.525,-0.759,-37.42,13.67,76.54,1784845594077.641
0.556,-0.555,-0.731,-35.71,13.34,72.05,1784845594091.3489
0.553,-0.583,-0.717,-31.65,13.92,67.84,1784845594096.694
0.539,-0.603,-0.703,-25.88,14.83,63.97,1784845594107.369
0.542,-0.612,-0.697,-17.91,15.56,60.03,1784845594120.707
0.542,-0.609,-0.695,-9.43,17.0,56.37,1784845594126.38
0.534,-0.583,-0.687,-1.22,18.92,53.38,1784845594137.048
0.537,-0.545,-0.688,6.93,20.45,51.7,1784845594147.488
0.529,-0.525,-0.7,12.3,21.76,50.23,1784845594160.975
0.519,-0.51,-0.708,14.95,22.71,48.22,1784845594166.682
0.53,-0.495,-0.714,14.31,22.28,47.4,1784845594177.4038
0.522,-0.511,-0.721,11.11,21.58,46.66,1784845594188.1301
0.499,-0.524,-0.709,8.09,20.42,44.65,1784845594201.217
0.515,-0.515,-0.71,5.77,18.89,43.46,1784845594206.946
0.521,-0.513,-0.723,5.4,19.26,41.9,1784845594217.366
0.518,-0.503,-0.729,9.83,21.0,39.58,1784845594227.773
0.57,-0.475,-0.746,14.22,22.64,38.64,1784845594241.184
0.593,-0.475,-0.737,15.72,25.12,38.42,1784845594246.849
0.566,-0.48,-0.722,15.63,26.25,37.63,1784845594257.652
0.541,-0.492,-0.713,11.63,25.15,37.39,1784845594270.935
0.52,-0.522,-0.686,5.49,23.07,36.53,1784845594276.633
0.507,-0.534,-0.656,2.08,20.02,34.85,1784845594287.1628
0.51,-0.528,-0.637,1.07,16.75,32.87,1784845594297.655
0.521,-0.527,-0.624,0.37,14.16,30.37,1784845594310.928
0.527,-0.531,-0.626,-1.37,11.93,28.5,1784845594316.801
0.517,-0.535,-0.627,-4.33,9.52,28.32,1784845594326.854
0.513,-0.547,-0.626,-10.13,6.35,29.63,1784845594337.7112
0.528,-0.58,-0.606,-17.06,3.78,31.22,1784845594350.9573
0.533,-0.616,-0.569,-20.87,2.62,30.49,1784845594356.516
0.542,-0.636,-0.545,-19.65,0.95,28.26,1784845594367.2268
0.552,-0.626,-0.559,-14.89,-0.85,25.61,1784845594377.454
0.537,-0.611,-0.577,-10.41,-1.19,24.41,1784845594391.1072
0.524,-0.615,-0.585,-9.58,-1.65,24.63,1784845594396.875
0.542,-0.632,-0.58,-9.98,-3.17,25.48,1784845594406.783
0.548,-0.653,-0.572,-8.61,-4.0,25.06,1784845594417.124
0.54,-0.666,-0.559,-5.43,-4.58,23.1,1784845594427.62
0.541,-0.658,-0.559,-1.62,-5.71,20.39,1784845594441.406
0.541,-0.644,-0.583,1.46,-7.2,17.49,1784845594446.946
0.526,-0.623,-0.608,1.34,-8.73,14.07,1784845594456.8948
0.519,-0.612,-0.61,-1.13,-9.98,11.87,1784845594467.653
0.523,-0.614,-0.602,-2.81,-11.63,10.41,1784845594477.885
0.518,-0.617,-0.584,-3.48,-12.57,8.55,1784845594491.263
0.499,-0.62,-0.561,-3.17,-12.94,5.62,1784845594496.686
