ax,ay,az,gx,gy,gz,timestamp_ms
-0.863,-0.35,-0.211,22.31,7.26,24.02,1785094072763.42
-0.871,-0.36,-0.193,19.23,7.78,23.44,1785094072778.1538
-0.874,-0.374,-0.178,16.24,7.2,24.78,1785094072778.62
-0.878,-0.383,-0.171,13.7,6.16,26.73,1785094072779.036
-0.879,-0.391,-0.175,12.27,5.31,28.29,1785094072779.4548
-0.881,-0.4,-0.188,12.09,5.07,28.84,1785094072779.861
-0.887,-0.406,-0.2,13.03,4.97,28.57,1785094072780.256
-0.897,-0.405,-0.208,14.07,4.64,28.08,1785094072780.662
-0.905,-0.401,-0.212,14.13,3.81,27.8,1785094072781.106
-0.906,-0.396,-0.214,13.12,2.87,27.47,1785094072781.544
-0.91,-0.394,-0.211,11.66,2.14,26.61,1785094072781.923
-0.914,-0.392,-0.21,9.34,1.04,26.28,1785094072782.312
-0.911,-0.394,-0.212,6.2,-0.03,25.97,1785094072782.659
-0.906,-0.393,-0.213,2.2,-1.04,25.09,1785094072783.019
-0.906,-0.393,-0.213,-1.25,-1.95,23.59,1785094072783.356
-0.9,-0.399,-0.211,-4.12,-2.69,21.67,1785094072783.6968
-0.896,-0.405,-0.211,-6.41,-3.33,19.87,1785094072784.0361
-0.894,-0.406,-0.209,-8.12,-3.66,17.88,1785094072784.414
-0.889,-0.406,-0.205,-8.85,-3.85,15.5,1785094072784.76
-0.887,-0.406,-0.199,-8.85,-3.85,15.5,1785094072785.103
-0.886,-0.403,-0.198,-8.85,-4.18,13.43,1785094072785.4668
-0.887,-0.4,-0.201,-8.58,-4.46,11.38,1785094072785.8079
-0.885,-0.402,-0.2,-7.9,-4.52,9.09,1785094072786.1572
-0.882,-0.405,-0.199,-6.74,-4.49,6.99,1785094072786.493
-0.882,-0.403,-0.197,-5.1,-4.36,5.37,1785094072786.826
-0.88,-0.401,-0.197,-3.57,-4.49,4.27,1785094072787.1519
-0.882,-0.399,-0.199,-2.2,-4.79,3.2,1785094072787.4802
-0.883,-0.397,-0.202,-1.37,-5.13,2.66,1785094072787.842
-0.885,-0.391,-0.207,-1.16,-5.43,2.56,1785094072788.164
-0.884,-0.388,-0.216,-1.53,-5.8,2.35,1785094072788.492
-0.887,-0.384,-0.217,-2.87,-6.26,2.23,1785094072788.8188
-0.887,-0.379,-0.219,-4.73,-6.59,2.35,1785094072789.143
-0.888,-0.376,-0.22,-6.78,-6.9,2.72,1785094072789.487
-0.888,-0.38,-0.227,-8.79,-7.14,2.75,1785094072789.815
-0.89,-0.384,-0.227,-10.59,-7.11,2.44,1785094072790.095
-0.89,-0.385,-0.227,-12.02,-6.99,2.2,1785094072790.401
-0.889,-0.386,-0.23,-13.06,-6.71,2.04,1785094072790.69
-0.887,-0.382,-0.232,-14.28,-6.16,1.8,1785094072790.9792
-0.886,-0.387,-0.231,-15.23,-5.43,1.16,1785094072791.263
-0.887,-0.397,-0.23,-15.41,-4.55,-0.06,1785094072791.549
-0.888,-0.405,-0.23,-14.56,-3.88,-1.53,1785094072791.8357
-0.886,-0.401,-0.229,-13.31,-3.27,-2.56,1785094072792.1182
-0.88,-0.395,-0.234,-11.75,-2.32,-3.63,1785094072792.404
-0.88,-0.392,-0.232,-9.52,-1.28,-5.37,1785094072792.691
-0.888,-0.388,-0.234,-6.96,-0.67,-7.32,1785094072792.9739
-0.897,-0.382,-0.236,-4.49,0.06,-8.79,1785094072793.298
-0.9,-0.378,-0.237,-2.32,0.61,-10.56,1785094072793.63
-0.901,-0.38,-0.24,-0.58,1.28,-12.67,1785094072793.926
-0.899,-0.378,-0.24,0.73,1.83,-14.47,1785094072794.209
-0.899,-0.371,-0.241,1.65,2.5,-15.84,1785094072794.494
-0.898,-0.364,-0.24,1.98,2.99,-16.54,1785094072794.7969
-0.897,-0.36,-0.24,2.11,3.54,-17.58,1785094072795.12
-0.898,-0.36,-0.235,2.35,3.94,-18.74,1785094072795.419
-0.9,-0.356,-0.235,2.69,4.12,-19.47,1785094072795.72
-0.9,-0.353,-0.233,2.93,4.39,-20.23,1785094072796.0051
-0.899,-0.349,-0.237,2.96,4.49,-20.94,1785094072796.284
-0.898,-0.347,-0.237,2.56,4.52,-21.27,1785094072796.572
-0.897,-0.349,-0.24,2.41,4.43,-21.64,1785094072796.863
-0.897,-0.342,-0.242,1.98,4.15,-21.49,1785094072797.154
-0.896,-0.333,-0.242,0.79,4.09,-20.72,1785094072797.426
-0.895,-0.332,-0.242,-0.37,4.24,-20.6,1785094072797.692
-0.894,-0.332,-0.241,-1.56,4.12,-20.57,1785094072797.955
-0.894,-0.329,-0.238,-2.87,3.81,-19.84,1785094072798.2058
-0.893,-0.326,-0.233,-4.03,3.57,-18.92,1785094072798.4697
-0.891,-0.327,-0.233,-5.04,3.81,-18.56,1785094072798.7341
-0.89,-0.329,-0.227,-5.71,3.97,-18.13,1785094072798.996
-0.893,-0.328,-0.22,-6.01,3.94,-17.12,1785094072799.248
-0.895,-0.328,-0.213,-5.74,4.03,-15.78,1785094072799.5122
-0.892,-0.33,-0.213,-4.82,4.15,-14.68,1785094072799.774
-0.891,-0.334,-0.213,-3.75,4.24,-13.31,1785094072800.0232
-0.891,-0.337,-0.212,-2.2,4.24,-12.15,1785094072800.301
-0.891,-0.333,-0.21,-0.55,3.94,-10.71,1785094072800.559
-0.882,-0.333,-0.21,0.98,3.72,-8.79,1785094072800.817
-0.888,-0.323,-0.218,1.4,3.36,-7.9,1785094072801.069
-0.886,-0.32,-0.21,1.86,3.14,-5.92,1785094072801.3281
-0.884,-0.329,-0.211,2.69,3.05,-3.97,1785094072801.5898
-0.888,-0.322,-0.209,2.72,2.14,-2.62,1785094072801.845
-0.885,-0.322,-0.208,2.44,1.1,-0.67,1785094072802.107
-0.882,-0.322,-0.21,1.77,0.27,0.61,1785094072802.367
-0.886,-0.322,-0.211,0.58,-0.7,1.95,1785094072802.6162
-0.879,-0.333,-0.211,0.27,-1.22,3.75,1785094072802.876
-0.883,-0.329,-0.212,-0.7,-1.92,5.34,1785094072803.134
-0.883,-0.328,-0.219,-2.32,-2.99,7.14,1785094072803.399
-0.886,-0.332,-0.222,-4.55,-3.72,8.58,1785094072803.655
-0.888,-0.332,-0.219,-6.74,-4.67,9.98,1785094072803.9119
-0.887,-0.333,-0.221,-8.61,-5.34,11.51,1785094072804.17
-0.888,-0.334,-0.223,-10.71,-6.1,12.79,1785094072804.43
-0.886,-0.337,-0.224,-12.94,-6.87,13.89,1785094072804.6929
-0.889,-0.342,-0.223,-14.68,-7.45,14.89,1785094072804.9578
-0.887,-0.348,-0.223,-15.56,-7.97,15.81,1785094072805.212
-0.884,-0.351,-0.223,-16.08,-8.33,16.45,1785094072805.4468
-0.883,-0.354,-0.223,-16.63,-8.73,17.12,1785094072805.6882
-0.884,-0.352,-0.224,-16.94,-9.13,17.73,1785094072805.933
-0.885,-0.354,-0.222,-17.18,-9.4,18.22,1785094072806.189
-0.886,-0.357,-0.225,-16.91,-9.46,18.49,1785094072806.451
-0.881,-0.358,-0.225,-16.79,-9.4,18.56,1785094072806.689
-0.874,-0.362,-0.229,-16.69,-9.49,18.59,1785094072806.947
-0.876,-0.364,-0.231,-16.51,-9.37,18.4,1785094072807.1821
-0.884,-0.365,-0.225,-15.9,-9.28,18.16,1785094072807.42
-0.891,-0.366,-0.228,-15.38,-9.34,18.01,1785094072807.6602
-0.894,-0.368,-0.232,-15.14,-9.06,17.58,1785094072807.892
-0.892,-0.371,-0.235,-14.77,-8.79,17.03,1785094072808.1282
-0.892,-0.374,-0.236,-14.44,-8.61,16.14,1785094072808.3699
-0.893,-0.374,-0.238,-14.16,-8.3,15.38,1785094072808.6099
-0.894,-0.37,-0.237,-14.13,-7.87,14.92,1785094072808.844
-0.891,-0.37,-0.236,-14.31,-7.51,14.37,1785094072809.088
-0.886,-0.373,-0.233,-13.95,-6.99,13.37,1785094072809.3271
-0.884,-0.376,-0.231,-13.18,-6.2,11.99,1785094072809.565
-0.883,-0.378,-0.231,-11.96,-5.43,10.53,1785094072809.809
-0.879,-0.375,-0.233,-10.59,-4.79,9.09,1785094072810.05
-0.879,-0.374,-0.23,-9.22,-4.09,7.57,1785094072810.2842
-0.883,-0.375,-0.229,-7.51,-3.39,5.98,1785094072810.517
-0.888,-0.375,-0.227,-5.68,-2.9,4.61,1785094072810.7542
-0.889,-0.371,-0.226,-3.69,-2.29,3.14,1785094072810.9893
-0.892,-0.367,-0.226,-1.95,-1.74,1.59,1785094072811.2068
-0.894,-0.365,-0.229,-0.64,-1.31,0.09,1785094072811.428
-0.898,-0.365,-0.231,0.43,-0.76,-1.34,1785094072811.651
-0.902,-0.361,-0.225,0.89,-0.37,-2.44,1785094072811.8699
-0.903,-0.359,-0.222,0.67,-0.21,-3.11,1785094072812.0962
-0.904,-0.359,-0.22,0.37,0.12,-3.69,1785094072812.313
-0.904,-0.362,-0.217,0.61,0.37,-4.03,1785094072812.546
-0.901,-0.357,-0.219,0.79,0.27,-4.64,1785094072812.768
-0.9,-0.355,-0.222,1.07,0.37,-5.04,1785094072812.9868
-0.897,-0.351,-0.219,0.92,0.31,-5.19,1785094072813.286
-0.894,-0.347,-0.219,0.67,0.27,-5.68,1785094072813.535
-0.892,-0.348,-0.218,0.55,0.24,-6.29,1785094072813.759
-0.891,-0.346,-0.218,0.37,0.12,-6.65,1785094072814.016
-0.89,-0.344,-0.217,-0.21,0.0,-6.74,1785094072814.25
-0.889,-0.343,-0.216,-0.85,-0.15,-7.11,1785094072814.476
-0.89,-0.339,-0.213,-1.68,-0.46,-7.51,1785094072814.7012
-0.889,-0.337,-0.213,-2.72,-0.64,-7.6,1785094072814.917
-0.89,-0.338,-0.212,-3.51,-0.7,-7.78,1785094072815.136
-0.888,-0.345,-0.213,-3.69,-0.76,-8.03,1785094072815.359
-0.885,-0.346,-0.212,-3.48,-0.73,-8.45,1785094072815.582
-0.885,-0.345,-0.213,-2.96,-0.82,-8.67,1785094072815.798
-0.885,-0.342,-0.213,-2.2,-0.92,-8.82,1785094072816.02
-0.893,-0.343,-0.212,-1.53,-0.98,-8.85,1785094072816.237
-0.903,-0.347,-0.218,-0.61,-0.82,-9.19,1785094072816.447
-0.906,-0.345,-0.221,0.0,-0.64,-9.58,1785094072816.6653
-0.907,-0.344,-0.222,0.34,-0.55,-9.98,1785094072816.906
-0.903,-0.348,-0.22,0.92,-0.27,-10.44,1785094072817.121
-0.894,-0.35,-0.217,1.77,0.03,-11.32,1785094072817.3462
-0.88,-0.345,-0.213,3.02,0.18,-12.45,1785094072817.57
-0.88,-0.345,-0.213,4.39,0.24,-13.37,1785094072817.7942
-0.868,-0.339,-0.208,5.74,-0.06,-15.02,1785094072818.01
-0.863,-0.334,-0.204,6.41,-0.58,-16.82,1785094072818.233
-0.865,-0.329,-0.202,6.68,-1.37,-18.01,1785094072818.456
-0.873,-0.322,-0.205,6.68,-1.37,-18.01,1785094072818.6682
-0.886,-0.318,-0.208,6.01,-2.23,-19.04,1785094072818.893
-0.895,-0.32,-0.215,4.73,-3.42,-19.96,1785094072819.1108
-0.901,-0.315,-0.218,2.56,-4.52,-20.17,1785094072819.319
-0.905,-0.313,-0.218,-0.4,-5.83,-19.29,1785094072819.5242
-0.91,-0.318,-0.214,-3.36,-7.32,-18.13,1785094072819.7388
-0.92,-0.321,-0.214,-6.47,-9.03,-16.36,1785094072819.953
-0.921,-0.319,-0.218,-9.95,-10.8,-13.89,1785094072820.158
-0.925,-0.323,-0.229,-12.97,-12.12,-11.41,1785094072820.373
-0.93,-0.331,-0.237,-15.69,-13.34,-9.34,1785094072820.5828
-0.939,-0.331,-0.244,-18.8,-14.5,-7.2,1785094072820.789
-0.944,-0.332,-0.248,-22.06,-15.59,-4.61,1785094072820.998
-0.95,-0.331,-0.247,-25.42,-16.72,-2.11,1785094072821.2092
-0.951,-0.341,-0.251,-28.75,-17.55,0.46,1785094072821.42
-0.96,-0.334,-0.253,-32.72,-18.07,1.5,1785094072821.644
-0.974,-0.332,-0.249,-35.49,-18.16,2.84,1785094072821.858
-0.973,-0.348,-0.254,-37.39,-17.98,3.88,1785094072822.071
-0.982,-0.345,-0.255,-39.28,-18.04,3.94,1785094072822.279
-0.998,-0.351,-0.261,-40.71,-18.65,4.52,1785094072822.492
-1.018,-0.355,-0.28,-41.69,-19.35,4.88,1785094072822.706
-1.039,-0.345,-0.302,-43.98,-19.56,5.16,1785094072822.925
-1.048,-0.333,-0.316,-48.19,-19.47,5.83,1785094072823.134
-1.045,-0.33,-0.324,-53.04,-19.29,6.26,1785094072823.354
-1.032,-0.329,-0.327,-58.66,-18.98,6.35,1785094072823.5562
-1.004,-0.325,-0.319,-64.36,-18.74,6.26,1785094072823.7598
-0.944,-0.326,-0.296,-70.62,-17.09,5.58,1785094072824.1768
-0.925,-0.325,-0.296,-71.5,-16.14,4.52,1785094072824.3762
-0.737,-0.733,-0.546,-7.57,1.71,-0.21,1785094072824.734
-0.766,-0.742,-0.501,-0.37,0.37,-4.52,1785094072824.9321
-0.831,-0.741,-0.515,4.18,0.85,-9.09,1785094072825.128
-0.93,-0.721,-0.513,0.27,4.46,-15.2,1785094072827.4949
-1.009,-0.704,-0.498,-6.62,7.66,-21.24,1785094072837.957
-1.058,-0.698,-0.474,-12.05,7.93,-26.64,1785094072851.218
-1.096,-0.709,-0.463,-14.62,5.28,-32.93,1785094072856.8699
-1.091,-0.703,-0.465,-14.89,3.05,-40.16,1785094072867.433
-1.091,-0.703,-0.465,-14.16,2.9,-46.66,1785094072877.991
-1.061,-0.678,-0.499,-14.31,4.06,-52.25,1785094072891.2
-1.056,-0.648,-0.512,-13.28,4.91,-56.43,1785094072896.9832
-1.059,-0.626,-0.471,-8.15,3.85,-59.39,1785094072907.3633
-1.021,-0.597,-0.462,-4.0,1.34,-59.85,1785094072917.8618
-0.962,-0.557,-0.507,-4.0,1.34,-59.85,1785094072928.245
-0.931,-0.547,-0.541,-7.35,-3.17,-58.6,1785094072941.569
-0.919,-0.559,-0.551,-17.52,-9.7,-56.76,1785094072947.266
-0.919,-0.578,-0.533,-28.63,-14.34,-53.35,1785094072957.776
-0.897,-0.624,-0.492,-31.92,-16.94,-48.34,1785094072968.44
-0.867,-0.623,-0.457,-23.38,-19.41,-44.71,1785094072981.7148
-0.797,-0.561,-0.501,-8.51,-23.19,-39.16,1785094072987.4128
-0.739,-0.504,-0.572,-0.85,-27.16,-32.53,1785094072998.053
-0.722,-0.512,-0.582,-7.29,-32.44,-26.22,1785094073011.436
-0.725,-0.571,-0.548,-19.01,-37.05,-21.88,1785094073017.301
-0.737,-0.625,-0.523,-27.41,-42.02,-18.37,1785094073027.842
-0.754,-0.654,-0.531,-27.74,-45.84,-12.67,1785094073038.451
-0.771,-0.651,-0.515,-19.81,-46.85,-5.65,1785094073051.6228
-0.755,-0.631,-0.484,-7.51,-48.16,1.16,1785094073057.562
-0.689,-0.585,-0.478,2.69,-51.18,7.51,1785094073067.6428
-0.611,-0.527,-0.506,7.17,-55.15,15.38,1785094073078.229
-0.561,-0.502,-0.532,5.68,-58.96,24.23,1785094073091.437
-0.549,-0.531,-0.534,1.19,-63.2,31.04,1785094073097.3691
-0.551,-0.576,-0.522,-1.83,-67.66,35.86,1785094073107.656
-0.546,-0.589,-0.496,0.24,-71.69,40.56,1785094073118.211
-0.53,-0.561,-0.471,7.42,-74.98,45.72,1785094073131.483
-0.474,-0.52,-0.47,15.56,-78.25,50.87,1785094073137.433
-0.413,-0.468,-0.489,20.39,-81.09,55.33,1785094073147.851
-0.385,-0.417,-0.511,20.54,-83.47,59.51,1785094073158.539
-0.376,-0.386,-0.532,17.33,-85.54,64.12,1785094073171.7341
-0.376,-0.385,-0.557,12.91,-87.5,68.06,1785094073177.7332
-0.395,-0.408,-0.562,8.36,-88.26,70.74,1785094073188.094
-0.414,-0.466,-0.577,5.37,-88.9,72.82,1785094073198.6401
-0.427,-0.525,-0.584,3.75,-88.66,74.56,1785094073211.977
-0.415,-0.553,-0.583,4.36,-88.75,77.06,1785094073217.8308
-0.383,-0.518,-0.586,6.13,-89.36,80.75,1785094073228.0908
-0.368,-0.485,-0.585,8.09,-89.94,84.93,1785094073238.6702
-0.361,-0.473,-0.59,7.51,-90.61,85.57,1785094073251.945
-0.362,-0.465,-0.577,4.61,-91.37,83.1,1785094073257.544
-0.398,-0.469,-0.569,1.01,-92.23,79.81,1785094073268.136
-0.464,-0.5,-0.584,-2.9,-92.65,76.94,1785094073278.6719
-0.505,-0.558,-0.652,-5.95,-91.74,73.34,1785094073291.9119
-0.515,-0.592,-0.707,-8.0,-88.2,68.91,1785094073297.8408
-0.53,-0.587,-0.705,-8.51,-83.35,66.26,1785094073308.0808
-0.555,-0.577,-0.677,-9.61,-79.13,65.37,1785094073318.6401
-0.577,-0.582,-0.63,-12.91,-74.95,63.91,1785094073331.918
-0.602,-0.622,-0.551,-15.81,-71.11,60.49,1785094073337.8591
-0.622,-0.666,-0.488,-16.39,-69.37,54.84,1785094073348.4211
-0.635,-0.685,-0.47,-14.62,-68.7,49.04,1785094073361.6772
-0.631,-0.699,-0.51,-10.53,-68.54,43.18,1785094073367.5452
-0.633,-0.701,-0.588,-7.51,-68.42,36.32,1785094073378.1619
-0.669,-0.637,-0.678,-9.8,-67.63,30.3,1785094073388.559
-0.728,-0.565,-0.72,-17.98,-64.73,26.4,1785094073401.781
-0.784,-0.54,-0.699,-32.65,-62.29,21.94,1785094073407.825
-0.801,-0.567,-0.639,-51.48,-62.47,16.82,1785094073418.242
-0.785,-0.593,-0.575,-70.1,-63.45,11.08,1785094073431.4922
-0.757,-0.606,-0.519,-83.19,-63.51,6.38,1785094073437.498
-0.711,-0.6,-0.523,-89.75,-63.14,2.14,1785094073447.778
-0.683,-0.568,-0.553,-90.88,-61.1,-2.69,1785094073458.3318
-0.688,-0.557,-0.56,-89.21,-57.8,-7.6,1785094073471.549
-0.703,-0.578,-0.536,-87.8,-54.41,-13.79,1785094073477.6152
-0.723,-0.611,-0.493,-85.21,-51.12,-20.02,1785094073487.9382
-0.75,-0.621,-0.451,-81.61,-48.46,-24.48,1785094073498.6018
-0.761,-0.611,-0.409,-77.58,-46.78,-26.37,1785094073512.032
-0.744,-0.599,-0.403,-71.05,-45.96,-28.08,1785094073517.8171
-0.728,-0.566,-0.458,-63.36,-45.17,-31.16,1785094073528.3357
-0.714,-0.518,-0.562,-58.63,-43.06,-34.61,1785094073541.586
-0.693,-0.477,-0.652,-58.11,-37.69,-38.79,1785094073547.602
-0.702,-0.475,-0.646,-60.18,-29.94,-42.3,1785094073558.079
-0.736,-0.525,-0.569,-63.63,-23.56,-45.63,1785094073568.669
-0.751,-0.576,-0.474,-65.0,-19.5,-48.31,1785094073581.925
-0.752,-0.615,-0.417,-59.63,-16.66,-49.07,1785094073587.861
-0.769,-0.634,-0.39,-49.04,-14.34,-48.92,1785094073598.409
-0.793,-0.649,-0.373,-35.86,-12.76,-49.04,1785094073611.698
-0.818,-0.656,-0.362,-22.49,-13.18,-49.2,1785094073617.565
-0.811,-0.638,-0.363,-11.84,-15.02,-48.22,1785094073628.152
-0.806,-0.587,-0.384,-5.4,-15.9,-49.04,1785094073638.6292
-0.805,-0.564,-0.434,-5.98,-17.88,-46.48,1785094073651.9119
-0.789,-0.563,-0.487,-13.98,-18.8,-46.97,1785094073657.823
-0.789,-0.563,-0.502,-26.43,-19.1,-51.67,1785094073668.2197
-0.808,-0.598,-0.482,-39.03,-18.28,-55.06,1785094073681.469
-0.812,-0.67,-0.426,-48.25,-17.37,-57.37,1785094073687.4749
-0.799,-0.729,-0.359,-51.27,-17.64,-61.89,1785094073697.934
-0.782,-0.742,-0.348,-51.3,-18.34,-67.66,1785094073708.585
-0.779,-0.715,-0.387,-54.32,-18.8,-71.87,1785094073721.7952
-0.784,-0.699,-0.465,-62.29,-17.91,-73.92,1785094073727.793
-0.793,-0.727,-0.506,-73.12,-15.69,-76.57,1785094073738.2798
-0.804,-0.772,-0.503,-82.74,-12.54,-82.31,1785094073751.5571
-0.824,-0.819,-0.482,-88.84,-10.01,-89.33,1785094073757.463
-0.746,-0.888,-0.46,-90.37,-5.92,-93.26,1785094073767.8962
-0.88,-0.813,-0.467,-92.2,-0.89,-107.0,1785094073778.542
-0.78,-0.96,-0.48,-96.84,-9.4,-88.96,1785094073791.805
-0.732,-0.943,-0.456,-94.94,-2.84,-89.54,1785094073797.687
-0.74,-0.906,-0.51,-84.9,3.48,-92.9,1785094073807.986
-0.723,-0.909,-0.55,-80.51,6.04,-94.88,1785094073818.5889
-0.739,-0.885,-0.582,-79.56,11.41,-104.5,1785094073831.9922
-0.76,-0.909,-0.606,-80.11,16.79,-112.74,1785094073837.7832
-0.779,-0.954,-0.608,-82.13,20.66,-117.53,1785094073848.5151
-0.819,-0.977,-0.584,-83.59,22.37,-118.2,1785094073861.76
-0.812,-1.009,-0.574,-83.13,23.41,-115.54,1785094073867.7239
-0.816,-0.995,-0.573,-82.61,25.91,-117.89,1785094073878.479
-0.808,-0.976,-0.595,-80.87,29.57,-120.49,1785094073891.788
-0.807,-0.967,-0.637,-78.95,35.52,-124.24,1785094073897.845
-0.826,-0.972,-0.668,-79.17,40.56,-127.84,1785094073908.473
-0.826,-1.008,-0.677,-79.38,44.19,-128.94,1785094073922.3318
-0.817,-1.013,-0.636,-77.15,49.5,-131.41,1785094073928.1753
-0.835,-1.005,-0.569,-71.23,53.04,-132.3,1785094073938.428
-0.814,-0.999,-0.497,-63.72,53.25,-128.73,1785094073951.8982
-0.798,-0.944,-0.446,-55.7,53.22,-128.79,1785094073957.492
-0.788,-0.905,-0.444,-48.22,52.86,-130.04,1785094073968.4338
-0.784,-0.894,-0.473,-45.69,52.46,-132.02,1785094073981.691
-0.774,-0.889,-0.537,-48.34,52.71,-133.95,1785094073987.587
-0.76,-0.877,-0.581,-54.23,53.99,-134.86,1785094073998.394
-0.747,-0.866,-0.574,-61.71,56.0,-135.5,1785094074011.6921
-0.73,-0.868,-0.543,-66.93,58.08,-135.81,1785094074017.5723
-0.706,-0.881,-0.512,-68.94,59.3,-135.2,1785094074028.3232
-0.694,-0.879,-0.475,-68.15,58.9,-133.4,1785094074041.585
-0.664,-0.859,-0.462,-64.06,57.13,-130.13,1785094074047.531
-0.634,-0.808,-0.468,-58.02,56.73,-129.34,1785094074058.277
-0.621,-0.744,-0.493,-52.49,58.17,-129.73,1785094074071.553
-0.609,-0.715,-0.513,-50.9,57.44,-126.41,1785094074077.625
-0.572,-0.729,-0.497,-51.0,55.33,-120.91,1785094074088.262
-0.551,-0.728,-0.463,-47.85,55.09,-117.34,1785094074101.496
-0.501,-0.729,-0.445,-40.1,54.93,-111.79,1785094074107.533
-0.472,-0.695,-0.446,-31.92,54.35,-107.52,1785094074118.227
-0.446,-0.653,-0.458,-26.7,52.71,-102.79,1785094074131.5059
-0.421,-0.606,-0.475,-25.21,52.31,-98.36,1785094074137.392
-0.409,-0.571,-0.495,-27.22,51.12,-94.21,1785094074148.1228
-0.409,-0.571,-0.495,-33.27,48.98,-89.57,1785094074158.659
-0.396,-0.525,-0.539,-40.31,48.07,-83.44,1785094074171.889
-0.376,-0.508,-0.565,-45.96,47.3,-77.58,1785094074177.904
-0.366,-0.546,-0.539,-48.49,46.33,-73.15,1785094074188.3298
-0.352,-0.582,-0.481,-45.08,45.69,-69.12,1785094074201.589
-0.318,-0.581,-0.439,-45.08,45.69,-69.12,1785094074207.532
-0.299,-0.56,-0.432,-37.97,44.56,-64.36,1785094074218.113
-0.274,-0.537,-0.454,-33.54,42.12,-57.68,1785094074228.795
-0.246,-0.518,-0.487,-32.78,40.8,-52.8,1785094074241.938
-0.246,-0.522,-0.52,-34.3,39.03,-48.95,1785094074247.968
-0.244,-0.524,-0.542,-36.41,38.42,-46.3,1785094074258.382
-0.235,-0.515,-0.542,-35.55,40.22,-46.02,1785094074271.6758
-0.208,-0.504,-0.544,-31.92,41.05,-44.74,1785094074277.6958
-0.174,-0.491,-0.568,-28.9,40.96,-42.54,1785094074288.172
-0.151,-0.473,-0.576,-28.29,41.23,-38.79,1785094074301.373
-0.148,-0.469,-0.577,-29.21,40.96,-34.0,1785094074307.321
-0.153,-0.47,-0.558,-32.41,39.19,-29.24,1785094074317.826
-0.148,-0.468,-0.549,-35.68,37.05,-25.18,1785094074328.449
-0.12,-0.476,-0.551,-36.56,36.07,-21.24,1785094074341.69
-0.097,-0.488,-0.553,-34.79,35.8,-19.23,1785094074347.625
-0.088,-0.494,-0.55,-32.17,34.91,-18.83,1785094074358.1519
-0.085,-0.493,-0.555,-29.15,33.45,-19.5,1785094074371.393
-0.083,-0.485,-0.555,-25.15,32.38,-20.42,1785094074377.428
-0.081,-0.482,-0.557,-20.33,30.46,-20.69,1785094074387.848
-0.076,-0.473,-0.558,-14.83,28.5,-21.03,1785094074398.499
-0.068,-0.466,-0.562,-7.78,26.95,-21.18,1785094074411.8408
-0.04,-0.46,-0.552,0.7,25.61,-20.69,1785094074417.635
-0.009,-0.432,-0.549,9.03,24.35,-20.75,1785094074427.928
0.01,-0.415,-0.612,15.93,23.01,-20.54,1785094074438.563
0.006,-0.414,-0.67,16.63,21.55,-19.41,1785094074451.81
-0.004,-0.415,-0.684,10.65,19.53,-17.7,1785094074457.8062
-0.003,-0.426,-0.665,2.9,17.09,-15.2,1785094074468.2341
0.003,-0.451,-0.642,-1.56,14.86,-12.6,1785094074481.46
0.015,-0.468,-0.675,-3.02,12.6,-10.07,1785094074487.347
0.024,-0.48,-0.719,-4.15,11.08,-8.3,1785094074497.5947
0.034,-0.47,-0.761,-8.09,9.06,-6.87,1785094074507.935
0.048,-0.462,-0.805,-15.26,7.75,-5.28,1785094074518.463
0.047,-0.474,-0.83,-23.38,7.97,-5.46,1785094074531.6829
0.042,-0.516,-0.834,-29.11,8.27,-7.17,1785094074537.632
0.055,-0.551,-0.831,-31.16,8.18,-9.03,1785094074547.617
0.069,-0.556,-0.826,-28.23,9.09,-10.35,1785094074558.01
0.068,-0.546,-0.817,-20.94,10.07,-10.19,1785094074571.1858
0.067,-0.532,-0.817,-12.21,10.96,-9.67,1785094074576.9229
0.07,-0.508,-0.814,-4.91,12.18,-9.34,1785094074587.384
0.078,-0.497,-0.799,0.98,12.94,-9.83,1785094074597.884
0.089,-0.491,-0.82,5.01,12.97,-11.05,1785094074608.4868
0.098,-0.481,-0.851,5.65,12.76,-11.6,1785094074621.6929
0.103,-0.471,-0.887,2.53,11.9,-10.96,1785094074627.537
0.103,-0.46,-0.912,-3.08,11.44,-9.46,1785094074637.861
0.091,-0.475,-0.912,-6.96,11.84,-7.48,1785094074648.3772
0.078,-0.49,-0.899,-9.06,11.63,-5.31,1785094074661.545
0.073,-0.482,-0.899,-9.46,11.72,-3.48,1785094074667.2927
0.077,-0.454,-0.924,-9.74,12.39,-1.4,1785094074677.6372
0.083,-0.417,-0.921,-13.21,13.28,1.22,1785094074688.1978
0.054,-0.392,-0.827,-20.02,12.33,5.4,1785094074701.4458
0.088,-0.475,-1.021,-28.32,11.02,10.5,1785094074707.354
0.063,-0.522,-0.991,-41.81,15.9,11.02,1785094074717.776
0.079,-0.52,-0.945,-51.3,17.91,14.56,1785094074728.425
0.093,-0.504,-0.905,-53.29,19.96,19.32,1785094074741.684
0.081,-0.48,-0.866,-49.2,21.64,22.49,1785094074747.5898
0.076,-0.473,-0.86,-40.89,23.35,23.74,1785094074758.1438
0.072,-0.471,-0.877,-32.9,25.39,24.05,1785094074771.366
0.065,-0.469,-0.918,-27.65,27.74,24.63,1785094074777.3252
0.05,-0.479,-0.949,-24.66,31.56,25.48,1785094074787.83
0.037,-0.498,-0.934,-22.0,35.31,26.4,1785094074798.485
0.043,-0.497,-0.899,-17.52,38.48,27.56,1785094074811.756
0.045,-0.487,-0.864,-10.35,42.24,29.66,1785094074817.676
0.052,-0.487,-0.856,-2.72,45.53,32.2,1785094074828.115
0.069,-0.487,-0.856,2.5,48.34,33.75,1785094074838.6738
0.082,-0.489,-0.863,6.2,50.72,35.0,1785094074851.954
0.088,-0.49,-0.886,8.33,52.71,36.59,1785094074857.802
0.09,-0.485,-0.901,7.84,54.11,38.48,1785094074868.2703
0.082,-0.478,-0.891,5.58,55.21,40.19,1785094074878.6812
0.077,-0.48,-0.87,3.27,56.15,41.72,1785094074891.916
0.084,-0.485,-0.849,1.13,56.61,42.85,1785094074897.872
0.098,-0.491,-0.839,-0.4,56.67,43.24,1785094074908.135
0.115,-0.498,-0.858,-1.56,56.34,43.76,1785094074918.668
0.123,-0.508,-0.895,-3.48,56.4,44.86,1785094074931.947
0.122,-0.514,-0.917,-7.9,56.73,46.45,1785094074937.8518
0.118,-0.51,-0.908,-14.28,56.92,47.7,1785094074948.163
0.112,-0.503,-0.883,-20.39,56.58,48.74,1785094074961.537
0.115,-0.501,-0.866,-25.7,55.97,49.47,1785094074967.4739
0.13,-0.507,-0.874,-28.78,55.45,49.87,1785094074977.965
0.141,-0.52,-0.882,-28.9,56.49,50.9,1785094074988.5818
0.136,-0.548,-0.874,-27.28,58.11,52.49,1785094075001.842
0.132,-0.56,-0.859,-25.91,59.54,53.47,1785094075007.7668
0.144,-0.547,-0.845,-23.74,60.52,54.9,1785094075018.282
0.158,-0.529,-0.852,-22.03,60.67,56.79,1785094075031.5461
0.154,-0.507,-0.869,-22.89,60.88,57.95,1785094075037.145
0.149,-0.494,-0.878,-25.76,61.89,59.33,1785094075047.98
0.146,-0.507,-0.878,-28.44,63.33,60.55,1785094075058.6528
0.146,-0.538,-0.872,-29.15,65.1,61.22,1785094075071.829
0.154,-0.551,-0.85,-27.41,67.02,62.14,1785094075077.889
0.163,-0.544,-0.827,-22.95,69.19,63.33,1785094075088.337
0.159,-0.537,-0.811,-18.13,71.02,64.67,1785094075101.5579
0.147,-0.529,-0.805,-16.17,72.48,66.59,1785094075107.826
0.142,-0.533,-0.808,-16.72,73.55,68.76,1785094075118.0632
0.14,-0.54,-0.816,-19.01,74.62,70.22,1785094075128.6772
0.144,-0.542,-0.809,-20.57,75.56,70.86,1785094075141.893
0.147,-0.538,-0.795,-19.23,76.27,70.99,1785094075147.8557
0.149,-0.523,-0.787,-14.71,77.61,70.62,1785094075158.3801
0.154,-0.514,-0.773,-8.24,79.74,70.19,1785094075171.616
0.157,-0.517,-0.754,-2.66,81.58,70.01,1785094075177.606
0.167,-0.529,-0.766,-0.76,82.77,70.28,1785094075187.81
0.167,-0.535,-0.78,-3.57,83.86,71.32,1785094075198.3809
0.157,-0.534,-0.776,-9.83,84.44,73.06,1785094075211.722
0.154,-0.535,-0.762,-16.36,84.2,75.17,1785094075217.601
0.157,-0.546,-0.745,-19.81,84.84,77.43,1785094075228.1
0.162,-0.565,-0.702,-18.62,86.49,78.98,1785094075238.606
0.191,-0.579,-0.681,-13.76,87.16,79.56,1785094075251.8542
0.211,-0.577,-0.715,-9.67,86.58,79.93,1785094075257.8152
0.198,-0.574,-0.759,-10.77,85.76,80.48,1785094075268.252
0.178,-0.586,-0.777,-18.19,84.75,80.94,1785094075281.568
0.175,-0.594,-0.762,-28.53,83.56,82.09,1785094075287.484
0.183,-0.612,-0.728,-36.07,82.58,84.17,1785094075297.947
0.186,-0.631,-0.697,-39.4,81.39,85.45,1785094075308.625
0.192,-0.643,-0.677,-37.81,80.57,84.96,1785094075321.857
0.2,-0.656,-0.671,-30.88,80.32,83.62,1785094075327.889
0.21,-0.652,-0.667,-23.26,80.48,82.61,1785094075338.309
0.218,-0.636,-0.675,-19.14,79.87,82.86,1785094075351.5972
0.224,-0.632,-0.696,-20.2,78.68,84.26,1785094075357.566
0.213,-0.646,-0.688,-25.54,77.0,85.21,1785094075368.0562
0.206,-0.665,-0.675,-32.07,75.14,85.73,1785094075378.6519
0.205,-0.679,-0.661,-36.01,73.92,85.21,1785094075391.9722
0.213,-0.692,-0.648,-35.95,73.46,84.32,1785094075397.844
0.229,-0.692,-0.654,-33.81,73.15,83.47,1785094075408.4412
0.24,-0.697,-0.681,-30.34,73.4,82.49,1785094075421.607
0.246,-0.7,-0.698,-27.47,74.59,82.06,1785094075427.6008
0.246,-0.7,-0.698,-26.64,75.81,82.43,1785094075438.077
0.249,-0.701,-0.698,-26.95,77.18,83.25,1785094075448.735
0.252,-0.721,-0.682,-27.19,77.33,84.41,1785094075462.019
0.255,-0.742,-0.636,-24.29,76.66,84.81,1785094075467.8772
0.258,-0.759,-0.589,-16.21,76.2,83.62,1785094075478.455
0.263,-0.768,-0.569,-16.21,76.2,83.62,1785094075491.701
0.27,-0.759,-0.579,-5.68,76.27,81.12,1785094075497.617
0.278,-0.742,-0.613,4.3,76.94,77.7,1785094075507.927
0.278,-0.725,-0.65,11.63,78.59,73.24,1785094075518.42
0.263,-0.707,-0.66,14.5,80.14,69.4,1785094075531.92
0.256,-0.705,-0.656,13.58,81.33,67.26,1785094075537.8088
0.254,-0.714,-0.627,10.93,82.58,66.5,1785094075548.335
0.258,-0.741,-0.581,10.38,83.68,66.68,1785094075561.6948
0.266,-0.779,-0.535,15.32,84.66,66.38,1785094075567.5688
0.282,-0.809,-0.486,27.31,86.46,65.19,1785094075578.1372
0.298,-0.846,-0.447,47.88,89.21,63.42,1785094075588.627
0.306,-0.858,-0.438,72.36,92.38,60.95,1785094075601.872
0.314,-0.856,-0.451,96.01,96.68,59.05,1785094075607.828
0.319,-0.85,-0.476,112.92,101.17,58.02,1785094075618.5962
0.328,-0.834,-0.497,118.84,105.41,57.37,1785094075631.811
0.339,-0.823,-0.481,115.76,109.59,57.53,1785094075637.747
0.348,-0.834,-0.442,108.13,112.74,57.56,1785094075651.181
0.348,-0.852,-0.382,99.22,114.57,56.79,1785094075657.196
0.355,-0.865,-0.313,92.41,114.93,55.45,1785094075668.0488
0.369,-0.867,-0.266,89.66,113.99,53.13,1785094075678.7068
0.381,-0.879,-0.261,90.46,112.67,49.1,1785094075691.9492
0.373,-0.892,-0.264,90.06,110.48,43.79,1785094075697.909
0.353,-0.885,-0.265,85.94,107.85,39.28,1785094075708.684
0.345,-0.869,-0.282,78.77,105.59,36.04,1785094075721.955
0.342,-0.853,-0.294,69.12,103.82,34.12,1785094075727.9
0.346,-0.842,-0.309,57.22,101.9,32.07,1785094075738.652
0.347,-0.826,-0.31,42.05,100.25,30.34,1785094075751.8918
0.329,-0.812,-0.333,23.53,99.61,29.15,1785094075757.8308
0.31,-0.803,-0.344,0.64,99.4,29.05,1785094075768.419
0.29,-0.813,-0.324,-26.0,100.1,28.5,1785094075781.6738
0.274,-0.791,-0.274,-56.4,99.19,28.26,1785094075787.53
0.278,-0.814,-0.26,-85.6,96.99,29.08,1785094075798.147
0.286,-0.831,-0.239,-116.89,94.82,29.63,1785094075811.389
0.315,-0.861,-0.241,-143.44,91.86,29.69,1785094075817.322
0.348,-0.936,-0.218,-157.41,89.66,29.51,1785094075828.089
0.36,-1.019,-0.159,-153.87,86.67,27.56,1785094075841.322
0.37,-1.062,-0.102,-130.25,83.56,26.15,1785094075847.273
0.367,-1.06,-0.081,-91.65,80.94,27.19,1785094075857.9468
0.353,-1.023,-0.109,-50.57,78.25,29.36,1785094075868.588
0.344,-0.913,-0.151,-20.54,76.66,30.76,1785094075881.8792
0.354,-0.811,-0.178,-4.85,75.56,30.73,1785094075887.815
0.361,-0.766,-0.219,-3.3,73.7,28.6,1785094075898.1729
0.374,-0.757,-0.257,-13.76,72.12,26.37,1785094075911.421
0.394,-0.801,-0.272,-26.67,70.89,24.26,1785094075917.3381
0.389,-0.858,-0.246,-36.38,69.31,22.95,1785094075927.9011
0.381,-0.915,-0.218,-38.12,66.71,23.04,1785094075938.595
0.385,-0.946,-0.209,-30.67,64.52,22.37,1785094075951.508
0.392,-0.93,-0.227,-19.41,62.99,21.73,1785094075957.251
0.401,-0.854,-0.247,-13.52,62.04,21.79,1785094075968.3042
0.412,-0.788,-0.255,-14.71,60.15,22.92,1785094075981.3718
0.422,-0.782,-0.254,-20.66,57.04,24.54,1785094075987.4612
0.43,-0.808,-0.243,-28.53,53.19,25.42,1785094075997.916
0.433,-0.856,-0.237,-32.56,49.75,25.91,1785094076008.516
0.434,-0.901,-0.238,-31.98,46.75,26.64,1785094076021.8088
0.447,-0.912,-0.246,-28.2,44.13,27.8,1785094076027.789
0.471,-0.892,-0.265,-22.55,42.12,29.54,1785094076038.0642
0.481,-0.877,-0.275,-16.85,40.89,31.37,1785094076051.51
0.485,-0.868,-0.277,-13.25,39.7,32.32,1785094076057.549
0.492,-0.861,-0.263,-12.85,38.61,33.14,1785094076067.9958
0.476,-0.866,-0.241,-14.89,36.41,34.73,1785094076078.6199
0.454,-0.899,-0.244,-16.94,33.63,36.38,1785094076091.831
0.444,-0.952,-0.25,-16.88,32.01,36.81,1785094076097.79
0.45,-0.989,-0.261,-15.08,30.79,36.74,1785094076108.312
0.465,-0.993,-0.266,-12.39,29.91,37.32,1785094076121.567
0.472,-0.982,-0.251,-8.45,28.87,39.09,1785094076127.6428
0.479,-0.971,-0.233,-2.59,27.13,40.62,1785094076137.8062
0.489,-0.961,-0.237,4.24,25.36,40.77,1785094076148.4102
0.498,-0.938,-0.244,9.09,24.54,40.65,1785094076161.7961
0.487,-0.93,-0.257,12.48,25.15,41.72,1785094076167.5662
0.455,-0.969,-0.247,15.47,27.38,42.88,1785094076178.1042
0.413,-1.007,-0.193,18.22,29.94,42.73,1785094076188.65
0.392,-1.03,-0.127,22.68,31.37,42.63,1785094076201.906
0.412,-1.034,-0.084,28.57,31.4,43.12,1785094076207.821
0.438,-1.017,-0.062,33.02,29.88,42.73,1785094076218.366
0.432,-1.015,-0.063,36.41,27.38,42.09,1785094076231.6658
0.413,-1.016,-0.07,38.48,23.96,40.59,1785094076237.5522
0.408,-1.004,-0.086,38.94,19.96,38.64,1785094076248.113
0.403,-1.005,-0.115,39.03,16.42,36.77,1785094076258.7788
0.384,-0.999,-0.149,36.93,13.49,35.28,1785094076271.948
0.372,-0.974,-0.157,32.35,10.93,34.64,1785094076277.985
0.368,-0.97,-0.156,27.5,8.33,33.08,1785094076288.306
0.36,-0.973,-0.149,21.94,5.46,29.97,1785094076301.577
0.354,-0.982,-0.144,16.75,2.29,26.49,1785094076307.551
0.355,-0.991,-0.149,13.52,-0.49,23.32,1785094076317.7522
0.355,-0.995,-0.152,12.39,-2.69,19.99,1785094076328.325
0.351,-1.005,-0.163,13.06,-4.55,17.09,1785094076341.533
0.342,-1.005,-0.172,12.91,-6.38,14.34,1785094076347.5
0.338,-0.997,-0.185,10.56,-7.75,11.81,1785094076357.784
0.339,-0.988,-0.2,5.86,-9.0,9.77,1785094076368.153
0.339,-0.977,-0.21,-0.82,-9.86,8.24,1785094076378.513
0.339,-0.973,-0.222,-7.08,-10.53,6.9,1785094076391.744
0.335,-0.98,-0.232,-11.29,-11.14,5.16,1785094076397.7659
0.332,-0.996,-0.242,-13.15,-11.44,2.66,1785094076407.879
0.339,-0.999,-0.243,-12.76,-11.66,-0.31,1785094076418.4329
0.351,-0.99,-0.243,-10.01,-11.75,-2.35,1785094076431.6921
0.357,-0.977,-0.236,-6.59,-12.24,-3.45,1785094076437.6477
0.357,-0.968,-0.239,-3.51,-13.12,-4.3,1785094076447.7708
0.348,-0.971,-0.257,-1.62,-13.79,-5.43,1785094076458.1929
0.336,-0.97,-0.274,-1.07,-13.98,-6.71,1785094076468.629
0.333,-0.957,-0.281,-1.56,-13.64,-7.6,1785094076481.911
0.338,-0.948,-0.284,-2.35,-13.12,-7.6,1785094076487.704
0.344,-0.939,-0.284,-3.57,-12.51,-7.11,1785094076497.8179
0.347,-0.923,-0.282,-5.16,-11.84,-7.11,1785094076508.327
0.349,-0.916,-0.278,-6.71,-11.54,-6.96,1785094076521.568
0.344,-0.924,-0.274,-7.54,-11.81,-6.96,1785094076527.4749
0.332,-0.926,-0.266,-7.54,-12.09,-7.26,1785094076537.511
0.328,-0.925,-0.264,-6.16,-12.42,-7.66,1785094076548.0708
0.325,-0.926,-0.273,-4.0,-12.36,-8.33,1785094076558.452
0.323,-0.923,-0.29,-1.86,-11.96,-9.55,1785094076571.671
0.323,-0.92,-0.293,-0.03,-11.35,-9.86,1785094076577.59
0.326,-0.914,-0.285,1.71,-10.9,-9.98,1785094076587.6182
0.33,-0.906,-0.279,3.51,-10.71,-11.02,1785094076598.2039
0.33,-0.902,-0.26,5.1,-11.11,-11.54,1785094076608.9019
0.329,-0.904,-0.249,6.65,-11.72,-11.57,1785094076622.012
0.315,-0.915,-0.25,7.72,-12.57,-12.02,1785094076628.08
0.294,-0.91,-0.254,6.87,-13.18,-13.28,1785094076638.1838
0.285,-0.903,-0.264,4.64,-13.21,-14.5,1785094076648.75
0.284,-0.892,-0.266,1.95,-12.51,-15.72,1785094076662.032
0.292,-0.884,-0.263,0.82,-11.51,-17.33,1785094076667.902
0.3,-0.877,-0.26,2.38,-10.19,-18.92,1785094076678.205
0.306,-0.875,-0.256,6.62,-8.67,-19.93,1785094076688.6233
0.297,-0.87,-0.236,12.42,-6.87,-20.54,1785094076701.8938
0.275,-0.858,-0.208,17.91,-5.71,-20.26,1785094076707.783
0.248,-0.85,-0.189,23.19,-5.25,-19.47,1785094076718.082
0.248,-0.85,-0.189,27.8,-4.85,-18.65,1785094076728.632
0.236,-0.838,-0.204,30.76,-3.3,-18.16,1785094076741.888
0.247,-0.811,-0.224,31.86,-1.43,-17.52,1785094076747.799
0.276,-0.776,-0.227,31.16,-0.7,-16.66,1785094076758.121
0.308,-0.746,-0.214,31.16,-0.7,-16.66,1785094076768.6729
0.323,-0.731,-0.188,29.21,-1.4,-15.44,1785094076781.9167
0.308,-0.729,-0.163,25.73,-3.27,-13.86,1785094076787.8132
0.272,-0.734,-0.151,21.36,-6.01,-11.99,1785094076798.519
0.243,-0.743,-0.145,17.0,-8.55,-10.35,1785094076808.701
0.233,-0.741,-0.148,13.52,-10.71,-8.58,1785094076821.866
0.24,-0.737,-0.155,11.29,-12.63,-6.96,1785094076827.806
0.26,-0.733,-0.165,10.35,-14.22,-5.16,1785094076838.0889
0.289,-0.733,-0.177,10.71,-15.69,-3.48,1785094076848.651
0.301,-0.723,-0.184,11.08,-16.72,-1.65,1785094076861.8628
0.286,-0.71,-0.179,10.77,-17.73,1.37,1785094076867.786
0.259,-0.713,-0.172,9.89,-19.2,5.28,1785094076878.031
0.234,-0.725,-0.164,8.09,-20.91,8.06,1785094076888.4648
0.22,-0.731,-0.167,5.65,-22.58,10.53,1785094076901.7861
0.218,-0.728,-0.188,3.6,-23.44,13.49,1785094076907.653
0.22,-0.731,-0.212,2.23,-23.32,16.36,1785094076917.903
0.235,-0.737,-0.228,1.62,-22.37,18.86,1785094076928.495
0.25,-0.746,-0.238,1.86,-21.64,21.18,1785094076941.734
0.256,-0.753,-0.236,2.38,-20.84,23.44,1785094076947.8242
0.241,-0.756,-0.218,2.41,-20.72,26.4,1785094076957.937
0.211,-0.76,-0.202,1.65,-21.58,30.3,1785094076968.531
0.178,-0.769,-0.186,0.46,-22.92,34.18,1785094076981.75
0.159,-0.783,-0.176,-0.12,-24.75,37.29,1785094076987.632
0.169,-0.806,-0.178,1.37,-26.0,39.31,1785094076997.992
0.191,-0.827,-0.177,4.85,-26.46,40.83,1785094077008.492
0.2,-0.841,-0.182,9.4,-27.04,43.4,1785094077021.7732
0.207,-0.847,-0.211,13.49,-27.65,46.91,1785094077027.7559
0.205,-0.847,-0.236,15.75,-27.65,50.9,1785094077038.1538
0.187,-0.847,-0.241,16.14,-27.71,55.24,1785094077048.8079
0.168,-0.855,-0.232,15.53,-28.17,59.66,1785094077062.071
0.147,-0.88,-0.206,15.29,-29.05,63.08,1785094077067.917
0.133,-0.903,-0.187,16.24,-30.4,65.61,1785094077078.458
0.122,-0.916,-0.169,18.56,-31.83,68.27,1785094077091.735
0.114,-0.913,-0.166,21.49,-33.6,70.77,1785094077097.7412
0.126,-0.891,-0.18,21.76,-35.65,73.15,1785094077108.144
0.124,-0.878,-0.198,18.49,-38.09,75.32,1785094077121.381
0.094,-0.895,-0.217,12.42,-40.99,76.69,1785094077127.486
0.058,-0.927,-0.232,4.09,-43.79,77.24,1785094077137.7659
0.03,-0.959,-0.241,-3.72,-46.45,78.1,1785094077148.361
0.007,-0.99,-0.246,-9.06,-48.4,79.44,1785094077161.613
-0.019,-1.006,-0.246,-11.11,-49.96,81.3,1785094077167.5078
-0.033,-1.0,-0.259,-10.38,-51.67,83.44,1785094077177.96
-0.028,-0.97,-0.291,-9.34,-53.16,85.79,1785094077188.48
-0.016,-0.949,-0.341,-8.61,-53.47,87.07,1785094077201.7122
-0.013,-0.948,-0.377,-9.22,-52.37,87.01,1785094077207.648
-0.024,-0.964,-0.372,-11.08,-51.33,86.92,1785094077218.0732
-0.044,-0.986,-0.34,-12.88,-51.18,86.92,1785094077228.683
-0.073,-1.002,-0.297,-14.34,-52.0,87.71,1785094077241.962
-0.106,-1.011,-0.251,-15.5,-53.9,89.11,1785094077247.9
-0.137,-1.021,-0.225,-17.7,-57.37,90.61,1785094077258.373
-0.148,-1.032,-0.261,-20.45,-60.91,91.31,1785094077271.5918
-0.156,-1.026,-0.324,-23.56,-62.62,90.67,1785094077277.7258
-0.174,-0.998,-0.376,-27.1,-63.33,90.64,1785094077288.0608
-0.179,-0.99,-0.418,-30.61,-64.3,93.26,1785094077298.753
-0.19,-0.977,-0.411,-32.93,-63.48,93.87,1785094077312.0442
-0.212,-0.978,-0.366,-32.56,-62.81,94.12,1785094077317.9321
-0.246,-1.009,-0.302,-29.94,-63.57,95.03,1785094077328.4631
-0.275,-1.03,-0.248,-26.92,-65.61,95.65,1785094077341.722
-0.281,-1.031,-0.247,-23.47,-68.7,96.16,1785094077347.6702
-0.271,-1.019,-0.298,-20.78,-70.89,97.38,1785094077358.1382
-0.268,-0.993,-0.379,-19.78,-71.35,98.67,1785094077371.442
-0.271,-0.964,-0.443,-20.81,-69.77,100.8,1785094077377.506
-0.291,-0.94,-0.46,-24.57,-67.96,102.3,1785094077388.094
-0.324,-0.926,-0.444,-31.04,-67.51,102.66,1785094077398.846
-0.362,-0.933,-0.384,-39.86,-68.61,103.09,1785094077412.359
-0.413,-0.959,-0.295,-49.23,-71.6,103.03,1785094077417.611
-0.459,-0.983,-0.242,-57.1,-77.0,102.54,1785094077429.011
-0.461,-0.987,-0.298,-61.86,-82.83,102.42,1785094077441.979
-0.446,-0.946,-0.396,-63.17,-85.21,102.57,1785094077447.956
-0.447,-0.88,-0.473,-61.4,-85.18,103.52,1785094077458.7058
-0.475,-0.846,-0.509,-58.38,-84.63,104.68,1785094077471.9128
-0.522,-0.865,-0.498,-56.61,-84.63,103.89,1785094077478.025
-0.572,-0.894,-0.44,-57.04,-85.85,102.05,1785094077488.6838
-0.61,-0.928,-0.364,-57.53,-87.53,101.23,1785094077501.9277
-0.62,-0.946,-0.337,-56.15,-90.0,101.35,1785094077507.826
-0.587,-0.921,-0.392,-53.59,-91.86,103.09,1785094077518.6218
-0.542,-0.855,-0.489,-51.61,-91.13,105.84,1785094077531.713
-0.528,-0.776,-0.576,-52.19,-88.2,108.55,1785094077537.454
-0.563,-0.721,-0.619,-56.28,-85.09,111.0,1785094077548.6091
-0.616,-0.701,-0.61,-62.93,-82.13,112.64,1785094077561.934
-0.659,-0.702,-0.565,-70.53,-79.93,114.66,1785094077567.7742
-0.696,-0.73,-0.496,-75.99,-78.25,117.95,1785094077578.5698
-0.74,-0.775,-0.408,-77.73,-77.67,121.89,1785094077591.764
-0.789,-0.823,-0.334,-75.11,-78.13,125.8,1785094077597.7522
-0.838,-0.862,-0.282,-69.0,-79.04,129.12,1785094077608.5652
-0.872,-0.877,-0.309,-61.62,-80.08,131.44,1785094077621.792
-0.879,-0.852,-0.403,-54.87,-77.55,132.36,1785094077627.931
-0.902,-0.801,-0.5,-50.39,-70.68,130.99,1785094077638.503
-0.928,-0.77,-0.564,-51.91,-62.35,127.17,1785094077651.815
-0.937,-0.754,-0.565,-59.72,-54.23,119.75,1785094077657.8071
-0.919,-0.754,-0.5,-69.25,-46.6,109.35,1785094077668.48
-0.887,-0.767,-0.385,-75.01,-40.22,96.71,1785094077682.066
-0.855,-0.793,-0.279,-74.04,-36.16,83.29,1785094077687.694
-0.829,-0.8,-0.219,-66.84,-33.6,69.43,1785094077698.156
-0.813,-0.79,-0.201,-55.21,-32.29,55.12,1785094077711.477
-0.795,-0.76,-0.235,-41.93,-31.8,40.1,1785094077717.3818
-0.78,-0.703,-0.303,-28.14,-31.16,25.33,1785094077727.9028
-0.796,-0.641,-0.355,-15.78,-30.64,13.21,1785094077738.4993
-0.815,-0.596,-0.384,-7.48,-30.98,3.94,1785094077751.7769
-0.835,-0.543,-0.384,-5.46,-32.96,-5.16,1785094077757.618
-0.819,-0.512,-0.361,-5.89,-31.89,-13.89,1785094077767.7542
