ax,ay,az,gx,gy,gz,timestamp_ms
-0.818,-0.557,-0.295,-0.79,-21.09,35.62,1785094384304.674
-0.82,-0.536,-0.306,1.59,-20.48,35.37,1785094384305.159
-0.828,-0.523,-0.303,0.67,-20.97,36.16,1785094384305.592
-0.84,-0.527,-0.294,-2.81,-22.19,38.12,1785094384306.008
-0.844,-0.531,-0.288,-7.66,-22.61,38.79,1785094384306.4211
-0.857,-0.52,-0.277,-13.37,-22.1,37.97,1785094384306.8428
-0.88,-0.517,-0.271,-20.17,-23.1,38.18,1785094384307.225
-0.86,-0.539,-0.273,-26.92,-25.27,39.95,1785094384307.5771
-0.869,-0.521,-0.275,-32.84,-24.99,37.93,1785094384307.934
-0.869,-0.517,-0.296,-38.73,-26.25,37.78,1785094384308.2932
-0.878,-0.509,-0.297,-44.47,-26.8,37.05,1785094384308.6519
-0.869,-0.517,-0.294,-48.62,-27.89,37.97,1785094384309.0059
-0.836,-0.521,-0.285,-52.1,-27.99,37.54,1785094384309.361
-0.843,-0.496,-0.266,-54.84,-26.22,33.72,1785094384309.708
-0.843,-0.513,-0.255,-56.49,-25.97,33.33,1785094384310.055
-0.831,-0.529,-0.238,-57.8,-24.99,30.92,1785094384310.3948
-0.838,-0.524,-0.232,-57.62,-23.99,27.07,1785094384310.745
-0.836,-0.537,-0.236,-55.67,-23.62,25.15,1785094384311.093
-0.838,-0.534,-0.24,-52.19,-22.98,22.8,1785094384311.436
-0.842,-0.526,-0.246,-46.82,-22.28,20.91,1785094384311.82
-0.831,-0.52,-0.255,-40.53,-21.06,18.92,1785094384312.19
-0.835,-0.505,-0.257,-34.73,-18.92,15.56,1785094384312.538
-0.836,-0.504,-0.247,-29.51,-17.3,12.76,1785094384312.8882
-0.836,-0.504,-0.234,-25.15,-16.11,10.07,1785094384313.244
-0.84,-0.502,-0.223,-20.63,-15.23,8.12,1785094384313.6157
-0.841,-0.499,-0.223,-15.69,-14.44,7.05,1785094384313.9739
-0.84,-0.488,-0.231,-11.17,-13.64,6.2,1785094384314.329
-0.842,-0.475,-0.242,-7.54,-12.82,5.4,1785094384314.676
-0.842,-0.459,-0.245,-5.37,-11.96,4.58,1785094384314.9978
-0.841,-0.455,-0.247,-5.16,-11.44,2.93,1785094384315.288
-0.841,-0.455,-0.247,-6.53,-11.08,1.4,1785094384315.5862
-0.841,-0.452,-0.244,-8.03,-10.77,0.49,1785094384315.8872
-0.844,-0.455,-0.243,-9.64,-10.62,-0.21,1785094384316.227
-0.847,-0.453,-0.244,-11.29,-10.25,-0.7,1785094384316.537
-0.849,-0.449,-0.245,-11.29,-10.25,-0.7,1785094384316.876
-0.851,-0.454,-0.244,-12.39,-10.1,-1.4,1785094384317.179
-0.851,-0.462,-0.246,-13.06,-9.92,-2.53,1785094384317.466
-0.858,-0.463,-0.245,-13.25,-9.74,-3.11,1785094384317.7578
-0.861,-0.457,-0.243,-13.4,-9.67,-3.17,1785094384318.0642
-0.863,-0.447,-0.238,-13.61,-9.52,-3.11,1785094384318.362
-0.861,-0.431,-0.231,-14.1,-9.46,-2.69,1785094384318.6528
-0.856,-0.423,-0.232,-14.59,-9.52,-2.87,1785094384318.951
-0.857,-0.424,-0.233,-15.32,-9.25,-3.94,1785094384319.247
-0.858,-0.432,-0.234,-15.63,-8.91,-5.13,1785094384319.5342
-0.857,-0.433,-0.237,-15.47,-8.51,-6.38,1785094384319.857
-0.859,-0.429,-0.238,-15.2,-8.18,-7.2,1785094384320.1558
-0.861,-0.427,-0.238,-14.95,-7.87,-7.72,1785094384320.4648
-0.864,-0.427,-0.238,-14.83,-7.6,-8.21,1785094384320.771
-0.869,-0.427,-0.241,-14.86,-7.39,-8.76,1785094384321.076
-0.873,-0.426,-0.239,-14.8,-7.23,-9.0,1785094384321.396
-0.875,-0.42,-0.237,-14.95,-7.35,-9.4,1785094384321.783
-0.876,-0.414,-0.236,-15.05,-7.66,-9.58,1785094384322.122
-0.88,-0.413,-0.238,-15.14,-7.81,-9.7,1785094384322.4268
-0.885,-0.414,-0.241,-15.47,-7.84,-9.86,1785094384322.721
-0.884,-0.412,-0.243,-16.08,-8.12,-9.92,1785094384322.984
-0.88,-0.405,-0.241,-17.09,-8.45,-9.8,1785094384323.2441
-0.872,-0.399,-0.238,-18.52,-9.13,-9.28,1785094384323.505
-0.871,-0.392,-0.237,-20.33,-9.74,-8.82,1785094384323.769
-0.875,-0.39,-0.241,-22.46,-10.25,-8.45,1785094384324.0261
-0.88,-0.39,-0.246,-25.12,-10.71,-8.33,1785094384324.33
-0.878,-0.394,-0.248,-28.02,-11.23,-8.27,1785094384324.6301
-0.869,-0.393,-0.251,-30.82,-11.57,-8.12,1785094384324.8892
-0.865,-0.39,-0.257,-32.87,-11.54,-7.87,1785094384325.1572
-0.865,-0.386,-0.258,-34.46,-11.11,-7.39,1785094384325.438
-0.86,-0.382,-0.253,-36.07,-10.22,-6.93,1785094384325.703
-0.86,-0.391,-0.247,-36.87,-9.34,-7.02,1785094384325.9622
-0.859,-0.401,-0.236,-37.29,-8.55,-6.87,1785094384326.232
-0.859,-0.408,-0.232,-36.9,-8.12,-6.84,1785094384326.497
-0.86,-0.409,-0.227,-35.65,-7.81,-6.5,1785094384326.756
-0.863,-0.407,-0.225,-33.51,-7.51,-5.71,1785094384327.017
-0.866,-0.407,-0.226,-30.27,-7.08,-5.37,1785094384327.28
-0.873,-0.4,-0.228,-26.76,-6.84,-5.13,1785094384327.5469
-0.876,-0.389,-0.234,-23.96,-6.62,-4.82,1785094384327.805
-0.877,-0.381,-0.238,-21.49,-6.07,-4.64,1785094384328.0671
-0.877,-0.381,-0.242,-19.04,-5.22,-4.52,1785094384328.346
-0.877,-0.386,-0.236,-17.0,-4.43,-4.55,1785094384328.606
-0.876,-0.39,-0.23,-15.47,-3.85,-4.3,1785094384328.856
-0.876,-0.396,-0.227,-13.79,-3.51,-3.94,1785094384329.092
-0.874,-0.399,-0.226,-11.96,-3.14,-3.36,1785094384329.3281
-0.874,-0.396,-0.226,-10.47,-2.9,-2.66,1785094384329.556
-0.873,-0.392,-0.227,-9.25,-2.81,-1.71,1785094384329.7861
-0.873,-0.388,-0.231,-8.7,-2.72,-0.98,1785094384330.0212
-0.87,-0.386,-0.234,-8.33,-2.59,-0.64,1785094384330.249
-0.868,-0.386,-0.23,-8.3,-2.59,-0.31,1785094384330.483
-0.865,-0.383,-0.229,-8.82,-2.72,-0.15,1785094384330.7798
-0.865,-0.38,-0.227,-9.4,-2.9,0.15,1785094384331.011
-0.868,-0.383,-0.224,-10.07,-3.14,0.46,1785094384331.246
-0.867,-0.383,-0.223,-10.74,-3.42,0.52,1785094384331.484
-0.865,-0.383,-0.222,-11.75,-3.97,0.49,1785094384331.72
-0.867,-0.379,-0.222,-12.7,-4.3,0.4,1785094384331.948
-0.87,-0.38,-0.225,-13.49,-4.3,0.09,1785094384332.18
-0.871,-0.379,-0.224,-14.5,-4.61,-0.24,1785094384332.418
-0.869,-0.381,-0.225,-15.11,-4.64,-0.64,1785094384332.646
-0.87,-0.386,-0.221,-14.83,-4.24,-1.28,1785094384332.885
-0.872,-0.394,-0.217,-13.79,-4.15,-1.74,1785094384333.1157
-0.875,-0.397,-0.213,-12.57,-4.21,-1.95,1785094384333.344
-0.877,-0.398,-0.21,-10.74,-3.91,-1.77,1785094384333.58
-0.882,-0.396,-0.21,-8.64,-3.85,-1.59,1785094384333.808
-0.878,-0.393,-0.216,-7.29,-3.75,-1.19,1785094384334.038
-0.885,-0.378,-0.222,-7.66,-4.24,-1.53,1785094384334.261
-0.88,-0.378,-0.224,-8.39,-4.55,-1.37,1785094384334.504
-0.882,-0.383,-0.223,-8.48,-3.88,-1.43,1785094384334.7368
-0.886,-0.383,-0.227,-8.55,-4.03,-1.28,1785094384334.965
-0.88,-0.38,-0.224,-9.06,-4.76,-1.01,1785094384335.191
-0.876,-0.379,-0.224,-9.34,-4.94,-0.73,1785094384335.423
-0.877,-0.382,-0.224,-9.09,-4.97,-0.15,1785094384335.653
-0.878,-0.382,-0.221,-8.7,-5.13,0.12,1785094384335.884
-0.877,-0.381,-0.222,-8.48,-5.07,-0.18,1785094384336.122
-0.871,-0.381,-0.226,-8.7,-5.16,-0.18,1785094384336.358
-0.868,-0.382,-0.229,-9.03,-5.19,0.0,1785094384336.583
-0.872,-0.383,-0.227,-8.97,-5.25,0.34,1785094384336.8389
-0.873,-0.386,-0.231,-9.0,-5.71,0.76,1785094384337.0527
-0.876,-0.381,-0.23,-9.52,-5.83,0.55,1785094384337.269
-0.88,-0.376,-0.229,-10.07,-5.62,0.43,1785094384337.482
-0.878,-0.381,-0.228,-10.56,-5.8,0.73,1785094384337.7002
-0.876,-0.376,-0.227,-11.08,-5.86,0.67,1785094384337.9167
-0.877,-0.371,-0.227,-11.32,-6.04,0.55,1785094384338.1318
-0.877,-0.374,-0.228,-11.6,-6.26,0.55,1785094384338.3623
-0.877,-0.379,-0.23,-12.15,-6.29,0.49,1785094384338.583
-0.877,-0.384,-0.229,-12.54,-6.35,0.67,1785094384338.8018
-0.876,-0.384,-0.231,-12.57,-6.53,0.79,1785094384339.01
-0.873,-0.38,-0.229,-12.33,-6.44,0.82,1785094384339.227
-0.871,-0.381,-0.23,-11.96,-6.26,0.67,1785094384339.442
-0.873,-0.38,-0.232,-11.84,-6.29,0.55,1785094384339.653
-0.873,-0.377,-0.234,-11.69,-6.35,0.58,1785094384339.8718
-0.874,-0.379,-0.234,-11.26,-6.29,0.79,1785094384340.091
-0.873,-0.377,-0.233,-10.77,-6.29,0.85,1785094384340.306
-0.873,-0.375,-0.231,-10.1,-6.2,1.04,1785094384340.5208
-0.875,-0.377,-0.233,-9.55,-6.13,0.98,1785094384340.765
-0.875,-0.376,-0.235,-9.52,-6.01,0.85,1785094384340.99
-0.881,-0.375,-0.238,-9.98,-5.98,0.95,1785094384341.217
-0.878,-0.375,-0.237,-10.41,-5.83,1.01,1785094384341.4678
-0.885,-0.383,-0.239,-10.16,-6.04,1.65,1785094384341.708
-0.865,-0.376,-0.237,-11.2,-6.2,0.98,1785094384341.929
-0.875,-0.356,-0.233,-11.51,-5.13,-0.03,1785094384342.1519
-0.883,-0.379,-0.236,-9.64,-4.27,1.04,1785094384342.368
-0.885,-0.388,-0.232,-8.21,-4.46,1.13,1785094384342.582
-0.874,-0.387,-0.235,-6.32,-5.01,1.95,1785094384342.782
-0.871,-0.373,-0.237,-5.19,-4.82,1.8,1785094384342.9849
-0.876,-0.369,-0.237,-4.43,-4.36,1.68,1785094384343.19
-0.876,-0.375,-0.24,-4.03,-4.06,1.62,1785094384343.389
-0.878,-0.37,-0.24,-4.21,-3.78,1.28,1785094384343.591
-0.881,-0.368,-0.241,-4.73,-3.97,1.77,1785094384343.799
-0.886,-0.368,-0.24,-5.62,-4.39,2.17,1785094384344.0
-0.884,-0.372,-0.237,-6.01,-4.46,2.69,1785094384344.207
-0.88,-0.373,-0.235,-5.8,-4.18,2.87,1785094384344.415
-0.88,-0.378,-0.235,-5.01,-3.85,2.96,1785094384344.617
-0.882,-0.377,-0.235,-4.58,-3.63,3.05,1785094384344.82
-0.883,-0.376,-0.234,-4.33,-3.54,3.66,1785094384345.0269
-0.881,-0.372,-0.232,-4.0,-3.54,4.03,1785094384345.2317
-0.881,-0.374,-0.233,-3.66,-3.42,4.36,1785094384345.4312
-0.882,-0.377,-0.237,-3.39,-3.27,4.52,1785094384345.634
-0.885,-0.378,-0.24,-3.05,-3.23,4.46,1785094384345.839
-0.885,-0.38,-0.24,-2.9,-3.05,4.46,1785094384346.0369
-0.885,-0.38,-0.241,-2.56,-2.69,4.49,1785094384346.2349
-0.885,-0.378,-0.241,-2.26,-2.78,4.52,1785094384346.436
-0.881,-0.376,-0.239,-2.56,-2.99,4.46,1785094384346.656
-0.882,-0.373,-0.24,-3.14,-3.11,4.49,1785094384346.852
-0.882,-0.373,-0.24,-3.85,-3.23,4.52,1785094384347.06
-0.885,-0.376,-0.243,-4.43,-3.39,4.21,1785094384347.2659
-0.885,-0.375,-0.246,-4.94,-3.23,4.15,1785094384347.4639
-0.883,-0.372,-0.246,-5.13,-3.08,3.97,1785094384347.673
-0.877,-0.372,-0.244,-5.13,-3.08,3.97,1785094384347.882
-0.876,-0.373,-0.242,-4.97,-2.81,3.66,1785094384348.0808
-0.878,-0.374,-0.241,-4.7,-2.66,3.75,1785094384348.288
-0.884,-0.375,-0.242,-4.36,-2.47,3.88,1785094384348.4941
-0.887,-0.376,-0.244,-4.24,-2.2,3.91,1785094384348.681
-0.889,-0.375,-0.245,-4.46,-1.92,4.33,1785094384348.877
-0.89,-0.372,-0.247,-4.61,-1.62,4.7,1785094384349.071
-0.887,-0.374,-0.25,-4.3,-1.22,4.88,1785094384349.2732
-0.887,-0.375,-0.251,-4.06,-0.92,4.97,1785094384349.4612
-0.884,-0.378,-0.25,-4.3,-0.61,4.97,1785094384349.6477
-0.878,-0.377,-0.246,-4.91,-0.24,5.1,1785094384350.025
-0.876,-0.376,-0.247,-5.07,0.0,5.28,1785094384350.2131
-0.847,-0.669,-0.512,-25.33,7.9,-3.85,1785094384350.562
-0.945,-0.724,-0.473,-15.84,11.6,-9.31,1785094384350.754
-0.958,-0.783,-0.406,-3.05,12.15,-12.39,1785094384350.948
-1.014,-0.718,-0.354,11.44,12.6,-19.41,1785094384352.564
-1.074,-0.709,-0.375,25.3,16.24,-20.17,1785094384363.288
-1.111,-0.717,-0.418,29.63,17.98,-22.1,1785094384373.944
-1.101,-0.691,-0.448,27.25,20.57,-26.98,1785094384387.1602
-1.072,-0.717,-0.493,27.01,21.94,-31.56,1785094384392.925
-1.049,-0.766,-0.516,26.86,21.94,-36.35,1785094384403.6638
-1.065,-0.717,-0.515,24.2,20.02,-44.4,1785094384416.882
-1.069,-0.658,-0.509,20.78,18.86,-45.93,1785094384422.6282
-1.057,-0.641,-0.518,18.74,18.01,-45.66,1785094384433.368
-1.055,-0.618,-0.511,16.17,17.0,-48.1,1785094384444.03
-1.045,-0.603,-0.499,14.01,16.05,-50.17,1785094384457.3218
-1.045,-0.603,-0.499,12.09,15.23,-51.64,1785094384463.015
-1.032,-0.612,-0.475,9.43,13.7,-51.97,1785094384473.6562
-1.011,-0.633,-0.458,7.81,11.2,-49.96,1785094384486.9602
-0.99,-0.649,-0.423,8.48,7.45,-46.3,1785094384492.8022
-0.973,-0.661,-0.41,8.09,3.57,-41.41,1785094384502.9558
-0.96,-0.646,-0.411,8.09,3.57,-41.41,1785094384513.481
-0.923,-0.617,-0.411,5.62,-0.76,-34.33,1785094384524.1038
-0.866,-0.623,-0.425,4.15,-4.61,-27.71,1785094384537.3098
-0.819,-0.646,-0.452,3.54,-8.0,-22.52,1785094384543.251
-0.786,-0.635,-0.471,4.33,-10.74,-15.53,1785094384553.3618
-0.755,-0.61,-0.465,7.81,-13.58,-5.52,1785094384563.801
-0.73,-0.588,-0.452,11.66,-17.18,3.81,1785094384577.156
-0.696,-0.583,-0.444,12.97,-20.6,11.63,1785094384582.9539
-0.652,-0.607,-0.421,12.33,-23.29,19.04,1785094384593.422
-0.617,-0.654,-0.386,10.93,-26.43,25.61,1785094384604.0598
-0.592,-0.677,-0.368,10.47,-30.55,31.86,1785094384617.305
-0.561,-0.662,-0.375,12.85,-34.58,39.58,1785094384623.3262
-0.53,-0.609,-0.407,16.54,-39.03,47.58,1785094384633.826
-0.504,-0.55,-0.453,17.85,-43.82,55.12,1785094384647.038
-0.483,-0.514,-0.484,13.98,-48.19,61.28,1785094384652.9338
-0.475,-0.521,-0.486,5.16,-52.67,66.74,1785094384663.371
-0.466,-0.56,-0.458,-3.85,-56.95,70.71,1785094384674.508
-0.434,-0.579,-0.451,-11.9,-62.41,74.07,1785094384687.2031
-0.376,-0.567,-0.493,-18.49,-67.35,78.65,1785094384693.202
-0.311,-0.555,-0.539,-23.47,-70.89,82.55,1785094384703.688
-0.278,-0.541,-0.568,-27.56,-73.27,83.47,1785094384716.877
-0.286,-0.537,-0.555,-32.32,-75.05,83.13,1785094384722.814
-0.328,-0.565,-0.516,-37.02,-76.91,81.61,1785094384733.323
-0.376,-0.6,-0.475,-41.38,-80.42,79.81,1785094384743.9558
-0.399,-0.609,-0.48,-44.59,-84.9,78.34,1785094384757.226
-0.389,-0.569,-0.519,-46.42,-88.99,78.4,1785094384763.149
-0.364,-0.506,-0.562,-47.46,-92.93,80.26,1785094384774.5989
-0.359,-0.464,-0.617,-49.5,-95.77,81.88,1785094384786.887
-0.378,-0.457,-0.674,-54.51,-96.29,82.03,1785094384792.984
-0.411,-0.488,-0.689,-62.14,-95.49,81.0,1785094384803.4019
-0.449,-0.543,-0.655,-70.59,-94.94,78.92,1785094384814.034
-0.473,-0.577,-0.62,-76.69,-95.16,75.93,1785094384827.337
-0.464,-0.544,-0.653,-79.26,-95.65,72.85,1785094384833.25
-0.448,-0.459,-0.72,-81.3,-94.33,72.39,1785094384843.6538
-0.468,-0.398,-0.759,-85.24,-91.28,73.27,1785094384857.562
-0.493,-0.384,-0.751,-91.98,-87.98,72.39,1785094384863.0242
-0.509,-0.413,-0.706,-97.84,-85.24,69.58,1785094384873.462
-0.536,-0.47,-0.648,-99.67,-82.4,66.23,1785094384884.1091
-0.57,-0.526,-0.576,-97.32,-80.2,62.84,1785094384897.3691
-0.599,-0.568,-0.508,-89.42,-79.41,59.21,1785094384903.2349
-0.604,-0.568,-0.486,-77.39,-79.96,55.24,1785094384913.849
-0.601,-0.505,-0.54,-65.61,-80.57,50.72,1785094384927.0288
-0.624,-0.414,-0.633,-59.3,-80.05,46.48,1785094384932.959
-0.677,-0.335,-0.743,-62.32,-78.92,42.7,1785094384943.542
-0.763,-0.275,-0.793,-72.3,-75.44,38.0,1785094384954.199
-0.856,-0.283,-0.768,-87.44,-73.34,33.57,1785094384967.436
-0.906,-0.323,-0.704,-106.02,-73.82,30.15,1785094384973.465
-0.922,-0.369,-0.634,-122.78,-74.62,28.57,1785094384984.072
-0.901,-0.42,-0.569,-134.43,-75.11,27.74,1785094384997.307
-0.84,-0.461,-0.545,-139.62,-75.01,25.39,1785094385003.2483
-0.786,-0.5,-0.541,-137.7,-72.76,20.78,1785094385014.0103
-0.764,-0.502,-0.577,-130.68,-69.77,13.58,1785094385027.3289
-0.772,-0.471,-0.605,-123.02,-65.71,6.93,1785094385033.205
-0.802,-0.461,-0.598,-117.68,-61.01,-0.12,1785094385043.846
-0.817,-0.458,-0.554,-114.93,-56.79,-7.48,1785094385057.1133
-0.814,-0.475,-0.497,-112.46,-53.25,-14.07,1785094385062.9338
-0.823,-0.486,-0.467,-109.16,-49.53,-21.06,1785094385073.7788
-0.831,-0.477,-0.457,-106.14,-45.75,-26.03,1785094385086.924
-0.824,-0.508,-0.457,-103.61,-42.66,-31.4,1785094385092.9229
-0.822,-0.55,-0.466,-101.5,-39.83,-38.12,1785094385103.622
-0.827,-0.546,-0.487,-100.5,-37.11,-42.94,1785094385116.8901
-0.824,-0.513,-0.523,-101.11,-34.55,-46.11,1785094385122.8271
-0.807,-0.467,-0.56,-104.22,-31.34,-49.32,1785094385133.6
-0.793,-0.439,-0.578,-108.34,-27.22,-52.95,1785094385147.269
-0.799,-0.445,-0.545,-113.86,-22.61,-57.44,1785094385152.8052
-0.812,-0.483,-0.486,-118.87,-19.17,-62.53,1785094385163.5872
-0.823,-0.539,-0.443,-119.94,-16.51,-67.23,1785094385176.8022
-0.834,-0.605,-0.436,-114.87,-13.64,-71.38,1785094385182.7158
-0.857,-0.646,-0.451,-106.78,-10.96,-73.89,1785094385193.561
-0.859,-0.645,-0.515,-99.55,-8.42,-74.56,1785094385204.224
-0.833,-0.583,-0.6,-95.37,-3.72,-74.74,1785094385217.097
-0.824,-0.532,-0.621,-94.94,2.75,-74.13,1785094385222.7632
-0.834,-0.548,-0.605,-96.8,8.61,-75.99,1785094385233.543
-0.845,-0.571,-0.572,-97.96,13.31,-79.81,1785094385244.22
-0.86,-0.594,-0.536,-95.8,17.49,-83.01,1785094385259.295
-0.884,-0.627,-0.518,-90.98,21.03,-85.94,1785094385263.053
-0.889,-0.663,-0.531,-84.48,23.53,-89.33,1785094385274.166
-0.92,-0.665,-0.577,-78.46,25.7,-92.59,1785094385287.6338
-0.905,-0.667,-0.625,-75.72,30.27,-92.5,1785094385293.246
-0.917,-0.604,-0.66,-78.98,35.19,-95.0,1785094385303.5881
-0.93,-0.586,-0.661,-87.34,38.82,-95.68,1785094385314.262
-0.938,-0.612,-0.639,-96.71,42.63,-98.18,1785094385327.51
-0.949,-0.627,-0.623,-102.73,45.99,-101.54,1785094385333.254
-0.961,-0.641,-0.62,-104.77,48.83,-103.58,1785094385346.908
-0.95,-0.659,-0.627,-105.11,52.19,-104.68,1785094385352.827
-0.944,-0.674,-0.627,-105.01,55.24,-106.14,1785094385363.7812
-0.935,-0.684,-0.637,-105.59,57.5,-106.6,1785094385377.012
-0.928,-0.671,-0.668,-107.18,60.24,-105.93,1785094385382.966
-0.938,-0.651,-0.701,-108.71,64.03,-105.66,1785094385394.003
-0.954,-0.649,-0.705,-110.35,68.64,-106.75,1785094385407.239
-0.961,-0.653,-0.678,-110.72,73.52,-109.65,1785094385413.158
-0.986,-0.673,-0.661,-108.62,76.75,-111.06,1785094385424.352
-0.982,-0.694,-0.648,-105.2,78.83,-109.71,1785094385437.381
-0.971,-0.681,-0.66,-100.01,81.85,-109.9,1785094385443.589
-0.958,-0.668,-0.681,-93.91,84.2,-108.98,1785094385456.746
-0.943,-0.661,-0.715,-89.69,85.76,-108.34,1785094385462.401
-0.923,-0.644,-0.757,-87.68,87.1,-106.85,1785094385473.5898
-0.921,-0.617,-0.778,-87.77,89.42,-105.53,1785094385484.269
-0.934,-0.607,-0.763,-88.02,92.87,-105.62,1785094385497.638
-0.936,-0.614,-0.723,-86.58,95.49,-105.66,1785094385503.4868
-0.928,-0.622,-0.664,-81.55,97.02,-103.76,1785094385514.236
-0.904,-0.623,-0.622,-72.12,97.96,-100.89,1785094385527.595
-0.894,-0.622,-0.63,-62.01,97.87,-98.27,1785094385533.4421
-0.851,-0.622,-0.665,-56.03,94.97,-90.95,1785094385544.0461
-0.806,-0.574,-0.731,-54.05,95.71,-87.31,1785094385557.412
-0.803,-0.501,-0.787,-57.5,97.93,-86.21,1785094385563.222
-0.794,-0.482,-0.812,-66.23,97.26,-82.37,1785094385574.6611
-0.774,-0.493,-0.812,-76.08,96.62,-79.53,1785094385586.9482
-0.757,-0.511,-0.781,-82.03,97.54,-78.62,1785094385593.461
-0.735,-0.526,-0.718,-83.01,97.99,-77.18,1785094385603.447
-0.701,-0.525,-0.685,-80.29,96.65,-75.14,1785094385614.084
-0.677,-0.507,-0.669,-75.75,95.92,-72.3,1785094385627.465
-0.658,-0.497,-0.678,-71.44,94.09,-67.87,1785094385633.2778
-0.632,-0.464,-0.717,-70.86,92.14,-63.6,1785094385643.7913
-0.622,-0.429,-0.748,-73.67,91.59,-59.05,1785094385656.996
-0.606,-0.435,-0.745,-78.19,90.15,-53.9,1785094385662.918
-0.578,-0.435,-0.719,-81.39,89.08,-51.21,1785094385673.4973
-0.541,-0.431,-0.687,-78.55,89.51,-49.07,1785094385684.114
-0.509,-0.419,-0.679,-69.09,90.18,-47.0,1785094385697.4731
-0.492,-0.4,-0.679,-57.99,89.24,-44.43,1785094385703.285
-0.476,-0.382,-0.693,-49.56,89.05,-43.21,1785094385713.849
-0.469,-0.357,-0.704,-45.78,89.54,-43.21,1785094385727.104
-0.456,-0.344,-0.699,-46.17,88.02,-41.93,1785094385732.9932
-0.439,-0.333,-0.692,-48.01,86.12,-40.53,1785094385743.5432
-0.439,-0.333,-0.692,-47.58,84.63,-38.76,1785094385754.133
-0.429,-0.346,-0.693,-46.17,82.52,-36.59,1785094385767.378
-0.415,-0.365,-0.704,-45.11,80.81,-34.12,1785094385773.3572
-0.395,-0.372,-0.705,-43.58,78.55,-31.37,1785094385783.841
-0.371,-0.372,-0.705,-43.58,78.55,-31.37,1785094385797.076
-0.351,-0.354,-0.702,-41.84,76.54,-28.29,1785094385803.071
-0.327,-0.324,-0.702,-38.85,74.22,-25.67,1785094385813.6033
-0.312,-0.296,-0.732,-35.04,70.65,-24.75,1785094385824.2542
-0.308,-0.259,-0.758,-33.69,67.84,-24.69,1785094385837.4421
-0.291,-0.232,-0.757,-35.95,64.58,-24.41,1785094385843.387
-0.251,-0.215,-0.742,-39.25,62.56,-26.03,1785094385853.893
-0.224,-0.219,-0.748,-41.02,62.53,-28.2,1785094385867.173
-0.207,-0.236,-0.752,-42.91,61.43,-27.89,1785094385873.238
-0.191,-0.243,-0.762,-45.9,59.79,-27.1,1785094385883.6538
-0.178,-0.245,-0.751,-48.01,59.27,-27.22,1785094385894.314
-0.176,-0.272,-0.728,-46.88,57.65,-27.92,1785094385907.4922
-0.17,-0.29,-0.708,-41.63,55.64,-29.05,1785094385913.422
-0.157,-0.288,-0.693,-31.86,54.26,-30.34,1785094385924.0251
-0.136,-0.24,-0.7,-22.0,53.04,-31.19,1785094385937.1992
-0.128,-0.176,-0.728,-17.37,50.72,-30.15,1785094385943.257
-0.115,-0.138,-0.748,-18.46,48.59,-29.11,1785094385953.768
-0.09,-0.118,-0.772,-24.57,44.8,-27.04,1785094385966.9812
-0.063,-0.114,-0.778,-30.64,43.21,-27.19,1785094385972.9868
-0.057,-0.13,-0.769,-33.6,42.48,-28.81,1785094385983.458
-0.048,-0.132,-0.759,-33.6,41.2,-29.45,1785094385994.057
-0.036,-0.12,-0.752,-30.92,40.35,-29.88,1785094386007.599
-0.039,-0.11,-0.755,-27.95,39.19,-29.69,1785094386013.244
-0.068,-0.096,-0.727,-28.84,36.07,-28.32,1785094386023.8088
-0.051,-0.087,-0.77,-35.04,31.71,-25.94,1785094386037.1257
-0.012,-0.106,-0.785,-37.23,31.53,-27.77,1785094386043.0542
0.012,-0.102,-0.787,-33.14,30.82,-27.53,1785094386053.434
0.001,-0.088,-0.79,-26.28,29.36,-26.15,1785094386064.121
0.004,-0.06,-0.776,-21.36,27.92,-25.45,1785094386077.376
0.024,-0.034,-0.761,-15.11,26.49,-25.45,1785094386083.2542
0.033,-0.015,-0.765,-8.27,24.57,-25.09,1785094386093.694
0.028,0.008,-0.784,-3.78,22.61,-23.99,1785094386104.262
0.031,0.047,-0.826,-4.36,20.63,-21.67,1785094386117.48
0.038,0.087,-0.869,-9.92,17.98,-18.13,1785094386123.3862
0.042,0.108,-0.897,-16.94,15.81,-14.01,1785094386133.771
0.038,0.091,-0.884,-20.45,15.56,-11.2,1785094386147.014
0.034,0.053,-0.861,-18.74,16.02,-9.55,1785094386152.922
0.026,0.029,-0.847,-13.12,16.21,-8.12,1785094386163.323
0.022,0.038,-0.839,-5.65,15.35,-5.8,1785094386175.149
0.033,0.062,-0.855,1.62,13.58,-2.47,1785094386184.2507
0.047,0.092,-0.896,4.91,12.36,1.34,1785094386197.577
0.047,0.113,-0.918,4.27,12.36,5.46,1785094386203.3223
0.055,0.104,-0.902,2.93,12.79,9.34,1785094386213.4421
0.065,0.073,-0.87,4.7,12.63,11.78,1785094386224.156
0.076,0.043,-0.875,10.19,11.41,13.76,1785094386237.3152
0.08,0.052,-0.922,14.86,10.56,16.27,1785094386243.277
0.084,0.079,-0.964,16.66,10.8,19.59,1785094386253.664
0.085,0.1,-0.993,16.11,10.96,22.06,1785094386266.982
0.085,0.112,-0.997,14.62,10.86,24.02,1785094386272.844
0.068,0.097,-0.989,14.5,10.5,26.22,1785094386283.4128
0.059,0.074,-0.977,13.82,9.95,28.75,1785094386294.2642
0.058,0.069,-0.971,11.87,10.65,30.79,1785094386307.312
0.057,0.053,-0.984,10.38,11.81,33.94,1785094386313.1367
0.064,0.037,-1.018,7.26,12.85,37.66,1785094386323.606
0.064,0.044,-1.049,1.4,13.52,41.51,1785094386334.119
0.06,0.035,-1.069,-4.33,13.61,45.87,1785094386347.4119
0.06,0.031,-1.074,-9.43,13.61,49.38,1785094386353.399
0.067,0.017,-1.067,-11.41,14.1,52.28,1785094386363.775
0.071,-0.009,-1.056,-9.89,15.02,54.48,1785094386381.4678
0.068,-0.015,-1.047,-7.02,16.02,56.73,1785094386387.872
0.065,-0.025,-1.062,-4.09,17.58,59.02,1785094386393.3818
0.066,-0.035,-1.079,-3.51,19.38,60.61,1785094386403.768
0.076,-0.023,-1.093,-6.5,20.17,62.2,1785094386414.102
0.088,-0.021,-1.098,-10.68,21.06,64.55,1785094386427.663
0.084,-0.041,-1.105,-14.34,21.97,66.62,1785094386433.462
0.071,-0.057,-1.103,-17.12,22.61,68.48,1785094386443.933
0.059,-0.067,-1.099,-17.37,23.99,70.25,1785094386457.271
0.053,-0.08,-1.075,-14.25,25.7,71.66,1785094386462.759
0.06,-0.094,-1.046,-9.16,27.31,71.87,1785094386473.45
0.083,-0.098,-1.044,-3.88,28.47,72.08,1785094386483.905
0.094,-0.096,-1.068,-1.07,29.6,73.24,1785094386497.543
0.083,-0.078,-1.108,-3.05,30.73,75.69,1785094386502.764
0.074,-0.061,-1.15,-9.74,31.4,78.83,1785094386513.29
0.064,-0.068,-1.148,-17.58,32.44,80.97,1785094386524.044
0.064,-0.082,-1.113,-23.1,33.45,81.39,1785094386537.7222
0.067,-0.089,-1.086,-23.5,34.36,82.03,1785094386543.039
0.06,-0.096,-1.06,-20.45,36.07,83.13,1785094386553.6267
0.071,-0.099,-1.04,-17.58,37.84,83.68,1785094386567.005
0.09,-0.105,-1.048,-16.48,39.12,83.96,1785094386572.682
0.095,-0.1,-1.074,-19.04,40.04,85.33,1785094386583.394
0.1,-0.087,-1.1,-24.41,40.53,87.44,1785094386594.072
0.1,-0.075,-1.09,-30.03,41.44,89.63,1785094386607.3542
0.097,-0.075,-1.07,-32.56,42.15,90.85,1785094386613.5571
0.087,-0.079,-1.045,-31.04,42.24,91.77,1785094386623.835
0.071,-0.094,-1.022,-25.64,42.79,92.29,1785094386636.9731
0.08,-0.102,-1.024,-20.78,44.4,93.02,1785094386642.653
0.097,-0.102,-1.038,-19.65,45.05,94.97,1785094386653.429
0.104,-0.094,-1.058,-23.26,45.11,98.39,1785094386664.3682
0.11,-0.089,-1.057,-29.51,44.95,102.69,1785094386677.422
0.123,-0.099,-1.036,-34.58,44.92,106.48,1785094386683.1108
0.123,-0.113,-1.013,-36.44,44.98,108.8,1785094386694.3271
0.117,-0.119,-0.997,-34.88,45.47,111.0,1785094386707.352
0.121,-0.134,-0.978,-29.15,47.06,111.21,1785094386713.054
0.129,-0.135,-0.959,-22.06,47.76,109.68,1785094386724.252
0.141,-0.125,-0.983,-16.94,47.94,109.81,1785094386737.223
0.142,-0.115,-0.997,-16.63,49.1,111.15,1785094386743.041
0.145,-0.133,-0.988,-19.93,49.75,113.22,1785094386753.913
0.163,-0.162,-0.972,-24.05,50.05,115.36,1785094386767.5352
0.153,-0.181,-0.939,-26.06,50.17,116.98,1785094386773.517
0.141,-0.182,-0.914,-25.03,49.93,118.53,1785094386784.178
0.128,-0.176,-0.92,-20.78,49.71,119.51,1785094386797.448
0.117,-0.183,-0.946,-15.72,50.33,120.79,1785094386803.356
0.125,-0.203,-0.955,-13.86,51.61,121.25,1785094386814.1282
0.138,-0.229,-0.961,-15.87,52.98,121.16,1785094386827.363
0.137,-0.255,-0.947,-20.36,54.05,122.44,1785094386833.3618
0.136,-0.284,-0.907,-25.39,53.8,124.97,1785094386844.073
0.158,-0.303,-0.857,-28.99,52.98,126.8,1785094386857.519
0.178,-0.306,-0.814,-28.17,51.79,127.51,1785094386863.083
0.193,-0.295,-0.824,-22.28,50.97,127.17,1785094386874.129
0.187,-0.284,-0.847,-13.37,51.7,125.52,1785094386887.403
0.166,-0.282,-0.863,-5.43,52.77,122.9,1785094386893.2668
0.159,-0.283,-0.895,-1.46,53.13,120.15,1785094386903.817
0.152,-0.3,-0.898,-2.01,53.83,119.36,1785094386917.063
0.155,-0.331,-0.858,-6.41,53.77,120.43,1785094386922.984
0.194,-0.375,-0.813,-10.59,52.89,122.14,1785094386933.6792
0.222,-0.41,-0.756,-11.6,52.03,123.97,1785094386947.114
0.233,-0.417,-0.731,-8.85,50.54,125.49,1785094386952.8582
0.236,-0.4,-0.76,-3.6,49.9,125.03,1785094386963.485
0.218,-0.358,-0.805,-0.64,49.56,121.34,1785094386974.3262
0.199,-0.32,-0.86,-0.7,49.68,117.53,1785094386987.305
0.201,-0.325,-0.871,-2.5,50.17,114.84,1785094386993.315
0.196,-0.349,-0.843,-4.76,50.11,113.53,1785094387003.7583
0.204,-0.408,-0.825,-4.64,50.05,114.81,1785094387017.041
0.224,-0.47,-0.793,-3.36,50.17,116.21,1785094387022.5898
0.224,-0.47,-0.793,0.43,50.75,116.92,1785094387033.492
0.246,-0.509,-0.753,8.91,52.19,118.17,1785094387044.332
0.257,-0.535,-0.726,20.57,54.08,118.72,1785094387057.476
0.262,-0.54,-0.737,32.93,56.28,118.11,1785094387063.345
0.256,-0.523,-0.755,32.93,56.28,118.11,1785094387074.367
0.256,-0.514,-0.793,45.05,58.66,116.86,1785094387087.3542
0.26,-0.488,-0.821,53.44,61.92,114.99,1785094387093.3801
0.265,-0.469,-0.829,58.66,65.19,114.41,1785094387104.174
0.273,-0.479,-0.827,62.53,68.58,114.78,1785094387117.3381
0.264,-0.497,-0.778,65.74,72.02,116.4,1785094387123.2742
0.258,-0.552,-0.72,68.54,73.64,118.59,1785094387134.094
0.259,-0.605,-0.718,68.97,75.05,117.71,1785094387147.283
0.265,-0.623,-0.687,67.45,78.16,117.22,1785094387153.209
0.266,-0.666,-0.647,66.62,80.32,116.86,1785094387164.0479
0.263,-0.7,-0.62,61.46,80.45,115.42,1785094387177.439
0.28,-0.724,-0.633,53.35,78.55,114.2,1785094387183.219
0.289,-0.738,-0.672,43.92,76.72,111.94,1785094387193.9858
0.275,-0.743,-0.673,34.21,75.44,109.44,1785094387207.344
0.263,-0.772,-0.646,26.95,73.61,106.81,1785094387213.154
0.268,-0.799,-0.608,21.39,71.17,103.46,1785094387224.132
0.281,-0.823,-0.589,17.27,68.61,99.49,1785094387237.155
0.284,-0.84,-0.589,12.63,66.65,94.42,1785094387243.2483
0.285,-0.827,-0.585,4.3,65.16,88.78,1785094387253.501
0.289,-0.802,-0.574,-7.05,64.18,84.2,1785094387264.118
0.286,-0.792,-0.571,-19.32,62.01,80.72,1785094387277.626
0.275,-0.748,-0.58,-33.66,59.02,77.82,1785094387283.4912
0.279,-0.679,-0.587,-47.98,55.02,76.75,1785094387293.881
0.291,-0.678,-0.591,-58.78,51.3,75.9,1785094387307.1602
0.28,-0.732,-0.59,-69.86,47.76,72.42,1785094387313.043
0.265,-0.797,-0.597,-82.0,43.7,69.25,1785094387323.551
0.263,-0.853,-0.61,-91.89,40.44,67.05,1785094387334.14
0.269,-0.886,-0.605,-98.33,37.48,64.33,1785094387347.477
0.291,-0.893,-0.587,-99.67,34.61,62.47,1785094387353.3098
0.319,-0.892,-0.568,-94.94,32.26,60.7,1785094387363.9521
0.329,-0.871,-0.563,-84.11,30.3,57.5,1785094387377.3398
0.345,-0.844,-0.56,-69.34,29.36,54.63,1785094387383.1492
0.361,-0.839,-0.568,-54.08,28.44,51.7,1785094387393.579
0.365,-0.839,-0.602,-44.07,26.58,48.95,1785094387404.247
0.356,-0.81,-0.63,-39.12,25.61,47.73,1785094387417.3538
0.351,-0.782,-0.641,-36.62,24.54,47.46,1785094387424.4639
0.352,-0.755,-0.659,-37.75,23.22,46.72,1785094387433.974
0.353,-0.733,-0.672,-42.79,22.19,46.27,1785094387447.204
0.359,-0.735,-0.683,-49.41,20.54,45.75,1785094387453.0898
0.368,-0.751,-0.694,-55.91,18.65,44.28,1785094387463.657
0.378,-0.773,-0.691,-60.7,17.4,42.94,1785094387474.415
0.384,-0.801,-0.702,-61.8,16.33,40.41,1785094387487.479
0.385,-0.802,-0.715,-60.3,15.23,37.75,1785094387494.3171
0.394,-0.803,-0.744,-55.85,14.47,34.55,1785094387503.9722
0.392,-0.797,-0.756,-51.45,14.44,30.15,1785094387517.298
0.382,-0.789,-0.747,-48.34,13.79,26.92,1785094387523.138
0.384,-0.767,-0.732,-45.44,13.09,24.14,1785094387533.688
0.388,-0.725,-0.721,-43.24,12.15,21.61,1785094387544.3552
0.389,-0.704,-0.733,-41.96,10.71,19.56,1785094387557.665
0.392,-0.685,-0.761,-42.85,10.01,16.72,1785094387563.493
0.394,-0.672,-0.771,-44.86,10.16,13.25,1785094387574.2168
0.397,-0.689,-0.766,-45.75,10.16,9.95,1785094387587.355
0.397,-0.707,-0.745,-44.4,10.07,7.11,1785094387593.2368
0.395,-0.697,-0.737,-40.44,10.32,5.55,1785094387603.533
0.392,-0.688,-0.735,-34.18,10.68,3.88,1785094387614.008
0.386,-0.688,-0.727,-27.07,10.74,0.52,1785094387627.272
0.393,-0.697,-0.708,-19.62,10.5,-2.87,1785094387633.162
0.405,-0.69,-0.715,-11.54,10.04,-5.68,1785094387643.444
0.411,-0.648,-0.752,-4.46,10.28,-7.2,1785094387653.905
0.413,-0.597,-0.779,0.0,11.26,-7.81,1785094387667.1802
0.416,-0.555,-0.8,-0.12,11.41,-8.79,1785094387673.0461
0.416,-0.533,-0.821,-3.57,11.26,-9.95,1785094387683.095
0.405,-0.521,-0.804,-8.64,11.38,-11.78,1785094387693.6992
0.407,-0.532,-0.781,-12.05,10.68,-13.92,1785094387704.363
0.415,-0.55,-0.774,-13.64,9.34,-15.5,1785094387717.5579
0.417,-0.532,-0.77,-14.83,7.75,-15.69,1785094387723.91
0.426,-0.542,-0.758,-14.25,9.43,-17.03,1785094387733.769
0.432,-0.572,-0.744,-15.81,11.57,-21.3,1785094387747.01
0.432,-0.582,-0.74,-20.02,10.47,-23.47,1785094387752.934
0.429,-0.571,-0.769,-21.39,10.07,-24.26,1785094387763.532
0.424,-0.553,-0.803,-19.78,10.41,-25.33,1785094387774.219
0.419,-0.529,-0.815,-17.4,10.35,-27.65,1785094387787.346
0.418,-0.506,-0.803,-15.2,10.04,-30.52,1785094387793.279
0.429,-0.495,-0.787,-13.31,9.4,-33.05,1785094387803.701
0.439,-0.495,-0.779,-11.87,9.09,-34.76,1785094387814.2322
0.441,-0.5,-0.773,-10.44,9.19,-35.1,1785094387827.479
0.439,-0.497,-0.773,-8.64,9.0,-35.46,1785094387833.37
0.45,-0.483,-0.777,-6.01,8.55,-35.49,1785094387843.4949
0.455,-0.455,-0.781,-4.03,8.48,-34.52,1785094387853.945
0.445,-0.429,-0.784,-4.46,8.39,-32.41,1785094387867.264
0.442,-0.41,-0.773,-7.97,8.06,-30.58,1785094387873.047
0.45,-0.406,-0.764,-11.66,7.69,-29.57,1785094387883.2969
0.454,-0.413,-0.74,-13.4,7.2,-28.6,1785094387893.7961
0.449,-0.418,-0.729,-11.6,6.56,-28.41,1785094387907.0752
0.447,-0.396,-0.722,-7.87,5.71,-28.05,1785094387912.993
0.451,-0.377,-0.719,-2.93,4.76,-27.41,1785094387923.1501
0.451,-0.386,-0.708,3.08,4.12,-27.59,1785094387933.5361
0.446,-0.399,-0.692,10.16,4.67,-28.5,1785094387943.933
0.444,-0.404,-0.682,18.65,5.4,-28.2,1785094387957.5142
0.439,-0.391,-0.673,27.5,6.01,-27.41,1785094387963.281
0.433,-0.366,-0.667,34.58,5.77,-26.92,1785094387973.776
0.426,-0.345,-0.649,39.64,5.31,-27.31,1785094387984.137
0.426,-0.337,-0.629,43.61,5.31,-28.35,1785094387997.3938
0.425,-0.331,-0.613,48.22,5.19,-29.42,1785094388003.2903
0.418,-0.334,-0.6,53.29,4.18,-30.49,1785094388013.598
0.415,-0.339,-0.59,58.6,3.11,-31.95,1785094388024.295
0.411,-0.35,-0.585,64.67,2.11,-33.57,1785094388037.355
0.391,-0.366,-0.587,70.31,1.04,-35.22,1785094388043.311
0.377,-0.371,-0.584,75.2,0.37,-36.93,1785094388053.578
0.377,-0.355,-0.579,79.23,0.03,-38.76,1785094388064.1602
0.371,-0.333,-0.553,82.16,-1.19,-39.22,1785094388077.4883
0.366,-0.308,-0.536,84.05,-3.14,-39.8,1785094388083.279
0.37,-0.275,-0.527,84.2,-5.1,-39.86,1785094388093.585
0.371,-0.25,-0.532,82.43,-7.35,-39.61,1785094388104.128
0.36,-0.237,-0.521,77.88,-9.92,-39.43,1785094388117.387
0.343,-0.229,-0.525,69.55,-13.0,-38.94,1785094388123.3262
0.346,-0.227,-0.533,58.29,-15.81,-37.48,1785094388133.7732
0.352,-0.247,-0.553,46.6,-18.77,-36.01,1785094388147.012
0.349,-0.271,-0.587,34.58,-20.57,-33.78,1785094388152.954
0.352,-0.295,-0.577,23.87,-21.85,-31.86,1785094388163.522
0.368,-0.323,-0.587,19.26,-23.32,-31.25,1785094388174.316
0.377,-0.339,-0.572,17.94,-24.32,-29.73,1785094388187.36
0.374,-0.358,-0.556,20.08,-26.03,-27.1,1785094388193.334
0.367,-0.371,-0.539,22.58,-28.5,-23.99,1785094388203.817
0.35,-0.366,-0.535,24.78,-31.5,-21.09,1785094388217.05
0.329,-0.37,-0.54,27.74,-34.06,-17.82,1785094388222.986
0.32,-0.386,-0.558,30.46,-36.01,-15.23,1785094388233.523
0.32,-0.393,-0.577,32.14,-37.11,-13.64,1785094388244.168
0.33,-0.391,-0.593,34.09,-37.26,-12.18,1785094388257.565
0.345,-0.384,-0.601,36.74,-36.56,-10.86,1785094388263.348
0.352,-0.375,-0.611,38.85,-35.52,-8.67,1785094388273.8901
0.351,-0.377,-0.626,39.43,-34.97,-5.83,1785094388287.0269
0.322,-0.39,-0.605,38.03,-35.07,-2.93,1785094388293.045
0.286,-0.415,-0.563,35.19,-37.63,0.79,1785094388303.211
0.286,-0.415,-0.563,31.13,-42.05,4.24,1785094388313.818
0.278,-0.453,-0.56,26.28,-45.59,6.84,1785094388327.111
0.261,-0.483,-0.578,22.98,-47.15,9.95,1785094388332.9978
0.247,-0.502,-0.62,22.19,-45.75,12.45,1785094388343.084
0.253,-0.509,-0.668,24.26,-42.3,13.43,1785094388353.7632
0.271,-0.499,-0.671,24.26,-42.3,13.43,1785094388367.34
0.306,-0.467,-0.634,28.87,-41.23,14.37,1785094388373.019
0.329,-0.446,-0.618,33.81,-43.7,15.44,1785094388383.7222
0.326,-0.439,-0.626,35.55,-46.36,17.0,1785094388394.3198
0.296,-0.457,-0.623,33.2,-48.52,19.68,1785094388407.65
0.24,-0.509,-0.625,28.53,-51.3,23.13,1785094388413.449
0.179,-0.581,-0.63,22.8,-53.59,26.18,1785094388424.211
0.148,-0.644,-0.647,18.77,-55.73,28.6,1785094388437.221
0.192,-0.675,-0.702,18.74,-57.16,29.69,1785094388443.215
0.246,-0.652,-0.74,21.36,-56.31,30.03,1785094388453.674
0.266,-0.615,-0.741,26.89,-54.6,31.71,1785094388466.9858
0.256,-0.61,-0.719,33.3,-53.9,34.15,1785094388472.867
0.224,-0.631,-0.685,38.15,-54.17,35.52,1785094388483.413
0.179,-0.666,-0.64,41.26,-55.39,37.08,1785094388494.093
0.148,-0.722,-0.615,44.16,-58.17,39.89,1785094388507.469
0.145,-0.766,-0.634,46.3,-61.95,42.57,1785094388513.252
0.152,-0.774,-0.679,46.33,-64.67,44.5,1785094388523.879
0.143,-0.756,-0.722,43.92,-66.84,47.49,1785094388536.965
0.131,-0.751,-0.767,40.25,-69.03,50.54,1785094388542.989
0.114,-0.742,-0.806,36.35,-69.77,51.85,1785094388553.243
0.099,-0.734,-0.833,35.55,-67.87,52.67,1785094388564.1301
0.078,-0.732,-0.823,39.09,-63.66,53.47,1785094388577.419
0.073,-0.742,-0.762,45.66,-60.24,54.54,1785094388583.3018
0.097,-0.772,-0.706,51.36,-60.37,55.15,1785094388593.8872
0.119,-0.798,-0.674,52.4,-62.93,55.85,1785094388607.0652
0.097,-0.838,-0.665,50.36,-66.41,58.44,1785094388613.19
0.056,-0.899,-0.684,48.13,-70.35,61.92,1785094388623.5579
0.041,-0.923,-0.741,47.33,-73.61,64.3,1785094388634.136
0.072,-0.889,-0.836,50.39,-74.04,66.32,1785094388647.407
0.099,-0.845,-0.896,56.4,-71.84,67.69,1785094388653.321
0.102,-0.833,-0.89,62.04,-70.16,67.57,1785094388664.2183
0.084,-0.854,-0.854,65.55,-68.94,66.99,1785094388677.1082
0.066,-0.878,-0.785,66.93,-67.14,67.69,1785094388683.156
0.08,-0.911,-0.74,67.32,-66.84,67.78,1785094388693.597
0.082,-0.958,-0.734,66.1,-69.25,66.74,1785094388704.2197
0.067,-1.019,-0.758,63.26,-72.7,66.29,1785094388717.4312
0.039,-1.04,-0.792,59.82,-74.25,64.88,1785094388723.449
0.014,-1.043,-0.816,57.34,-75.96,63.91,1785094388733.875
-0.008,-1.048,-0.825,55.45,-77.43,62.87,1785094388747.1401
-0.031,-1.06,-0.807,55.33,-77.94,60.64,1785094388753.0408
-0.046,-1.074,-0.8,58.63,-77.82,57.47,1785094388763.663
-0.05,-1.058,-0.786,63.02,-75.78,54.45,1785094388774.2578
-0.066,-1.034,-0.762,65.31,-73.09,52.43,1785094388787.482
-0.081,-1.017,-0.736,63.2,-70.68,51.15,1785094388793.413
-0.099,-1.016,-0.704,56.98,-69.52,49.47,1785094388803.947
-0.108,-1.026,-0.671,49.1,-68.42,46.69,1785094388817.191
-0.124,-1.014,-0.654,39.86,-67.93,43.7,1785094388823.1099
-0.136,-0.99,-0.658,29.24,-68.0,42.88,1785094388833.708
-0.15,-0.988,-0.67,20.66,-67.45,41.9,1785094388844.3188
-0.157,-0.99,-0.696,15.87,-66.23,39.37,1785094388857.576
-0.154,-0.963,-0.716,14.13,-63.66,36.38,1785094388863.4849
-0.154,-0.928,-0.69,13.31,-61.71,34.67,1785094388874.068
-0.163,-0.918,-0.657,12.21,-61.16,33.23,1785094388887.237
-0.172,-0.913,-0.647,10.16,-60.24,31.83,1785094388893.2732
-0.179,-0.898,-0.627,7.2,-58.75,31.71,1785094388903.6711
-0.194,-0.895,-0.604,5.86,-57.92,31.77,1785094388914.195
-0.218,-0.905,-0.581,4.82,-57.92,31.25,1785094388927.433
-0.245,-0.91,-0.561,3.6,-58.17,30.67,1785094388933.4841
-0.266,-0.907,-0.542,2.99,-58.57,30.55,1785094388943.703
-0.279,-0.892,-0.551,3.23,-58.6,30.7,1785094388954.2139
-0.293,-0.866,-0.573,2.96,-57.53,31.13,1785094388967.4548
-0.298,-0.839,-0.573,1.77,-56.31,31.8,1785094388973.397
-0.305,-0.83,-0.563,0.61,-55.24,32.14,1785094388983.696
-0.325,-0.831,-0.538,-1.34,-54.17,31.77,1785094388994.288
-0.346,-0.832,-0.485,-4.06,-54.02,31.71,1785094389007.573
-0.346,-0.844,-0.44,-4.64,-55.42,31.59,1785094389013.3318
-0.358,-0.848,-0.418,-3.33,-56.55,31.34,1785094389023.7441
-0.371,-0.834,-0.434,-1.37,-57.5,32.44,1785094389034.1912
-0.369,-0.801,-0.485,0.15,-57.8,33.94,1785094389047.445
-0.364,-0.779,-0.527,-0.15,-56.76,34.18,1785094389053.3162
-0.382,-0.765,-0.534,-4.39,-55.6,33.05,1785094389063.693
-0.4,-0.756,-0.506,-10.5,-55.12,33.66,1785094389074.4011
-0.411,-0.762,-0.465,-14.04,-55.18,34.91,1785094389087.512
-0.425,-0.764,-0.416,-15.5,-56.0,35.95,1785094389093.603
-0.438,-0.755,-0.374,-15.41,-57.62,37.75,1785094389103.9849
-0.452,-0.743,-0.357,-13.4,-59.72,40.16,1785094389117.228
-0.461,-0.721,-0.368,-10.32,-61.68,42.88,1785094389123.162
-0.466,-0.695,-0.398,-7.48,-63.23,45.75,1785094389133.599
-0.471,-0.674,-0.441,-5.22,-63.6,48.65,1785094389144.206
-0.481,-0.664,-0.476,-5.01,-63.11,52.13,1785094389157.5679
-0.495,-0.665,-0.478,-7.17,-62.29,55.36,1785094389163.299
-0.514,-0.683,-0.456,-10.28,-63.05,58.5,1785094389173.7668
-0.535,-0.703,-0.409,-12.85,-63.81,60.79,1785094389186.924
-0.554,-0.755,-0.369,-11.99,-65.92,65.46,1785094389192.8918
-0.537,-0.788,-0.356,-9.77,-69.46,67.66,1785094389203.275
-0.554,-0.718,-0.348,-3.3,-63.26,61.89,1785094389213.888
-0.577,-0.698,-0.4,5.52,-57.68,61.56,1785094389227.188
-0.6,-0.687,-0.442,6.47,-58.26,63.51,1785094389233.032
-0.633,-0.652,-0.464,3.94,-58.35,64.97,1785094389243.319
-0.649,-0.633,-0.473,1.04,-58.6,70.04,1785094389253.8472
-0.657,-0.634,-0.474,-3.45,-58.32,75.29,1785094389267.1602
-0.673,-0.674,-0.462,-8.76,-55.73,76.57,1785094389273.026
-0.697,-0.743,-0.424,-13.76,-52.92,74.1,1785094389283.515
