ax,ay,az,gx,gy,gz,timestamp_ms
-0.389,-0.798,0.122,28.96,5.62,43.86,1785094541792.6687
-0.399,-0.767,0.128,24.72,8.15,45.93,1785094541793.027
-0.41,-0.753,0.151,19.17,9.95,47.82,1785094541793.3909
-0.424,-0.768,0.17,14.25,10.86,49.38,1785094541793.7588
-0.44,-0.787,0.172,9.61,11.78,50.14,1785094541794.1538
-0.454,-0.786,0.151,4.39,12.91,51.85,1785094541794.531
-0.462,-0.78,0.135,-0.64,14.53,54.45,1785094541794.913
-0.482,-0.799,0.145,-3.66,15.96,55.82,1785094541795.362
-0.504,-0.816,0.148,-5.19,16.94,56.4,1785094541795.802
-0.52,-0.808,0.144,-5.58,18.25,57.68,1785094541796.164
-0.533,-0.789,0.131,-5.68,20.02,59.85,1785094541796.4932
-0.546,-0.761,0.113,-6.87,21.94,62.32,1785094541796.8098
-0.559,-0.725,0.101,-10.5,23.59,65.71,1785094541797.1157
-0.573,-0.698,0.103,-16.42,25.06,69.28,1785094541797.426
-0.59,-0.701,0.116,-22.77,25.91,71.47,1785094541797.74
-0.61,-0.723,0.141,-27.92,26.22,72.02,1785094541798.042
-0.627,-0.756,0.155,-30.37,26.58,72.54,1785094541798.345
-0.642,-0.775,0.157,-30.03,27.68,73.95,1785094541798.6482
-0.657,-0.778,0.148,-27.65,29.15,76.39,1785094541798.95
-0.676,-0.767,0.128,-25.33,30.76,79.04,1785094541799.26
-0.693,-0.74,0.103,-25.39,31.8,81.45,1785094541799.5642
-0.715,-0.709,0.078,-28.57,32.65,83.19,1785094541799.8662
-0.737,-0.689,0.065,-34.61,33.39,83.93,1785094541800.171
-0.762,-0.687,0.064,-41.87,33.54,83.9,1785094541800.469
-0.773,-0.704,0.074,-49.38,32.93,84.44,1785094541800.7861
-0.788,-0.722,0.092,-55.42,32.17,84.26,1785094541801.0938
-0.802,-0.745,0.107,-58.93,30.79,83.68,1785094541801.394
-0.812,-0.761,0.107,-60.18,29.45,82.98,1785094541801.7102
-0.823,-0.757,0.094,-60.7,28.14,82.28,1785094541802.021
-0.837,-0.742,0.076,-62.2,26.98,81.64,1785094541802.3271
-0.847,-0.715,0.05,-66.59,25.27,81.06,1785094541802.6272
-0.858,-0.678,0.031,-74.13,22.77,80.05,1785094541802.939
-0.86,-0.658,0.013,-83.29,19.99,79.1,1785094541803.263
-0.864,-0.626,0.0,-94.09,17.55,75.75,1785094541803.602
-0.88,-0.6,-0.004,-105.78,14.04,72.88,1785094541803.901
-0.873,-0.6,-0.004,-115.45,10.19,70.44,1785094541804.2249
-0.883,-0.621,-0.01,-121.13,7.02,66.07,1785094541804.495
-0.885,-0.65,-0.011,-123.2,3.54,61.8,1785094541804.7622
-0.876,-0.674,-0.016,-121.37,0.89,58.08,1785094541805.024
-0.861,-0.676,-0.029,-115.7,-0.37,53.99,1785094541805.2961
-0.867,-0.673,-0.05,-108.8,-2.99,51.12,1785094541805.5688
-0.851,-0.668,-0.055,-99.52,-2.69,47.73,1785094541805.831
-0.884,-0.625,-0.071,-91.07,-3.23,43.7,1785094541806.096
-0.871,-0.605,-0.067,-84.35,-6.93,41.6,1785094541806.365
-0.854,-0.602,-0.052,-75.26,-6.59,37.17,1785094541806.632
-0.849,-0.601,-0.045,-63.69,-4.85,33.85,1785094541806.89
-0.852,-0.589,-0.044,-52.13,-4.97,31.13,1785094541807.153
-0.855,-0.566,-0.047,-43.49,-6.07,28.53,1785094541807.4492
-0.851,-0.546,-0.058,-38.39,-6.5,26.25,1785094541807.7139
-0.851,-0.532,-0.073,-36.99,-6.13,24.32,1785094541807.9739
-0.851,-0.522,-0.084,-38.64,-5.71,22.92,1785094541808.243
-0.84,-0.52,-0.103,-42.51,-5.49,22.31,1785094541808.51
-0.84,-0.505,-0.115,-48.62,-5.07,21.06,1785094541808.7769
-0.86,-0.465,-0.109,-55.85,-4.46,19.44,1785094541809.048
-0.875,-0.464,-0.114,-62.65,-5.92,21.52,1785094541809.314
-0.844,-0.479,-0.111,-68.09,-8.45,23.35,1785094541809.578
-0.837,-0.482,-0.119,-68.45,-7.87,21.52,1785094541809.84
-0.848,-0.501,-0.143,-65.74,-7.2,21.24,1785094541810.106
-0.853,-0.511,-0.163,-64.3,-8.3,22.22,1785094541810.375
-0.835,-0.499,-0.175,-64.49,-9.0,21.58,1785094541810.6309
-0.845,-0.475,-0.165,-63.45,-6.9,19.17,1785094541810.9
-0.849,-0.497,-0.17,-60.58,-6.16,19.56,1785094541811.167
-0.855,-0.485,-0.16,-60.27,-6.96,19.75,1785094541811.433
-0.856,-0.467,-0.157,-59.27,-8.03,21.42,1785094541811.6902
-0.853,-0.461,-0.164,-57.47,-8.15,23.19,1785094541811.965
-0.863,-0.445,-0.171,-56.61,-7.63,23.99,1785094541812.223
-0.864,-0.446,-0.186,-56.73,-7.93,24.99,1785094541812.459
-0.856,-0.443,-0.187,-58.75,-8.09,23.77,1785094541812.726
-0.859,-0.45,-0.183,-59.27,-6.32,20.84,1785094541812.9722
-0.866,-0.47,-0.185,-58.32,-5.28,18.37,1785094541813.215
-0.875,-0.477,-0.18,-56.09,-4.7,16.14,1785094541813.4512
-0.883,-0.49,-0.177,-50.75,-4.85,15.35,1785094541813.699
-0.884,-0.498,-0.184,-43.7,-5.37,15.53,1785094541813.945
-0.886,-0.481,-0.19,-35.95,-5.16,15.53,1785094541814.188
-0.884,-0.463,-0.197,-27.92,-4.27,15.11,1785094541814.44
-0.89,-0.447,-0.204,-21.58,-3.33,13.67,1785094541814.6948
-0.9,-0.433,-0.203,-17.94,-2.9,11.9,1785094541814.974
-0.907,-0.428,-0.202,-16.21,-2.96,10.32,1785094541815.24
-0.908,-0.431,-0.203,-15.32,-3.05,8.55,1785094541815.5142
-0.903,-0.437,-0.204,-14.92,-3.51,6.71,1785094541815.788
-0.896,-0.432,-0.203,-15.23,-3.97,5.04,1785094541816.0288
-0.89,-0.42,-0.208,-16.05,-4.03,3.42,1785094541816.288
-0.886,-0.414,-0.212,-16.94,-3.85,1.31,1785094541816.535
-0.889,-0.415,-0.217,-17.88,-3.88,-0.79,1785094541816.787
-0.891,-0.411,-0.221,-20.48,-3.91,-1.77,1785094541817.024
-0.885,-0.405,-0.224,-23.47,-4.0,-2.35,1785094541817.282
-0.877,-0.403,-0.227,-25.24,-4.06,-3.27,1785094541817.538
-0.875,-0.404,-0.234,-25.64,-3.94,-5.01,1785094541817.7861
-0.882,-0.39,-0.238,-26.15,-2.78,-6.04,1785094541818.038
-0.888,-0.387,-0.229,-27.44,-3.33,-6.38,1785094541818.323
-0.882,-0.387,-0.235,-30.82,-4.64,-7.66,1785094541818.562
-0.877,-0.391,-0.243,-33.66,-4.49,-8.3,1785094541818.8071
-0.879,-0.399,-0.232,-35.49,-4.61,-8.33,1785094541819.0479
-0.876,-0.407,-0.233,-36.68,-5.22,-9.22,1785094541819.29
-0.87,-0.404,-0.239,-38.39,-5.01,-10.47,1785094541819.5222
-0.877,-0.395,-0.237,-40.62,-4.67,-10.44,1785094541819.7607
-0.877,-0.395,-0.237,-42.82,-4.21,-9.74,1785094541819.9968
-0.883,-0.39,-0.239,-44.8,-3.69,-9.92,1785094541820.212
-0.883,-0.388,-0.237,-45.84,-3.17,-10.56,1785094541820.436
-0.879,-0.387,-0.237,-45.35,-2.2,-10.96,1785094541820.66
-0.878,-0.388,-0.239,-43.37,-1.34,-10.77,1785094541820.8818
-0.881,-0.384,-0.236,-43.37,-1.34,-10.77,1785094541821.0981
-0.884,-0.374,-0.24,-40.77,-0.79,-10.41,1785094541821.3179
-0.887,-0.374,-0.245,-37.81,-0.15,-10.16,1785094541821.5417
-0.89,-0.375,-0.24,-35.77,0.21,-10.22,1785094541821.7568
-0.89,-0.376,-0.227,-34.85,-0.37,-10.38,1785094541821.9758
-0.882,-0.377,-0.228,-34.24,-0.89,-10.38,1785094541822.198
-0.879,-0.376,-0.237,-34.18,-0.67,-9.89,1785094541822.4211
-0.879,-0.378,-0.246,-34.58,-0.09,-8.97,1785094541822.6362
-0.884,-0.371,-0.252,-35.13,0.55,-8.58,1785094541822.8582
-0.889,-0.358,-0.245,-35.07,0.92,-8.0,1785094541823.097
-0.89,-0.347,-0.243,-34.18,0.76,-7.2,1785094541823.313
-0.89,-0.332,-0.246,-33.72,0.49,-6.74,1785094541823.533
-0.89,-0.332,-0.244,-32.99,0.4,-6.26,1785094541823.759
-0.89,-0.347,-0.245,-31.5,-0.03,-6.68,1785094541823.979
-0.892,-0.353,-0.245,-30.46,-0.34,-8.15,1785094541824.195
-0.891,-0.357,-0.245,-29.08,-0.4,-8.3,1785094541824.419
-0.897,-0.357,-0.235,-26.61,-0.49,-8.12,1785094541824.6409
-0.898,-0.361,-0.239,-23.44,-0.98,-7.63,1785094541824.856
-0.907,-0.354,-0.255,-21.12,-0.73,-8.12,1785094541825.081
-0.91,-0.353,-0.266,-20.14,-1.25,-7.84,1785094541825.309
-0.914,-0.36,-0.269,-19.44,-1.31,-7.42,1785094541825.533
-0.915,-0.363,-0.262,-18.49,-1.1,-6.78,1785094541825.748
-0.913,-0.357,-0.26,-17.3,-1.56,-5.92,1785094541825.9932
-0.901,-0.351,-0.254,-16.14,-2.26,-5.19,1785094541826.2039
-0.891,-0.346,-0.254,-15.56,-2.75,-5.16,1785094541826.406
-0.888,-0.343,-0.258,-15.32,-3.23,-5.16,1785094541826.6199
-0.89,-0.347,-0.261,-15.53,-3.39,-4.15,1785094541826.835
-0.883,-0.337,-0.275,-17.85,-4.03,-3.75,1785094541827.041
-0.876,-0.315,-0.281,-22.34,-3.91,-3.27,1785094541827.251
-0.875,-0.316,-0.274,-27.47,-3.54,-2.29,1785094541827.46
-0.874,-0.332,-0.27,-32.38,-3.72,-2.66,1785094541827.6702
-0.873,-0.349,-0.282,-35.89,-4.03,-3.63,1785094541827.876
-0.886,-0.339,-0.279,-38.24,-3.94,-3.36,1785094541828.0872
-0.887,-0.316,-0.269,-39.89,-4.09,-1.34,1785094541828.2969
-0.869,-0.314,-0.273,-40.1,-4.21,-0.67,1785094541828.502
-0.872,-0.312,-0.274,-39.55,-3.69,-1.92,1785094541828.717
-0.875,-0.309,-0.261,-39.98,-3.69,-1.34,1785094541828.9258
-0.865,-0.31,-0.256,-39.89,-4.03,0.0,1785094541829.137
-0.858,-0.316,-0.257,-38.33,-3.11,0.09,1785094541829.345
-0.859,-0.34,-0.266,-35.49,-2.5,-0.37,1785094541829.558
-0.857,-0.355,-0.276,-32.78,-2.38,-1.04,1785094541829.77
-0.858,-0.352,-0.278,-29.48,-1.92,-1.28,1785094541829.973
-0.858,-0.349,-0.276,-24.32,-0.79,-1.34,1785094541830.1929
-0.873,-0.329,-0.27,-19.62,-0.67,-0.98,1785094541830.402
-0.874,-0.32,-0.269,-16.63,-1.62,-0.06,1785094541830.606
-0.868,-0.32,-0.276,-15.23,-2.2,-0.58,1785094541830.8179
-0.867,-0.311,-0.274,-14.62,-2.14,-0.89,1785094541831.028
-0.875,-0.305,-0.274,-13.67,-2.08,-0.76,1785094541831.236
-0.855,-0.315,-0.286,-12.63,-1.07,-1.25,1785094541831.444
-0.87,-0.296,-0.289,-13.7,-1.01,-3.05,1785094541831.6538
-0.88,-0.313,-0.287,-13.73,-0.85,-2.38,1785094541831.859
-0.88,-0.344,-0.295,-12.88,-0.58,-2.56,1785094541832.063
-0.884,-0.326,-0.295,-12.12,-0.95,-2.93,1785094541832.263
-0.88,-0.319,-0.302,-9.16,-1.07,-1.89,1785094541832.4622
-0.88,-0.318,-0.295,-7.75,-1.28,-2.26,1785094541832.653
-0.873,-0.327,-0.287,-7.02,-2.08,-3.23,1785094541832.8518
-0.876,-0.336,-0.283,-4.39,-2.47,-3.88,1785094541833.055
-0.878,-0.33,-0.274,-1.8,-2.29,-3.72,1785094541833.255
-0.872,-0.328,-0.276,-0.31,-2.26,-3.88,1785094541833.451
-0.868,-0.333,-0.275,-0.18,-2.2,-3.97,1785094541833.6482
-0.868,-0.335,-0.283,-0.67,-1.89,-4.24,1785094541833.845
-0.872,-0.338,-0.293,-1.46,-1.19,-4.3,1785094541834.037
-0.873,-0.339,-0.304,-1.77,-0.43,-4.64,1785094541834.2312
-0.879,-0.337,-0.304,-1.68,0.12,-4.97,1785094541834.429
-0.876,-0.325,-0.303,-1.59,-0.15,-5.04,1785094541834.6182
-0.876,-0.318,-0.291,-0.98,0.0,-5.19,1785094541834.833
-0.877,-0.315,-0.291,-1.59,-0.46,-5.43,1785094541835.0278
-0.872,-0.316,-0.288,-4.24,-0.98,-4.76,1785094541835.274
-0.873,-0.323,-0.286,-6.23,-1.19,-4.0,1785094541835.4858
-0.871,-0.332,-0.289,-7.35,-1.37,-2.5,1785094541835.871
-0.871,-0.335,-0.295,-7.84,-1.68,-1.71,1785094541836.067
-0.774,-0.682,-0.347,9.34,0.79,-1.25,1785094541836.449
-0.849,-0.67,-0.333,12.97,0.61,-4.21,1785094541836.641
-0.961,-0.664,-0.345,15.11,-0.43,-8.58,1785094541836.8362
-1.061,-0.689,-0.332,16.48,-2.08,-13.61,1785094541849.782
-1.13,-0.667,-0.295,17.58,-3.54,-19.84,1785094541855.332
-1.096,-0.647,-0.284,23.38,-5.8,-24.69,1785094541865.95
-1.023,-0.632,-0.329,32.47,-7.2,-31.04,1785094541876.537
-1.019,-0.616,-0.374,37.9,-9.06,-38.48,1785094541889.7998
-1.041,-0.608,-0.392,37.26,-11.87,-44.68,1785094541895.387
-1.047,-0.607,-0.37,33.02,-14.89,-49.04,1785094541906.173
-1.063,-0.617,-0.332,28.41,-19.29,-51.58,1785094541916.789
-1.093,-0.626,-0.318,23.04,-25.7,-52.22,1785094541930.047
-1.111,-0.618,-0.335,16.11,-32.26,-51.12,1785094541935.7332
-1.112,-0.611,-0.366,7.23,-38.33,-48.83,1785094541946.364
-1.097,-0.572,-0.354,-4.85,-43.18,-46.36,1785094541959.692
-1.045,-0.543,-0.392,-15.9,-48.52,-44.62,1785094541965.439
-0.992,-0.541,-0.432,-27.04,-51.58,-42.73,1785094541976.095
-0.982,-0.565,-0.445,-35.92,-53.83,-40.41,1785094541986.709
-0.984,-0.593,-0.436,-40.25,-54.17,-36.32,1785094541999.9841
-0.979,-0.601,-0.404,-45.63,-56.46,-28.26,1785094542005.842
-0.938,-0.617,-0.357,-53.8,-61.04,-16.27,1785094542016.642
-0.846,-0.613,-0.333,-65.25,-66.59,-1.8,1785094542029.6462
-0.746,-0.593,-0.353,-77.79,-73.7,13.18,1785094542035.678
-0.711,-0.61,-0.393,-88.87,-80.69,25.18,1785094542046.049
-0.721,-0.662,-0.51,-96.99,-86.52,32.07,1785094542056.942
-0.708,-0.727,-0.656,-99.58,-87.53,35.43,1785094542070.119
-0.666,-0.76,-0.699,-93.42,-83.96,37.9,1785094542076.237
-0.617,-0.745,-0.624,-81.82,-80.05,42.05,1785094542086.54
-0.574,-0.698,-0.487,-70.5,-78.28,49.87,1785094542099.814
-0.53,-0.688,-0.338,-61.4,-79.41,60.34,1785094542105.336
-0.486,-0.667,-0.246,-56.4,-84.48,68.97,1785094542116.291
-0.437,-0.576,-0.296,-56.83,-91.71,76.3,1785094542126.959
-0.388,-0.5,-0.411,-57.22,-95.98,81.03,1785094542140.7737
-0.374,-0.486,-0.523,-56.55,-98.24,80.87,1785094542146.1592
-0.371,-0.486,-0.641,-58.44,-99.37,76.82,1785094542156.742
-0.357,-0.466,-0.678,-61.62,-97.26,73.55,1785094542169.864
-0.359,-0.468,-0.64,-62.26,-95.83,71.54,1785094542175.9639
-0.375,-0.479,-0.616,-63.08,-96.32,69.73,1785094542186.314
-0.375,-0.479,-0.616,-68.42,-98.15,70.86,1785094542197.033
-0.368,-0.464,-0.623,-74.77,-99.34,72.79,1785094542210.346
-0.359,-0.471,-0.658,-80.57,-98.27,71.9,1785094542216.396
-0.365,-0.515,-0.669,-83.62,-95.89,68.51,1785094542226.736
-0.376,-0.573,-0.616,-81.03,-93.6,63.88,1785094542240.095
-0.393,-0.616,-0.561,-81.03,-93.6,63.88,1785094542245.879
-0.395,-0.601,-0.55,-74.22,-91.53,58.63,1785094542256.554
-0.371,-0.52,-0.61,-66.68,-89.82,53.29,1785094542267.0232
-0.352,-0.431,-0.694,-63.84,-88.81,47.82,1785094542280.278
-0.384,-0.411,-0.779,-65.83,-87.59,40.71,1785094542286.228
-0.471,-0.446,-0.801,-71.57,-85.39,33.63,1785094542296.747
-0.548,-0.496,-0.776,-78.52,-83.8,29.63,1785094542310.09
-0.587,-0.536,-0.745,-83.29,-82.34,28.26,1785094542316.146
-0.612,-0.566,-0.716,-82.19,-80.23,27.34,1785094542326.4739
-0.622,-0.555,-0.665,-76.3,-77.36,26.76,1785094542339.8809
-0.614,-0.531,-0.611,-67.69,-74.98,26.67,1785094542345.6353
-0.605,-0.503,-0.598,-61.07,-73.31,25.21,1785094542356.193
-0.606,-0.457,-0.612,-59.72,-72.79,23.01,1785094542366.762
-0.619,-0.403,-0.653,-62.96,-73.92,20.42,1785094542380.0508
-0.661,-0.33,-0.686,-74.01,-75.62,17.76,1785094542385.958
-0.708,-0.287,-0.708,-91.68,-77.12,14.53,1785094542396.508
-0.752,-0.28,-0.707,-111.58,-78.37,10.35,1785094542409.884
-0.788,-0.284,-0.714,-130.59,-79.38,6.23,1785094542415.991
-0.804,-0.266,-0.699,-145.91,-78.98,3.78,1785094542426.298
-0.801,-0.27,-0.647,-153.78,-77.33,3.17,1785094542436.9421
-0.779,-0.297,-0.601,-156.19,-74.22,1.83,1785094542450.16
-0.77,-0.323,-0.564,-156.38,-70.22,1.65,1785094542456.379
-0.772,-0.334,-0.547,-154.79,-65.68,1.77,1785094542466.6062
-0.784,-0.334,-0.533,-150.52,-61.56,0.12,1785094542479.879
-0.808,-0.339,-0.518,-144.29,-57.95,-3.39,1785094542485.785
-0.826,-0.333,-0.505,-138.22,-54.32,-7.54,1785094542496.382
-0.834,-0.325,-0.501,-131.96,-51.18,-12.21,1785094542507.189
-0.842,-0.305,-0.516,-126.29,-48.22,-17.52,1785094542520.338
-0.855,-0.28,-0.535,-122.35,-44.71,-22.8,1785094542526.33
-0.87,-0.269,-0.555,-118.84,-39.83,-28.17,1785094542537.068
-0.885,-0.253,-0.537,-113.86,-33.72,-32.9,1785094542550.3008
-0.896,-0.252,-0.488,-107.52,-27.44,-35.28,1785094542556.4722
-0.902,-0.267,-0.445,-100.56,-21.18,-36.96,1785094542567.0012
-0.916,-0.294,-0.413,-90.52,-15.66,-37.45,1785094542580.262
-0.933,-0.318,-0.407,-77.67,-11.05,-37.51,1785094542586.136
-0.948,-0.318,-0.419,-65.19,-6.81,-37.32,1785094542596.62
-0.956,-0.298,-0.439,-56.12,-2.35,-36.96,1785094542609.938
-0.943,-0.288,-0.458,-52.1,0.43,-37.35,1785094542616.065
-0.928,-0.27,-0.49,-53.71,1.65,-38.24,1785094542626.0679
-0.932,-0.225,-0.533,-62.23,2.17,-37.54,1785094542636.623
-0.94,-0.198,-0.568,-75.59,3.42,-36.65,1785094542649.834
-0.953,-0.212,-0.568,-89.51,4.82,-37.2,1785094542656.023
-0.96,-0.22,-0.565,-104.62,6.78,-38.67,1785094542666.139
-0.935,-0.209,-0.552,-123.05,10.16,-40.38,1785094542676.8708
-0.922,-0.214,-0.553,-143.16,12.82,-40.53,1785094542690.1682
-0.928,-0.19,-0.55,-164.28,15.87,-39.22,1785094542696.216
-0.925,-0.212,-0.561,-180.27,19.1,-38.33,1785094542706.892
-0.929,-0.241,-0.573,-189.64,21.39,-39.0,1785094542720.09
-0.927,-0.26,-0.587,-193.82,22.58,-39.86,1785094542727.5269
-0.905,-0.265,-0.607,-191.93,27.86,-41.72,1785094542736.8489
-0.939,-0.268,-0.6,-186.86,32.75,-42.97,1785094542750.0852
-0.945,-0.303,-0.583,-180.43,34.55,-42.05,1785094542756.168
-0.978,-0.294,-0.564,-173.83,38.24,-42.88,1785094542766.767
-0.993,-0.298,-0.584,-169.32,39.12,-40.44,1785094542780.02
-0.981,-0.268,-0.614,-168.31,40.07,-38.06,1785094542786.249
-0.953,-0.247,-0.648,-167.12,41.63,-34.39,1785094542796.7842
-0.919,-0.237,-0.678,-164.59,43.31,-30.73,1785094542810.175
-0.92,-0.189,-0.677,-162.51,47.52,-27.8,1785094542816.139
-0.929,-0.192,-0.658,-159.09,53.1,-24.75,1785094542826.714
-0.933,-0.229,-0.659,-153.54,57.83,-25.57,1785094542840.012
-0.934,-0.249,-0.655,-145.3,61.56,-28.02,1785094542845.929
-0.926,-0.259,-0.656,-132.85,64.3,-29.45,1785094542856.698
-0.916,-0.256,-0.66,-117.59,66.99,-30.12,1785094542869.886
-0.919,-0.231,-0.687,-103.55,69.64,-31.1,1785094542876.147
-0.933,-0.177,-0.722,-95.86,71.78,-30.7,1785094542886.531
-0.941,-0.142,-0.738,-94.33,74.8,-28.26,1785094542899.778
-0.961,-0.098,-0.744,-99.46,78.49,-26.46,1785094542905.71
-0.967,-0.046,-0.742,-112.06,80.02,-23.13,1785094542916.332
-0.94,-0.07,-0.734,-122.59,82.0,-21.82,1785094542927.0588
-0.927,-0.11,-0.712,-123.94,84.99,-22.61,1785094542940.596
-0.921,-0.146,-0.701,-118.14,87.86,-22.37,1785094542945.857
-0.915,-0.173,-0.687,-109.35,89.33,-21.0,1785094542957.049
-0.894,-0.173,-0.673,-97.48,89.18,-20.57,1785094542970.3171
-0.892,-0.153,-0.688,-82.34,89.24,-21.39,1785094542976.4568
-0.883,-0.139,-0.728,-68.24,89.42,-21.06,1785094542986.759
-0.875,-0.12,-0.766,-57.37,90.52,-20.26,1785094543000.046
-0.846,-0.077,-0.755,-51.82,94.76,-19.35,1785094543005.913
-0.853,-0.051,-0.757,-51.0,99.64,-19.07,1785094543016.4502
-0.844,-0.076,-0.763,-52.92,100.22,-15.84,1785094543029.723
-0.841,-0.074,-0.744,-51.79,102.24,-16.94,1785094543035.806
-0.855,-0.067,-0.752,-46.85,105.17,-18.71,1785094543046.439
-0.859,-0.068,-0.778,-44.22,104.71,-18.68,1785094543059.674
-0.848,-0.063,-0.8,-43.18,103.34,-17.43,1785094543065.578
-0.836,-0.068,-0.82,-40.01,102.66,-15.47,1785094543076.3992
-0.821,-0.082,-0.83,-34.58,102.85,-14.22,1785094543089.8152
-0.793,-0.066,-0.841,-30.27,103.52,-13.18,1785094543095.854
-0.771,-0.022,-0.828,-30.24,104.59,-11.08,1785094543106.498
-0.759,-0.003,-0.814,-31.19,104.95,-8.39,1785094543117.002
-0.749,0.029,-0.801,-33.69,104.5,-6.26,1785094543130.265
-0.732,0.04,-0.799,-36.77,103.89,-5.22,1785094543136.301
-0.719,0.022,-0.815,-39.31,103.92,-5.8,1785094543146.6748
-0.716,-0.005,-0.808,-38.82,104.25,-6.53,1785094543159.9539
-0.709,-0.046,-0.805,-33.69,103.46,-7.11,1785094543165.845
-0.686,-0.079,-0.799,-26.64,102.69,-8.12,1785094543176.407
-0.665,-0.091,-0.794,-18.4,101.99,-9.22,1785094543187.009
-0.65,-0.063,-0.816,-12.94,101.57,-9.06,1785094543200.264
-0.636,0.008,-0.83,-15.53,100.99,-7.51,1785094543206.375
-0.612,0.037,-0.844,-21.12,100.04,-6.59,1785094543216.769
-0.604,0.052,-0.85,-29.27,99.46,-7.51,1785094543230.073
-0.585,0.048,-0.829,-38.73,98.45,-8.09,1785094543236.074
-0.565,0.03,-0.798,-44.43,96.9,-9.25,1785094543246.232
-0.552,0.025,-0.766,-44.5,95.46,-10.5,1785094543256.897
-0.52,0.028,-0.776,-41.93,93.51,-11.9,1785094543270.05
-0.488,0.038,-0.802,-39.92,91.71,-13.15,1785094543276.258
-0.469,0.052,-0.827,-39.09,90.61,-13.4,1785094543286.53
-0.467,0.064,-0.828,-38.64,90.61,-13.31,1785094543299.7817
-0.469,0.063,-0.812,-39.4,88.72,-12.09,1785094543305.695
-0.439,0.059,-0.79,-40.38,87.34,-11.78,1785094543316.2551
-0.422,0.089,-0.801,-41.44,84.63,-12.09,1785094543326.946
-0.4,0.116,-0.817,-43.82,80.84,-11.02,1785094543340.4858
-0.392,0.141,-0.845,-46.88,78.13,-11.2,1785094543347.1292
-0.395,0.144,-0.86,-49.68,75.41,-10.04,1785094543356.7441
-0.376,0.125,-0.866,-54.14,73.52,-9.06,1785094543369.803
-0.358,0.12,-0.843,-59.24,72.39,-8.85,1785094543376.597
-0.33,0.098,-0.829,-60.21,70.47,-7.9,1785094543386.046
-0.318,0.105,-0.816,-57.47,69.64,-8.24,1785094543396.6138
-0.296,0.119,-0.83,-52.1,69.09,-7.72,1785094543409.8591
-0.274,0.142,-0.84,-48.13,69.12,-8.12,1785094543415.842
-0.258,0.166,-0.846,-45.87,69.58,-8.18,1785094543426.036
-0.252,0.188,-0.856,-44.04,70.19,-7.48,1785094543436.599
-0.26,0.21,-0.835,-42.42,70.53,-6.29,1785094543449.864
-0.251,0.195,-0.824,-39.64,69.46,-4.55,1785094543455.905
-0.218,0.196,-0.82,-36.59,68.64,-5.01,1785094543466.046
-0.218,0.196,-0.82,-30.55,67.35,-4.49,1785094543476.635
-0.195,0.208,-0.809,-25.45,65.13,-3.17,1785094543489.993
-0.183,0.22,-0.84,-24.63,63.72,-1.89,1785094543495.887
-0.171,0.248,-0.87,-26.89,62.62,-1.1,1785094543506.081
-0.156,0.279,-0.884,-31.71,61.74,0.4,1785094543516.588
-0.171,0.301,-0.858,-31.71,61.74,0.4,1785094543529.876
-0.184,0.276,-0.887,-39.06,59.66,2.9,1785094543535.921
-0.153,0.268,-0.882,-47.06,59.97,1.4,1785094543546.034
-0.118,0.253,-0.854,-45.11,60.03,1.68,1785094543556.745
-0.116,0.246,-0.86,-39.49,59.39,3.05,1785094543569.794
-0.114,0.249,-0.86,-34.03,58.96,5.46,1785094543575.957
-0.104,0.26,-0.842,-27.19,58.69,7.14,1785094543586.017
-0.101,0.271,-0.819,-18.83,58.81,7.69,1785094543596.6133
-0.091,0.284,-0.817,-11.2,58.5,7.48,1785094543609.8308
-0.073,0.313,-0.84,-6.13,58.41,7.32,1785094543615.9841
-0.061,0.325,-0.848,-2.99,58.38,8.03,1785094543625.8909
-0.063,0.314,-0.854,-0.64,58.32,8.97,1785094543636.311
-0.061,0.32,-0.841,-0.4,58.26,9.98,1785094543646.78
-0.047,0.306,-0.827,-0.64,57.74,10.8,1785094543660.054
-0.033,0.295,-0.815,-0.73,57.1,10.71,1785094543665.952
-0.02,0.296,-0.799,0.67,56.09,10.99,1785094543676.2358
-0.002,0.296,-0.799,3.91,54.26,11.23,1785094543686.767
0.013,0.304,-0.812,6.87,52.8,10.83,1785094543700.0552
0.016,0.314,-0.808,9.03,51.3,10.77,1785094543705.913
0.026,0.313,-0.804,10.68,50.26,10.71,1785094543716.331
0.042,0.317,-0.813,11.26,48.55,10.5,1785094543726.989
0.063,0.327,-0.834,10.19,46.69,10.59,1785094543740.2803
0.075,0.34,-0.841,8.79,45.32,11.14,1785094543746.1409
0.081,0.334,-0.838,10.22,44.89,11.51,1785094543756.628
0.083,0.334,-0.828,12.94,44.31,10.8,1785094543769.7979
0.09,0.322,-0.823,15.53,43.67,10.1,1785094543775.934
0.099,0.316,-0.814,17.64,44.04,9.22,1785094543786.179
0.108,0.306,-0.827,18.65,40.25,10.38,1785094543796.818
0.117,0.316,-0.842,15.87,38.24,10.8,1785094543810.087
0.118,0.324,-0.864,8.82,38.03,12.3,1785094543816.131
0.141,0.338,-0.878,-1.98,38.18,15.2,1785094543826.366
0.146,0.351,-0.872,-10.01,38.3,17.43,1785094543837.0151
0.138,0.325,-0.867,-13.49,36.35,18.56,1785094543850.2468
0.138,0.306,-0.834,-14.56,33.3,17.12,1785094543856.193
0.161,0.28,-0.797,-9.89,31.65,16.63,1785094543866.6182
0.182,0.279,-0.787,-2.47,30.61,15.56,1785094543879.8987
0.192,0.286,-0.802,1.8,27.22,16.94,1785094543885.782
0.204,0.255,-0.807,6.04,27.74,18.13,1785094543896.092
0.205,0.224,-0.818,12.79,28.35,16.39,1785094543906.798
0.208,0.229,-0.824,19.07,26.83,13.98,1785094543920.1702
0.212,0.254,-0.821,24.2,26.15,11.78,1785094543925.964
0.217,0.272,-0.823,27.56,25.36,10.71,1785094543936.451
0.227,0.284,-0.853,28.05,24.02,10.59,1785094543946.924
0.245,0.298,-0.884,25.82,23.38,10.99,1785094543960.345
0.25,0.281,-0.883,24.17,23.26,11.29,1785094543966.37
0.252,0.235,-0.88,25.64,23.56,10.65,1785094543976.813
0.253,0.222,-0.857,29.39,23.47,9.77,1785094543990.103
0.26,0.222,-0.842,35.92,22.1,10.22,1785094543996.202
0.277,0.243,-0.871,39.7,20.33,10.32,1785094544006.614
0.28,0.266,-0.86,38.73,19.9,11.32,1785094544017.112
0.279,0.26,-0.867,34.49,19.53,13.0,1785094544030.3108
0.288,0.264,-0.895,25.06,18.86,14.34,1785094544036.319
0.307,0.268,-0.926,14.22,18.28,15.87,1785094544046.7808
0.31,0.282,-0.946,3.63,18.52,16.91,1785094544059.8762
0.308,0.28,-0.942,-4.88,18.98,17.82,1785094544066.143
0.308,0.25,-0.924,-9.49,19.47,16.75,1785094544076.2273
0.304,0.198,-0.891,-7.23,19.87,14.28,1785094544086.7478
0.307,0.157,-0.875,-0.82,19.93,11.9,1785094544100.018
0.304,0.16,-0.854,4.97,19.78,10.56,1785094544105.887
0.303,0.175,-0.856,9.25,19.35,11.23,1785094544116.1821
0.3,0.192,-0.876,9.98,19.35,12.85,1785094544126.792
0.305,0.212,-0.898,6.65,18.89,14.22,1785094544140.234
0.31,0.22,-0.899,3.63,18.74,15.14,1785094544145.9402
0.309,0.2,-0.88,3.2,18.01,15.41,1785094544156.2358
0.322,0.178,-0.877,3.94,16.39,15.26,1785094544166.734
0.336,0.173,-0.899,5.65,15.23,15.08,1785094544180.018
0.347,0.184,-0.924,6.35,15.59,14.92,1785094544185.843
0.351,0.196,-0.913,5.55,16.05,15.11,1785094544196.228
0.345,0.2,-0.883,5.4,15.84,14.71,1785094544206.8523
0.34,0.204,-0.855,7.2,15.78,14.65,1785094544220.053
0.333,0.199,-0.818,10.44,15.93,14.92,1785094544226.033
0.322,0.184,-0.819,13.46,15.59,15.78,1785094544236.403
0.331,0.199,-0.882,10.38,15.26,16.72,1785094544247.031
0.331,0.217,-0.893,2.44,15.63,17.82,1785094544260.3098
0.33,0.193,-0.881,-5.31,15.17,18.95,1785094544266.1719
0.343,0.17,-0.866,-13.37,14.01,18.52,1785094544276.538
0.351,0.164,-0.829,-18.31,13.18,18.4,1785094544289.963
0.348,0.158,-0.805,-18.86,12.85,17.85,1785094544296.0078
0.342,0.172,-0.793,-19.53,11.9,16.63,1785094544306.356
0.341,0.195,-0.8,-19.96,10.5,15.5,1785094544316.8809
0.341,0.205,-0.827,-21.12,9.58,13.98,1785094544330.4429
0.335,0.219,-0.833,-25.88,8.85,13.28,1785094544336.204
0.336,0.225,-0.833,-31.95,8.0,14.92,1785094544346.3208
0.343,0.224,-0.827,-37.2,7.78,16.08,1785094544356.947
0.331,0.218,-0.804,-37.54,7.51,16.57,1785094544370.145
0.324,0.209,-0.789,-32.87,6.71,17.06,1785094544376.2932
0.323,0.197,-0.768,-24.75,6.41,16.82,1785094544386.34
0.327,0.174,-0.744,-14.89,6.07,15.9,1785094544396.92
0.336,0.17,-0.75,-6.87,5.55,15.14,1785094544410.2012
0.349,0.199,-0.787,-1.22,5.1,15.63,1785094544416.099
0.356,0.23,-0.804,4.24,4.85,16.69,1785094544426.1062
0.356,0.258,-0.808,9.09,4.55,17.49,1785094544436.5173
0.36,0.297,-0.81,11.63,3.23,18.37,1785094544447.0789
0.365,0.314,-0.813,13.37,1.86,19.59,1785094544460.36
0.355,0.313,-0.821,12.73,0.98,20.11,1785094544466.2422
0.329,0.327,-0.815,8.85,-0.12,21.42,1785094544476.4568
0.304,0.328,-0.806,4.49,-1.31,23.47,1785094544486.958
0.273,0.334,-0.802,-1.16,-1.62,24.63,1785094544500.16
0.265,0.355,-0.783,-7.45,-1.8,26.43,1785094544506.0962
0.291,0.36,-0.79,-12.45,-2.75,27.83,1785094544516.203
0.317,0.359,-0.822,-18.16,-3.57,27.56,1785094544526.7898
0.324,0.367,-0.831,-23.32,-4.24,27.8,1785094544540.135
0.316,0.366,-0.844,-24.66,-4.21,29.73,1785094544545.9268
0.292,0.385,-0.823,-23.19,-4.24,32.04,1785094544556.298
0.292,0.433,-0.786,-19.44,-6.41,35.4,1785094544566.731
0.316,0.455,-0.792,-16.66,-8.91,38.85,1785094544580.021
0.322,0.455,-0.804,-20.87,-11.23,42.3,1785094544585.886
0.332,0.43,-0.843,-29.36,-14.47,47.03,1785094544596.373
0.34,0.408,-0.882,-38.85,-17.7,51.73,1785094544607.062
0.331,0.372,-0.918,-44.71,-20.2,55.7,1785094544620.2722
0.314,0.344,-0.919,-45.17,-21.79,58.41,1785094544626.541
0.313,0.341,-0.911,-41.9,-23.59,60.03,1785094544637.145
0.331,0.362,-0.908,-37.05,-24.99,62.11,1785094544649.79
0.351,0.368,-0.919,-31.46,-25.97,64.58,1785094544655.5
0.345,0.342,-0.942,-27.53,-26.8,66.41,1785094544666.145
0.323,0.312,-0.954,-25.48,-27.59,68.76,1785094544676.796
0.314,0.305,-0.976,-23.83,-28.32,72.15,1785094544690.4011
0.316,0.317,-0.991,-23.59,-28.17,75.62,1785094544698.167
0.325,0.323,-0.997,-24.78,-27.65,77.67,1785094544706.63
0.325,0.325,-1.001,-26.46,-26.55,78.62,1785094544719.8457
0.312,0.318,-0.991,-27.86,-25.24,80.23,1785094544726.044
0.307,0.297,-0.979,-28.53,-24.66,81.0,1785094544736.474
0.3,0.282,-0.967,-28.69,-24.23,80.9,1785094544749.732
0.297,0.272,-0.969,-29.3,-24.6,81.88,1785094544755.9302
0.297,0.272,-0.969,-30.03,-24.63,82.55,1785094544766.206
0.296,0.26,-0.978,-29.51,-23.62,83.16,1785094544776.843
0.283,0.26,-0.971,-29.94,-22.55,84.05,1785094544790.132
0.269,0.272,-0.959,-33.05,-22.25,85.06,1785094544796.122
0.266,0.28,-0.96,-33.05,-22.25,85.06,1785094544806.5337
0.261,0.27,-0.937,-36.41,-22.19,85.33,1785094544819.8599
0.261,0.244,-0.944,-36.16,-22.68,84.44,1785094544825.734
0.265,0.234,-0.968,-34.64,-22.58,83.99,1785094544836.235
0.262,0.24,-0.971,-33.3,-22.13,84.48,1785094544846.8489
0.256,0.245,-0.978,-33.11,-21.49,86.09,1785094544860.136
0.243,0.255,-0.969,-36.16,-20.6,88.56,1785094544866.2852
0.226,0.247,-0.938,-39.89,-19.75,91.56,1785094544876.641
0.213,0.214,-0.902,-41.14,-19.38,92.84,1785094544889.915
0.211,0.198,-0.863,-38.54,-20.23,91.22,1785094544896.0378
0.226,0.207,-0.87,-31.62,-22.25,88.47,1785094544906.2732
0.231,0.234,-0.896,-24.48,-23.16,87.07,1785094544916.969
0.219,0.278,-0.915,-22.71,-23.41,87.8,1785094544930.182
0.218,0.296,-0.94,-27.25,-24.45,90.09,1785094544936.863
0.212,0.272,-0.978,-35.28,-25.97,92.14,1785094544946.806
0.203,0.231,-0.99,-41.47,-26.25,94.64,1785094544959.79
0.201,0.208,-0.984,-44.4,-25.85,96.04,1785094544965.9363
0.201,0.201,-0.958,-44.71,-25.33,96.62,1785094544976.369
0.207,0.188,-0.944,-44.4,-25.3,95.89,1785094544987.112
0.217,0.192,-0.937,-45.5,-25.48,93.69,1785094545000.351
0.221,0.197,-0.946,-45.29,-25.79,92.68,1785094545006.1792
0.217,0.18,-0.964,-43.28,-25.88,91.86,1785094545016.749
0.216,0.172,-0.975,-41.35,-25.7,90.37,1785094545029.9412
0.207,0.164,-0.991,-40.07,-24.9,90.0,1785094545036.0142
0.189,0.166,-1.006,-40.71,-24.08,91.22,1785094545046.456
0.201,0.176,-1.034,-43.49,-23.65,94.0,1785094545057.108
0.222,0.178,-1.053,-47.43,-22.86,95.71,1785094545070.271
0.209,0.156,-1.037,-49.32,-21.73,96.32,1785094545076.259
0.197,0.121,-0.997,-47.55,-21.36,96.44,1785094545086.7532
0.208,0.1,-0.947,-42.88,-21.67,94.88,1785094545100.034
0.235,0.107,-0.916,-33.91,-22.34,93.08,1785094545106.072
0.255,0.129,-0.931,-22.28,-22.52,93.23,1785094545116.495
0.253,0.152,-0.962,-16.27,-21.85,94.61,1785094545127.1108
0.243,0.153,-0.984,-16.69,-21.91,97.02,1785094545140.4202
0.241,0.128,-0.999,-19.47,-23.26,100.41,1785094545146.3418
0.25,0.097,-0.996,-20.6,-24.35,103.89,1785094545157.058
0.26,0.072,-0.981,-18.71,-24.2,105.66,1785094545170.228
0.264,0.064,-0.952,-14.89,-23.13,105.04,1785094545176.31
0.268,0.062,-0.911,-9.4,-22.86,103.89,1785094545186.888
0.287,0.068,-0.914,-3.45,-23.77,103.21,1785094545200.14
0.308,0.082,-0.958,-0.95,-24.29,102.97,1785094545205.999
0.316,0.075,-1.007,-1.59,-23.8,104.46,1785094545216.5579
0.306,0.047,-1.038,-4.94,-22.37,107.15,1785094545229.833
0.307,0.003,-1.035,-8.94,-20.57,109.74,1785094545235.9612
0.324,-0.037,-1.007,-10.13,-18.95,109.96,1785094545246.405
0.334,-0.055,-0.974,-7.08,-17.37,107.09,1785094545257.0723
0.33,-0.04,-0.948,-1.4,-16.21,102.57,1785094545270.339
0.326,-0.004,-0.957,4.09,-15.87,98.54,1785094545277.153
0.334,0.035,-0.983,4.85,-15.05,95.98,1785094545286.4011
0.33,0.056,-1.017,-0.46,-13.67,96.04,1785094545297.0938
0.316,0.029,-1.037,-10.38,-11.96,98.7,1785094545310.377
0.321,-0.018,-0.995,-21.0,-10.9,100.53,1785094545316.239
0.352,-0.026,-0.982,-31.25,-12.54,100.92,1785094545327.017
0.359,-0.076,-0.989,-35.46,-11.38,98.64,1785094545340.3179
0.329,-0.132,-0.952,-31.92,-9.77,92.93,1785094545346.3208
0.328,-0.094,-0.953,-26.09,-9.64,87.25,1785094545356.9238
0.331,-0.085,-0.961,-20.29,-9.31,85.88,1785094545367.04
0.326,-0.086,-0.958,-19.2,-8.45,83.83,1785094545380.322
0.333,-0.094,-0.953,-22.55,-7.81,83.56,1785094545386.2021
0.349,-0.123,-0.947,-25.15,-7.48,85.12,1785094545396.533
0.363,-0.157,-0.961,-23.8,-7.05,84.29,1785094545407.1282
0.379,-0.177,-0.973,-20.05,-7.05,80.6,1785094545420.2913
0.38,-0.193,-0.967,-11.93,-6.1,73.92,1785094545426.241
0.354,-0.222,-0.961,-0.27,-4.3,65.19,1785094545436.403
0.315,-0.252,-0.949,12.63,-2.81,56.55,1785094545446.992
0.311,-0.229,-0.936,20.91,-2.41,53.1,1785094545460.2913
0.36,-0.134,-0.927,20.05,-2.26,57.16,1785094545466.1272
0.423,-0.114,-0.971,15.78,-2.78,64.88,1785094545476.432
0.439,-0.14,-1.027,7.42,-2.66,69.09,1785094545486.868
0.435,-0.183,-1.027,-0.79,-3.02,70.74,1785094545500.121
0.452,-0.216,-1.011,-2.41,-4.09,67.32,1785094545505.902
0.457,-0.193,-0.981,1.56,-3.69,60.46,1785094545516.0288
0.457,-0.164,-0.965,8.58,-1.86,53.74,1785094545526.513
0.441,-0.118,-0.965,10.99,0.82,48.31,1785094545537.089
0.421,-0.065,-0.972,6.16,3.45,47.18,1785094545550.303
0.423,-0.042,-0.985,-4.7,5.98,49.13,1785094545556.278
0.43,-0.063,-0.981,-17.61,7.63,51.33,1785094545566.3628
0.442,-0.107,-0.968,-26.61,7.9,52.16,1785094545576.9392
0.449,-0.149,-0.943,-28.05,8.21,52.25,1785094545590.2788
0.443,-0.187,-0.908,-22.13,8.76,51.18,1785094545596.301
0.437,-0.196,-0.872,-12.94,8.61,49.23,1785094545606.434
0.433,-0.178,-0.865,-3.57,7.93,47.79,1785094545616.8188
0.427,-0.147,-0.882,3.75,7.93,46.91,1785094545630.059
0.426,-0.131,-0.898,8.48,7.97,46.08,1785094545636.142
0.423,-0.126,-0.909,11.29,7.87,45.53,1785094545646.097
0.429,-0.134,-0.923,12.63,8.12,46.91,1785094545656.655
0.436,-0.117,-0.921,11.93,8.15,48.65,1785094545669.854
0.444,-0.096,-0.89,9.92,7.72,50.17,1785094545675.8982
0.453,-0.101,-0.855,8.18,7.57,50.97,1785094545685.941
0.455,-0.102,-0.832,6.99,6.99,51.12,1785094545696.3892
0.449,-0.104,-0.833,7.14,5.86,49.96,1785094545706.846
0.438,-0.12,-0.838,8.24,5.58,48.83,1785094545720.1763
0.426,-0.139,-0.823,8.39,5.58,47.98,1785094545725.9421
0.427,-0.145,-0.81,8.48,4.73,47.82,1785094545736.0032
0.424,-0.141,-0.818,8.61,3.72,48.22,1785094545746.475
0.42,-0.127,-0.831,7.63,2.81,48.43,1785094545756.9448
0.424,-0.126,-0.85,6.01,1.98,48.25,1785094545770.187
0.422,-0.138,-0.854,3.66,1.07,47.52,1785094545776.031
0.423,-0.162,-0.845,2.2,0.18,46.02,1785094545786.101
0.428,-0.175,-0.83,2.26,-0.73,43.73,1785094545796.609
0.424,-0.2,-0.824,4.97,-1.4,41.14,1785094545807.054
0.415,-0.235,-0.803,9.64,-2.29,38.24,1785094545820.3
0.421,-0.258,-0.815,14.71,-3.6,35.62,1785094545826.377
0.423,-0.234,-0.838,18.01,-4.03,34.79,1785094545836.4612
0.425,-0.201,-0.853,19.44,-3.66,34.76,1785094545847.035
0.44,-0.16,-0.868,17.09,-2.81,34.0,1785094545860.229
0.451,-0.148,-0.883,12.48,-2.01,33.39,1785094545866.156
0.448,-0.163,-0.885,7.84,-1.25,32.72,1785094545876.348
0.44,-0.207,-0.881,5.07,-0.67,31.25,1785094545886.867
0.444,-0.251,-0.869,5.34,-1.04,29.15,1785094545900.157
0.448,-0.267,-0.852,7.87,-1.8,28.38,1785094545905.886
0.449,-0.281,-0.835,12.12,-2.72,29.69,1785094545916.105
0.454,-0.306,-0.833,16.33,-3.94,30.95,1785094545926.6318
0.456,-0.326,-0.839,19.59,-5.68,31.56,1785094545939.9778
0.452,-0.331,-0.86,22.77,-7.45,31.86,1785094545945.476
0.451,-0.299,-0.886,24.63,-9.03,31.65,1785094545956.1401
0.447,-0.261,-0.901,24.93,-10.32,30.49,1785094545966.827
0.437,-0.241,-0.918,23.29,-11.11,27.53,1785094545980.072
0.425,-0.246,-0.912,19.81,-11.54,23.65,1785094545985.9478
0.416,-0.257,-0.902,17.03,-11.69,19.68,1785094545996.4854
0.405,-0.26,-0.888,16.11,-11.6,16.54,1785094546007.164
0.389,-0.263,-0.887,17.0,-11.41,14.56,1785094546020.3508
0.388,-0.269,-0.895,17.37,-10.71,13.4,1785094546026.3792
0.393,-0.295,-0.918,17.06,-9.55,12.42,1785094546036.75
0.393,-0.295,-0.918,17.55,-7.84,11.08,1785094546050.0312
0.393,-0.326,-0.913,22.0,-6.81,8.55,1785094546056.2283
0.393,-0.353,-0.902,30.61,-6.07,5.1,1785094546065.9631
0.389,-0.359,-0.901,40.31,-4.88,1.4,1785094546076.474
0.383,-0.33,-0.918,40.31,-4.88,1.4,1785094546086.965
0.376,-0.268,-0.94,44.65,-2.96,-1.31,1785094546100.1868
0.371,-0.196,-0.938,40.56,-1.65,-2.08,1785094546106.0212
0.386,-0.149,-0.932,30.06,-1.07,-2.01,1785094546116.092
0.399,-0.12,-0.948,15.72,-1.1,-2.04,1785094546126.566
0.397,-0.109,-0.952,-0.15,-0.82,-1.56,1785094546137.0461
0.395,-0.143,-0.962,-13.0,-0.4,-1.59,1785094546150.2239
0.396,-0.186,-0.955,-21.97,-0.24,-2.56,1785094546156.363
0.398,-0.236,-0.938,-25.54,-0.15,-4.15,1785094546166.1748
0.388,-0.269,-0.909,-24.32,0.4,-5.74,1785094546176.624
0.379,-0.269,-0.882,-21.06,0.4,-6.29,1785094546187.0579
0.385,-0.258,-0.872,-16.48,0.15,-5.89,1785094546200.393
0.394,-0.255,-0.876,-11.05,0.06,-5.37,1785094546206.198
0.406,-0.241,-0.895,-6.26,-0.4,-4.36,1785094546216.169
0.41,-0.222,-0.907,-2.81,-0.7,-2.96,1785094546226.583
0.406,-0.223,-0.919,-0.27,-0.55,-2.35,1785094546236.943
0.402,-0.224,-0.922,0.82,0.27,-2.5,1785094546250.161
0.4,-0.225,-0.913,1.59,1.4,-2.53,1785094546256.165
0.399,-0.22,-0.886,2.41,2.47,-2.72,1785094546265.857
0.398,-0.219,-0.86,3.85,2.99,-2.87,1785094546276.242
0.403,-0.216,-0.864,5.25,3.39,-2.81,1785094546286.593
0.397,-0.206,-0.86,5.92,4.06,-2.44,1785094546297.015
0.38,-0.222,-0.855,8.0,4.52,-2.56,1785094546310.3381
0.367,-0.249,-0.854,11.57,5.22,-2.84,1785094546316.062
0.346,-0.288,-0.859,17.43,6.71,-2.9,1785094546326.1912
0.325,-0.326,-0.857,27.68,11.02,-3.14,1785094546336.673
0.305,-0.394,-0.793,46.17,17.12,-3.36,1785094546349.931
0.318,-0.462,-0.711,70.35,20.91,-4.46,1785094546356.22
0.363,-0.454,-0.699,94.33,21.39,-5.46,1785094546366.088
0.392,-0.382,-0.746,113.32,20.42,-4.39,1785094546376.774
0.379,-0.345,-0.827,124.64,19.75,-4.36,1785094546390.093
0.356,-0.339,-0.859,124.12,20.39,-6.44,1785094546396.08
0.354,-0.324,-0.857,114.9,21.39,-8.42,1785094546406.645
0.356,-0.333,-0.83,108.49,24.2,-9.22,1785094546417.1082
0.34,-0.361,-0.788,108.28,27.99,-11.35,1785094546430.391
0.323,-0.374,-0.749,110.84,32.14,-14.65,1785094546436.2969
0.311,-0.398,-0.73,113.38,34.61,-18.19,1785094546447.14
0.301,-0.41,-0.729,113.19,35.37,-22.03,1785094546460.393
0.313,-0.409,-0.673,109.01,34.79,-24.05,1785094546466.3281
0.352,-0.399,-0.638,103.18,31.13,-25.94,1785094546477.128
0.384,-0.367,-0.645,94.91,27.1,-26.89,1785094546490.488
0.37,-0.347,-0.634,85.06,24.23,-27.16,1785094546496.237
0.354,-0.346,-0.61,75.47,20.26,-28.2,1785094546507.0059
0.352,-0.335,-0.599,65.52,16.05,-29.42,1785094546520.119
0.326,-0.353,-0.598,56.31,13.12,-29.73,1785094546526.0771
0.277,-0.379,-0.582,48.68,10.65,-30.85,1785094546536.4731
0.278,-0.382,-0.562,44.04,7.08,-32.96,1785094546547.0059
0.339,-0.353,-0.548,43.09,2.44,-35.0,1785094546560.2861
0.399,-0.307,-0.535,43.64,-3.51,-35.65,1785094546566.208
0.407,-0.288,-0.559,42.02,-9.46,-34.82,1785094546576.4502
0.356,-0.316,-0.608,36.19,-12.7,-33.75,1785094546587.112
0.288,-0.375,-0.641,26.8,-15.29,-31.34,1785094546600.393
0.226,-0.408,-0.649,17.15,-16.85,-29.18,1785094546606.4302
0.185,-0.432,-0.626,13.37,-17.0,-26.15,1785094546616.7778
0.203,-0.448,-0.563,16.72,-17.3,-24.17,1785094546630.097
0.289,-0.436,-0.498,23.16,-20.91,-23.29,1785094546636.1433
0.387,-0.396,-0.461,28.84,-26.86,-22.16,1785094546646.512
0.438,-0.354,-0.464,32.35,-33.63,-20.23,1785094546657.168
0.42,-0.333,-0.503,33.14,-40.41,-17.49,1785094546670.361
0.346,-0.347,-0.566,31.04,-45.26,-13.73,1785094546676.374
0.264,-0.394,-0.632,27.99,-47.06,-8.97,1785094546686.7578
0.193,-0.435,-0.67,26.15,-46.69,-3.63,1785094546699.971
0.146,-0.464,-0.676,29.08,-45.2,1.95,1785094546705.903
0.137,-0.496,-0.64,37.48,-44.43,7.2,1785094546716.189
0.224,-0.474,-0.594,47.18,-47.06,10.25,1785094546726.883
0.386,-0.392,-0.567,57.59,-51.7,12.42,1785094546740.111
0.456,-0.342,-0.586,66.81,-55.67,16.72,1785094546746.0588
0.389,-0.354,-0.602,68.03,-58.26,23.59,1785094546756.572
0.289,-0.408,-0.618,61.07,-60.95,30.52,1785094546769.831
