ax,ay,az,gx,gy,gz,timestamp_ms
-0.836,-0.317,-0.404,-32.29,0.79,-4.97,1785094363448.207
-0.834,-0.315,-0.344,-15.14,8.09,-1.07,1785094363448.704
-0.83,-0.339,-0.261,8.79,12.33,3.02,1785094363449.129
-0.826,-0.375,-0.211,37.87,13.67,7.17,1785094363449.547
-0.828,-0.388,-0.195,68.73,13.92,11.51,1785094363449.9531
-0.828,-0.388,-0.213,98.39,13.15,16.14,1785094363450.3638
-0.833,-0.351,-0.255,120.43,12.18,19.96,1785094363450.798
-0.833,-0.321,-0.301,134.07,11.84,23.1,1785094363451.21
-0.841,-0.322,-0.352,141.36,11.26,24.26,1785094363451.6248
-0.852,-0.322,-0.398,142.09,11.66,23.65,1785094363452.043
-0.866,-0.319,-0.428,137.85,12.27,21.97,1785094363452.461
-0.86,-0.317,-0.431,128.88,13.06,19.59,1785094363452.8699
-0.874,-0.305,-0.416,114.26,13.34,15.78,1785094363453.2922
-0.882,-0.325,-0.402,96.87,12.82,14.65,1785094363453.705
-0.879,-0.345,-0.414,78.8,13.28,14.22,1785094363454.104
-0.887,-0.334,-0.42,59.66,13.12,13.15,1785094363454.449
-0.892,-0.33,-0.411,41.66,11.6,12.15,1785094363454.7961
-0.888,-0.338,-0.397,25.15,10.68,10.01,1785094363455.159
-0.886,-0.342,-0.377,11.75,10.65,7.02,1785094363455.498
-0.889,-0.342,-0.359,2.2,10.04,3.81,1785094363455.824
-0.896,-0.334,-0.344,-5.52,8.21,1.37,1785094363456.1619
-0.89,-0.327,-0.339,-12.05,6.5,0.0,1785094363456.5032
-0.886,-0.323,-0.344,-16.85,5.58,-1.37,1785094363456.827
-0.886,-0.329,-0.339,-19.56,5.13,-2.5,1785094363457.161
-0.884,-0.337,-0.32,-20.05,5.43,-3.91,1785094363457.49
-0.884,-0.352,-0.295,-18.31,5.95,-5.25,1785094363457.8293
-0.88,-0.365,-0.274,-15.32,6.29,-5.74,1785094363458.155
-0.872,-0.375,-0.262,-11.63,6.38,-5.19,1785094363458.484
-0.868,-0.376,-0.259,-7.72,6.41,-4.09,1785094363458.81
-0.867,-0.37,-0.256,-4.61,6.44,-2.38,1785094363459.127
-0.871,-0.364,-0.258,-2.04,6.93,-1.07,1785094363459.452
-0.873,-0.362,-0.259,0.49,7.48,-0.55,1785094363459.782
-0.875,-0.358,-0.255,3.02,8.06,-0.06,1785094363460.0818
-0.872,-0.356,-0.246,5.22,7.87,0.76,1785094363460.379
-0.867,-0.35,-0.243,7.02,7.63,1.25,1785094363460.661
-0.866,-0.349,-0.248,8.36,7.23,1.77,1785094363460.9612
-0.865,-0.349,-0.251,8.85,6.56,2.23,1785094363461.264
-0.862,-0.345,-0.252,8.79,6.07,2.69,1785094363461.5522
-0.863,-0.344,-0.25,8.58,5.58,3.02,1785094363461.8572
-0.86,-0.349,-0.246,8.03,5.07,3.33,1785094363462.153
-0.861,-0.356,-0.249,7.29,4.46,3.48,1785094363462.494
-0.858,-0.352,-0.261,5.68,3.81,3.78,1785094363462.833
-0.858,-0.346,-0.259,3.51,3.42,4.39,1785094363463.147
-0.86,-0.35,-0.25,1.89,2.81,5.01,1785094363463.4292
-0.864,-0.357,-0.243,0.34,1.89,5.52,1785094363463.721
-0.865,-0.363,-0.241,-0.89,1.04,6.07,1785094363464.0132
-0.864,-0.366,-0.24,-1.83,0.0,6.53,1785094363464.292
-0.862,-0.367,-0.242,-2.62,-0.64,6.93,1785094363464.625
-0.862,-0.366,-0.244,-2.96,-1.22,7.35,1785094363464.91
-0.866,-0.366,-0.245,-2.75,-1.8,7.66,1785094363465.194
-0.868,-0.365,-0.243,-2.9,-2.35,7.78,1785094363465.475
-0.871,-0.363,-0.241,-3.11,-2.9,7.69,1785094363465.759
-0.871,-0.361,-0.239,-3.42,-3.45,7.63,1785094363466.044
-0.87,-0.367,-0.245,-3.78,-3.88,7.35,1785094363466.323
-0.872,-0.372,-0.248,-3.6,-4.06,7.05,1785094363466.605
-0.874,-0.376,-0.249,-3.08,-4.27,7.11,1785094363466.889
-0.874,-0.379,-0.251,-2.23,-4.79,6.96,1785094363467.167
-0.872,-0.378,-0.256,-1.28,-5.1,6.68,1785094363467.456
-0.871,-0.376,-0.257,-0.52,-5.46,6.41,1785094363467.742
-0.869,-0.374,-0.259,-0.46,-5.92,6.13,1785094363468.013
-0.87,-0.371,-0.264,-0.76,-6.41,5.65,1785094363468.26
-0.87,-0.37,-0.273,-1.31,-6.84,4.97,1785094363468.513
-0.87,-0.365,-0.278,-1.95,-7.08,4.24,1785094363468.77
-0.871,-0.362,-0.282,-2.66,-7.35,3.63,1785094363469.0198
-0.872,-0.365,-0.283,-3.48,-7.48,3.02,1785094363469.279
-0.872,-0.368,-0.284,-4.15,-7.66,2.35,1785094363469.5361
-0.872,-0.369,-0.284,-4.73,-7.75,2.04,1785094363469.79
-0.873,-0.367,-0.284,-5.46,-7.87,2.14,1785094363470.0361
-0.875,-0.367,-0.287,-6.16,-7.93,1.89,1785094363470.294
-0.874,-0.37,-0.292,-6.59,-7.97,1.59,1785094363470.5542
-0.874,-0.367,-0.294,-6.96,-7.84,1.43,1785094363470.832
-0.876,-0.364,-0.297,-7.05,-7.69,1.34,1785094363471.096
-0.878,-0.361,-0.298,-7.02,-7.51,0.98,1785094363471.3608
-0.879,-0.36,-0.298,-6.9,-7.32,0.67,1785094363471.641
-0.881,-0.359,-0.299,-6.53,-6.99,0.58,1785094363471.905
-0.878,-0.356,-0.303,-6.07,-6.78,0.49,1785094363472.199
-0.874,-0.356,-0.309,-5.74,-6.5,0.18,1785094363472.458
-0.872,-0.356,-0.313,-5.52,-6.1,-0.27,1785094363472.7092
-0.875,-0.354,-0.314,-5.43,-5.65,-0.27,1785094363472.9631
-0.879,-0.353,-0.311,-5.31,-5.25,-0.34,1785094363473.2148
-0.877,-0.354,-0.309,-5.04,-4.94,-0.4,1785094363473.465
-0.874,-0.352,-0.309,-4.82,-4.61,-0.46,1785094363473.716
-0.872,-0.349,-0.311,-4.94,-4.15,-0.46,1785094363473.97
-0.87,-0.349,-0.31,-5.07,-3.81,-0.64,1785094363474.261
-0.867,-0.348,-0.31,-5.43,-3.39,-0.82,1785094363474.518
-0.869,-0.347,-0.307,-6.2,-3.17,-0.85,1785094363474.7798
-0.871,-0.346,-0.305,-7.26,-2.9,-0.95,1785094363475.039
-0.87,-0.346,-0.303,-8.51,-2.53,-1.04,1785094363475.2869
-0.87,-0.347,-0.3,-9.86,-2.26,-1.16,1785094363475.563
-0.87,-0.346,-0.299,-11.17,-2.29,-1.43,1785094363475.817
-0.871,-0.346,-0.298,-12.79,-2.44,-1.74,1785094363476.0479
-0.873,-0.345,-0.296,-14.62,-2.47,-1.95,1785094363476.288
-0.877,-0.347,-0.291,-16.08,-2.56,-2.35,1785094363476.5298
-0.879,-0.346,-0.29,-17.4,-2.72,-2.75,1785094363476.768
-0.88,-0.348,-0.288,-18.59,-2.62,-3.2,1785094363477.002
-0.881,-0.348,-0.285,-19.01,-2.53,-3.72,1785094363477.242
-0.883,-0.349,-0.278,-19.1,-2.56,-4.0,1785094363477.4832
-0.885,-0.347,-0.272,-19.14,-2.78,-4.15,1785094363477.713
-0.888,-0.35,-0.269,-18.98,-2.78,-4.43,1785094363477.95
-0.886,-0.35,-0.267,-18.68,-2.59,-4.7,1785094363478.187
-0.886,-0.348,-0.266,-17.91,-2.44,-4.67,1785094363478.417
-0.883,-0.35,-0.259,-16.85,-2.56,-4.88,1785094363478.652
-0.878,-0.347,-0.257,-15.66,-2.62,-5.13,1785094363478.89
-0.879,-0.345,-0.259,-14.4,-2.41,-4.91,1785094363479.1318
-0.877,-0.342,-0.261,-12.79,-2.14,-4.61,1785094363479.363
-0.876,-0.34,-0.259,-11.51,-2.08,-4.85,1785094363479.6
-0.876,-0.342,-0.258,-10.44,-2.01,-5.13,1785094363479.851
-0.873,-0.344,-0.255,-9.67,-2.17,-5.19,1785094363480.0872
-0.875,-0.345,-0.253,-8.85,-2.29,-5.19,1785094363480.324
-0.876,-0.344,-0.253,-7.78,-2.44,-4.94,1785094363480.5608
-0.879,-0.342,-0.253,-6.84,-2.5,-4.76,1785094363480.789
-0.881,-0.339,-0.253,-6.23,-2.72,-4.79,1785094363481.027
-0.881,-0.339,-0.252,-6.04,-2.99,-4.58,1785094363481.261
-0.883,-0.34,-0.254,-6.16,-3.2,-4.67,1785094363481.502
-0.884,-0.34,-0.258,-6.38,-3.63,-4.67,1785094363481.725
-0.88,-0.335,-0.258,-6.99,-4.21,-4.64,1785094363481.948
-0.881,-0.333,-0.257,-7.35,-4.27,-4.46,1785094363482.208
-0.882,-0.339,-0.258,-7.23,-4.24,-4.43,1785094363482.466
-0.882,-0.336,-0.26,-6.81,-4.55,-4.36,1785094363482.718
-0.878,-0.336,-0.26,-6.9,-4.79,-4.3,1785094363482.944
-0.878,-0.339,-0.264,-6.81,-4.85,-4.43,1785094363483.1582
-0.886,-0.34,-0.265,-6.71,-5.16,-4.39,1785094363483.376
-0.887,-0.338,-0.266,-6.9,-5.55,-4.12,1785094363483.6008
-0.887,-0.338,-0.266,-7.39,-5.8,-4.03,1785094363483.821
-0.884,-0.334,-0.268,-7.75,-5.95,-4.09,1785094363484.037
-0.882,-0.334,-0.271,-7.87,-6.04,-4.24,1785094363484.26
-0.877,-0.334,-0.274,-7.75,-5.92,-4.21,1785094363484.482
-0.877,-0.33,-0.276,-7.45,-5.62,-4.36,1785094363484.695
-0.88,-0.332,-0.276,-7.45,-5.62,-4.36,1785094363484.917
-0.886,-0.332,-0.276,-7.51,-5.83,-4.46,1785094363485.144
-0.887,-0.328,-0.275,-8.27,-5.98,-4.12,1785094363485.357
-0.884,-0.332,-0.275,-8.73,-5.65,-3.97,1785094363485.579
-0.884,-0.337,-0.277,-8.36,-5.46,-4.06,1785094363485.8042
-0.883,-0.333,-0.28,-7.6,-5.4,-3.78,1785094363486.0178
-0.882,-0.328,-0.282,-7.05,-5.25,-3.36,1785094363486.2468
-0.881,-0.326,-0.282,-6.99,-5.22,-3.14,1785094363486.47
-0.88,-0.328,-0.283,-6.99,-5.31,-2.96,1785094363486.693
-0.88,-0.326,-0.283,-6.93,-5.4,-2.75,1785094363486.9238
-0.881,-0.323,-0.286,-7.32,-5.43,-2.29,1785094363487.147
-0.878,-0.318,-0.288,-8.09,-5.34,-1.74,1785094363487.3718
-0.877,-0.318,-0.288,-8.73,-5.34,-1.59,1785094363487.591
-0.88,-0.32,-0.288,-9.37,-5.55,-1.53,1785094363487.812
-0.882,-0.323,-0.287,-9.83,-5.62,-1.1,1785094363488.042
-0.88,-0.327,-0.287,-9.95,-5.46,-0.64,1785094363488.2551
-0.875,-0.329,-0.286,-10.07,-5.4,-0.15,1785094363488.479
-0.872,-0.327,-0.286,-9.83,-5.16,0.34,1785094363488.693
-0.87,-0.33,-0.286,-9.31,-5.04,0.82,1785094363488.9102
-0.872,-0.329,-0.282,-8.85,-4.82,1.37,1785094363489.1208
-0.873,-0.329,-0.28,-9.03,-4.82,2.2,1785094363489.3372
-0.873,-0.329,-0.278,-9.13,-4.73,2.56,1785094363489.555
-0.879,-0.328,-0.277,-9.28,-4.7,2.9,1785094363489.7559
-0.879,-0.329,-0.276,-9.86,-4.76,3.27,1785094363489.964
-0.884,-0.332,-0.278,-10.25,-4.7,3.45,1785094363490.2
-0.886,-0.336,-0.282,-10.35,-4.82,3.45,1785094363490.412
-0.886,-0.334,-0.281,-10.59,-4.73,3.63,1785094363490.6208
-0.886,-0.337,-0.279,-10.93,-4.55,4.0,1785094363490.844
-0.888,-0.342,-0.276,-10.77,-4.39,3.81,1785094363491.0562
-0.889,-0.345,-0.275,-10.32,-4.21,3.45,1785094363491.261
-0.889,-0.343,-0.273,-9.95,-4.03,3.57,1785094363491.489
-0.887,-0.348,-0.272,-9.49,-4.03,3.48,1785094363491.698
-0.885,-0.349,-0.271,-9.03,-3.97,3.08,1785094363491.8972
-0.886,-0.344,-0.276,-8.64,-3.57,2.9,1785094363492.105
-0.884,-0.346,-0.276,-8.42,-3.2,2.59,1785094363492.3188
-0.883,-0.346,-0.273,-8.0,-3.02,2.04,1785094363492.5198
-0.882,-0.344,-0.273,-7.42,-2.9,1.5,1785094363492.726
-0.883,-0.343,-0.275,-6.87,-2.62,1.16,1785094363492.9358
-0.881,-0.342,-0.272,-6.68,-2.44,0.49,1785094363493.1682
-0.883,-0.345,-0.272,-6.41,-2.23,-0.37,1785094363493.372
-0.884,-0.344,-0.272,-6.1,-2.01,-0.7,1785094363493.586
-0.885,-0.344,-0.273,-6.01,-2.04,-0.89,1785094363493.7952
-0.882,-0.344,-0.273,-6.01,-1.83,-1.25,1785094363493.997
-0.881,-0.343,-0.273,-5.98,-1.71,-1.65,1785094363494.1968
-0.882,-0.342,-0.271,-5.86,-1.59,-1.71,1785094363494.3992
-0.877,-0.342,-0.268,-4.97,-1.13,-2.01,1785094363494.802
-0.875,-0.343,-0.268,-4.27,-1.1,-2.35,1785094363495.002
-0.982,-0.583,-0.465,3.6,13.7,4.18,1785094363495.4429
-1.012,-0.599,-0.427,8.51,13.7,0.89,1785094363495.637
-1.039,-0.576,-0.328,14.16,13.03,0.18,1785094363495.83
-1.047,-0.58,-0.298,27.8,13.0,1.31,1785094363506.5532
-1.129,-0.605,-0.336,39.58,14.59,-1.16,1785094363512.177
-1.243,-0.647,-0.385,41.66,17.55,-7.14,1785094363522.6738
-1.298,-0.715,-0.455,42.05,21.45,-16.82,1785094363533.3718
-1.325,-0.751,-0.471,39.49,24.75,-27.07,1785094363546.627
-1.327,-0.752,-0.428,36.71,25.85,-31.98,1785094363552.2969
-1.293,-0.707,-0.369,40.47,25.24,-32.81,1785094363563.107
-1.251,-0.644,-0.337,51.88,23.47,-33.75,1785094363576.3918
-1.208,-0.577,-0.32,63.84,20.57,-36.07,1785094363582.0588
-1.151,-0.493,-0.36,70.04,16.02,-38.51,1785094363592.823
-1.103,-0.444,-0.421,67.78,12.15,-39.4,1785094363603.4717
-1.065,-0.427,-0.465,57.13,7.75,-39.12,1785094363616.7231
-1.031,-0.407,-0.49,41.14,2.35,-36.99,1785094363622.493
-1.006,-0.407,-0.48,24.05,-2.32,-32.29,1785094363632.983
-0.993,-0.419,-0.434,7.9,-7.45,-26.49,1785094363643.371
-0.969,-0.445,-0.373,-5.55,-13.21,-19.41,1785094363656.6829
-0.949,-0.487,-0.322,-14.68,-19.32,-13.0,1785094363662.438
-0.922,-0.515,-0.296,-20.33,-26.15,-6.07,1785094363672.906
-0.876,-0.52,-0.275,-22.1,-33.39,2.5,1785094363683.4219
-0.815,-0.507,-0.294,-20.94,-40.44,11.75,1785094363699.784
-0.738,-0.474,-0.341,-19.5,-45.59,21.09,1785094363702.6592
-0.664,-0.446,-0.357,-18.86,-49.38,30.03,1785094363713.1572
-0.601,-0.451,-0.361,-19.35,-54.05,37.05,1785094363726.456
-0.561,-0.477,-0.353,-21.15,-59.02,42.3,1785094363732.175
-0.519,-0.502,-0.375,-23.65,-64.3,46.66,1785094363742.8071
-0.474,-0.495,-0.424,-26.25,-69.46,51.06,1785094363753.668
-0.438,-0.444,-0.489,-29.27,-73.46,56.37,1785094363766.852
-0.397,-0.381,-0.532,-34.27,-76.75,62.41,1785094363772.5352
-0.375,-0.341,-0.569,-40.86,-80.05,66.96,1785094363783.4492
-0.385,-0.326,-0.571,-48.77,-82.61,70.47,1785094363796.693
-0.429,-0.352,-0.551,-55.7,-85.73,73.85,1785094363802.8281
-0.476,-0.394,-0.538,-61.43,-88.72,76.54,1785094363813.128
-0.5,-0.441,-0.533,-65.31,-90.88,79.01,1785094363823.8398
-0.503,-0.48,-0.527,-67.75,-93.08,81.91,1785094363837.031
-0.49,-0.504,-0.535,-69.12,-95.07,85.18,1785094363843.1711
-0.464,-0.503,-0.551,-68.36,-96.41,87.16,1785094363853.444
-0.441,-0.479,-0.581,-65.28,-96.84,87.59,1785094363866.7021
-0.434,-0.433,-0.626,-61.68,-96.26,86.92,1785094363872.7979
-0.45,-0.378,-0.691,-59.3,-94.88,85.15,1785094363883.183
-0.483,-0.312,-0.76,-61.28,-92.14,82.77,1785094363893.839
-0.538,-0.263,-0.771,-67.93,-88.05,80.84,1785094363907.1292
-0.607,-0.279,-0.75,-77.7,-84.38,79.17,1785094363912.981
-0.659,-0.336,-0.701,-88.32,-81.06,76.69,1785094363923.5798
-0.695,-0.413,-0.633,-93.72,-78.01,73.98,1785094363936.8901
-0.734,-0.48,-0.569,-90.21,-75.23,72.02,1785094363943.1128
-0.734,-0.48,-0.569,-77.55,-72.3,70.28,1785094363953.227
-0.764,-0.526,-0.508,-56.98,-69.77,67.32,1785094363966.499
-0.77,-0.548,-0.448,-31.53,-68.27,63.42,1785094363972.5771
-0.74,-0.528,-0.456,-7.6,-65.92,60.27,1785094363982.976
-0.708,-0.438,-0.521,-7.6,-65.92,60.27,1785094363993.403
-0.755,-0.352,-0.568,8.42,-62.59,59.76,1785094364006.6611
-0.859,-0.304,-0.593,12.7,-59.79,58.53,1785094364012.564
-0.936,-0.298,-0.586,8.33,-57.59,57.04,1785094364022.9758
-0.973,-0.321,-0.548,0.34,-56.43,55.09,1785094364033.489
-0.967,-0.348,-0.507,-7.23,-54.63,53.68,1785094364046.818
-0.926,-0.387,-0.455,-10.25,-51.82,52.37,1785094364052.671
-0.857,-0.426,-0.422,-7.69,-49.75,49.68,1785094364063.055
-0.805,-0.422,-0.423,-2.26,-47.82,46.02,1785094364073.607
-0.802,-0.401,-0.436,3.48,-45.59,41.51,1785094364086.865
-0.79,-0.372,-0.483,6.59,-43.61,35.55,1785094364093.034
-0.795,-0.329,-0.518,6.47,-40.96,29.42,1785094364103.007
-0.84,-0.316,-0.526,3.69,-37.66,24.08,1785094364113.636
-0.877,-0.311,-0.504,-3.11,-34.64,18.71,1785094364126.882
-0.893,-0.319,-0.462,-10.25,-32.38,13.92,1785094364132.713
-0.899,-0.327,-0.408,-15.2,-30.58,9.55,1785094364143.126
-0.907,-0.335,-0.359,-17.09,-29.42,5.62,1785094364153.635
-0.914,-0.359,-0.324,-15.72,-28.72,2.08,1785094364166.826
-0.919,-0.39,-0.297,-11.44,-28.47,-1.28,1785094364172.6023
-0.917,-0.392,-0.285,-5.28,-28.14,-3.48,1785094364183.0232
-0.898,-0.367,-0.274,2.44,-28.08,-4.82,1785094364193.486
-0.85,-0.32,-0.276,9.55,-29.79,-6.65,1785094364206.784
-0.789,-0.281,-0.314,15.23,-31.16,-9.83,1785094364212.6938
-0.762,-0.257,-0.429,13.31,-27.62,-16.24,1785094364223.058
-0.769,-0.269,-0.532,-2.47,-20.81,-24.69,1785094364233.5
-0.793,-0.346,-0.548,-28.78,-15.5,-34.0,1785094364246.839
-0.81,-0.436,-0.495,-55.12,-11.87,-41.99,1785094364252.666
-0.829,-0.518,-0.429,-68.82,-9.8,-47.55,1785094364263.136
-0.857,-0.565,-0.397,-68.51,-8.91,-51.24,1785094364273.691
-0.87,-0.576,-0.39,-60.73,-9.37,-52.89,1785094364286.903
-0.866,-0.562,-0.387,-51.12,-10.41,-52.64,1785094364292.9521
-0.857,-0.538,-0.392,-40.96,-10.19,-53.77,1785094364303.3398
-0.848,-0.533,-0.389,-33.17,-9.92,-55.7,1785094364313.928
-0.841,-0.563,-0.38,-27.68,-10.28,-57.74,1785094364327.2651
-0.839,-0.557,-0.391,-25.21,-9.86,-59.69,1785094364333.27
-0.84,-0.527,-0.407,-26.64,-8.24,-60.43,1785094364343.445
-0.836,-0.496,-0.423,-31.07,-6.84,-61.74,1785094364356.664
-0.851,-0.479,-0.44,-38.3,-6.2,-63.26,1785094364362.8591
-0.888,-0.411,-0.426,-49.29,-5.68,-64.46,1785094364372.8772
-0.881,-0.426,-0.431,-61.92,-6.47,-65.71,1785094364383.3052
-0.892,-0.329,-0.457,-79.78,-7.23,-71.47,1785094364396.6821
-0.901,-0.269,-0.501,-100.19,-9.55,-69.55,1785094364404.22
-0.878,-0.416,-0.551,-123.66,-9.95,-68.18,1785094364413.053
-0.866,-0.496,-0.532,-148.72,-9.86,-74.5,1785094364423.687
-0.829,-0.532,-0.494,-167.7,-9.28,-77.49,1785094364436.917
-0.819,-0.628,-0.428,-176.85,-8.85,-80.2,1785094364443.1118
-0.788,-0.741,-0.379,-167.88,-9.06,-73.49,1785094364453.345
-0.901,-0.615,-0.396,-153.29,-3.36,-67.93,1785094364466.587
-0.86,-0.879,-0.387,-141.79,1.53,-67.66,1785094364472.5671
-0.836,-1.245,-0.266,-115.18,1.19,-90.64,1785094364483.208
-1.011,-1.265,-0.179,-63.54,-5.86,-109.2,1785094364493.723
-0.967,-1.017,-0.218,-6.56,-1.07,-86.37,1785094364507.0479
-0.896,-0.64,-0.32,27.65,15.23,-73.92,1785094364512.8372
-0.913,-0.516,-0.472,29.57,15.59,-95.4,1785094364523.2397
-0.857,-0.623,-0.469,-6.9,12.79,-111.48,1785094364533.85
-0.792,-0.803,-0.422,-37.17,12.39,-115.76,1785094364547.1448
-0.84,-0.83,-0.417,-54.29,14.65,-121.71,1785094364553.057
-0.872,-0.753,-0.403,-74.68,16.02,-128.85,1785094364563.869
-0.848,-0.823,-0.407,-94.76,15.38,-136.11,1785094364577.239
-0.862,-0.891,-0.398,-112.55,14.4,-141.51,1785094364583.2378
-0.881,-0.939,-0.431,-121.52,13.73,-142.52,1785094364596.464
-0.901,-0.942,-0.466,-124.67,14.31,-143.07,1785094364602.405
-0.882,-0.938,-0.495,-125.95,15.93,-142.77,1785094364613.449
-0.853,-0.928,-0.485,-126.96,19.04,-143.35,1785094364626.7012
-0.832,-0.92,-0.446,-125.95,21.27,-142.58,1785094364632.59
-0.824,-0.926,-0.408,-120.49,22.61,-142.12,1785094364643.7322
-0.832,-0.902,-0.407,-111.88,22.74,-143.86,1785094364656.8901
-0.827,-0.869,-0.451,-103.7,22.4,-144.84,1785094364662.949
-0.848,-0.839,-0.514,-101.84,21.91,-145.48,1785094364673.889
-0.868,-0.852,-0.564,-106.02,21.21,-142.0,1785094364687.093
-0.863,-0.866,-0.578,-113.8,23.87,-140.42,1785094364693.981
-0.849,-0.868,-0.579,-120.67,30.49,-142.7,1785094364706.5698
-0.876,-0.869,-0.598,-126.32,35.65,-140.66,1785094364712.497
-0.822,-0.886,-0.604,-131.02,39.49,-134.59,1785094364723.5332
-0.825,-0.839,-0.571,-130.31,46.63,-136.39,1785094364736.722
-0.848,-0.883,-0.53,-118.9,52.52,-134.28,1785094364742.9602
-0.855,-0.959,-0.468,-101.93,55.57,-132.42,1785094364753.729
-0.849,-0.984,-0.398,-79.23,56.95,-133.15,1785094364766.963
-0.838,-0.961,-0.37,-54.84,57.31,-133.85,1785094364772.9019
-0.815,-0.921,-0.408,-35.98,55.85,-133.03,1785094364783.743
-0.792,-0.855,-0.493,-29.48,53.77,-131.23,1785094364796.932
-0.778,-0.77,-0.569,-35.49,51.21,-129.55,1785094364803.0022
-0.756,-0.728,-0.619,-46.91,47.85,-128.06,1785094364813.651
-0.728,-0.718,-0.638,-57.44,46.51,-129.22,1785094364826.875
-0.683,-0.733,-0.625,-61.62,47.24,-131.63,1785094364832.799
-0.636,-0.755,-0.582,-60.09,47.0,-133.43,1785094364843.612
-0.598,-0.755,-0.545,-56.4,45.66,-133.21,1785094364856.886
-0.547,-0.747,-0.551,-53.47,43.89,-129.95,1785094364862.925
-0.511,-0.73,-0.569,-54.78,41.99,-124.27,1785094364873.577
-0.481,-0.719,-0.579,-60.73,39.58,-117.16,1785094364886.795
-0.45,-0.737,-0.579,-68.0,37.78,-110.32,1785094364892.802
-0.419,-0.767,-0.576,-71.2,37.42,-106.3,1785094364903.515
-0.407,-0.781,-0.58,-69.98,38.09,-103.79,1785094364916.804
-0.395,-0.757,-0.617,-67.35,39.67,-101.26,1785094364923.0908
-0.377,-0.722,-0.625,-63.81,43.09,-98.67,1785094364933.433
-0.366,-0.716,-0.603,-58.84,45.96,-96.74,1785094364946.5432
-0.361,-0.716,-0.565,-52.92,48.04,-95.19,1785094364952.992
-0.337,-0.706,-0.528,-46.05,49.38,-92.04,1785094364963.15
-0.307,-0.669,-0.516,-39.12,49.99,-88.5,1785094364973.831
-0.276,-0.62,-0.513,-33.48,50.81,-84.87,1785094364986.9968
-0.263,-0.594,-0.528,-29.05,51.61,-81.79,1785094364993.142
-0.257,-0.582,-0.542,-27.16,52.77,-79.01,1785094365003.4749
-0.247,-0.577,-0.544,-25.36,53.87,-77.09,1785094365016.744
-0.228,-0.555,-0.562,-25.57,52.86,-74.62,1785094365022.909
-0.21,-0.52,-0.57,-29.36,52.43,-71.44,1785094365033.1687
-0.209,-0.515,-0.568,-34.42,52.74,-68.54,1785094365043.811
-0.205,-0.522,-0.56,-37.69,52.58,-67.93,1785094365057.109
-0.192,-0.531,-0.545,-35.98,52.16,-67.38,1785094365063.134
-0.171,-0.526,-0.543,-31.34,51.79,-64.73,1785094365073.504
-0.151,-0.504,-0.542,-26.12,51.39,-60.95,1785094365086.8179
-0.134,-0.485,-0.554,-21.61,50.26,-56.67,1785094365092.832
-0.135,-0.468,-0.58,-19.59,48.65,-52.86,1785094365103.2178
-0.141,-0.453,-0.617,-21.55,46.17,-49.13,1785094365113.884
-0.143,-0.429,-0.646,-26.52,43.55,-45.53,1785094365127.2212
-0.141,-0.412,-0.658,-32.23,41.87,-41.93,1785094365133.0627
-0.127,-0.408,-0.638,-35.46,40.8,-39.34,1785094365143.5771
-0.102,-0.408,-0.616,-34.55,39.46,-37.93,1785094365156.8599
-0.087,-0.406,-0.61,-30.03,38.03,-37.54,1785094365162.945
-0.076,-0.393,-0.618,-24.9,36.62,-37.72,1785094365173.2722
-0.063,-0.38,-0.622,-20.29,34.76,-37.93,1785094365186.498
-0.047,-0.369,-0.636,-17.64,31.71,-37.05,1785094365192.482
-0.033,-0.36,-0.645,-16.66,28.96,-34.7,1785094365202.976
-0.028,-0.357,-0.649,-16.08,27.56,-32.32,1785094365213.632
-0.027,-0.36,-0.651,-14.86,27.25,-30.67,1785094365227.011
-0.027,-0.36,-0.651,-13.49,26.03,-28.53,1785094365232.874
-0.025,-0.361,-0.662,-12.3,24.35,-26.22,1785094365243.373
-0.011,-0.361,-0.722,-11.44,24.93,-24.78,1785094365256.585
0.003,-0.358,-0.768,-10.59,25.48,-22.16,1785094365262.877
0.022,-0.351,-0.779,-10.59,25.48,-22.16,1785094365273.0242
0.039,-0.346,-0.786,-8.76,25.73,-18.98,1785094365283.624
0.052,-0.325,-0.761,-8.21,25.54,-15.41,1785094365296.8252
0.072,-0.296,-0.715,-8.51,23.96,-11.96,1785094365302.895
0.088,-0.285,-0.707,-9.43,21.09,-9.7,1785094365312.959
0.092,-0.29,-0.714,-13.0,18.56,-8.88,1785094365323.3909
0.098,-0.31,-0.733,-17.52,18.28,-10.04,1785094365336.7869
0.098,-0.347,-0.773,-21.76,17.64,-10.53,1785094365342.9172
0.092,-0.367,-0.825,-25.88,17.64,-10.16,1785094365353.208
0.091,-0.371,-0.84,-26.95,17.94,-7.48,1785094365363.769
0.096,-0.346,-0.811,-22.0,19.81,-4.52,1785094365377.113
0.103,-0.324,-0.788,-13.46,20.54,-1.56,1785094365382.9949
0.105,-0.295,-0.783,-7.69,19.47,1.07,1785094365392.951
0.107,-0.281,-0.798,-5.46,18.89,3.75,1785094365403.6028
0.118,-0.274,-0.817,-6.65,20.14,5.22,1785094365416.796
0.111,-0.247,-0.683,-10.38,19.1,7.17,1785094365422.972
0.153,-0.302,-0.881,-13.46,13.25,11.2,1785094365433.058
0.121,-0.307,-0.927,-21.88,14.86,12.3,1785094365443.692
0.133,-0.315,-0.885,-26.37,15.23,15.26,1785094365456.9878
0.142,-0.311,-0.855,-24.9,17.12,16.97,1785094365462.973
0.131,-0.307,-0.809,-18.46,18.4,19.47,1785094365473.4148
0.126,-0.306,-0.803,-10.47,19.14,21.18,1785094365486.6309
0.14,-0.301,-0.85,-4.39,19.93,22.34,1785094365492.592
0.143,-0.3,-0.906,-1.01,21.79,24.02,1785094365502.972
0.141,-0.304,-0.945,-1.19,23.87,26.64,1785094365513.465
0.145,-0.307,-0.96,-4.82,25.36,30.0,1785094365526.8608
0.156,-0.32,-0.953,-8.82,26.86,33.51,1785094365532.648
0.162,-0.347,-0.943,-9.77,29.73,37.02,1785094365542.962
0.156,-0.371,-0.927,-7.45,33.54,39.89,1785094365553.466
0.149,-0.383,-0.921,-2.08,37.17,42.45,1785094365566.735
0.145,-0.373,-0.922,4.21,40.68,45.5,1785094365572.618
0.137,-0.363,-0.947,8.73,43.49,48.74,1785094365582.94
0.129,-0.362,-0.971,8.67,45.75,51.27,1785094365593.536
0.131,-0.386,-0.993,4.33,47.67,53.16,1785094365606.7222
0.136,-0.426,-0.991,-1.01,49.71,54.63,1785094365612.64
0.136,-0.452,-0.966,-4.58,51.48,56.09,1785094365622.965
0.134,-0.456,-0.964,-6.1,52.61,57.74,1785094365633.502
0.128,-0.443,-1.0,-7.93,53.01,58.93,1785094365646.7168
0.135,-0.428,-1.029,-11.14,53.8,60.0,1785094365652.628
0.15,-0.444,-1.03,-13.09,55.73,59.85,1785094365663.094
0.151,-0.463,-0.997,-12.73,58.26,59.14,1785094365673.779
0.147,-0.492,-0.976,-9.31,61.1,59.97,1785094365686.949
0.129,-0.511,-0.961,-4.49,63.88,60.85,1785094365692.9011
0.111,-0.509,-0.932,-1.19,66.41,61.98,1785094365703.158
0.108,-0.511,-0.907,-1.4,67.45,64.21,1785094365713.752
0.131,-0.525,-0.888,-2.72,69.28,65.52,1785094365727.0442
0.149,-0.553,-0.894,-3.69,71.17,66.07,1785094365732.903
0.159,-0.573,-0.926,-5.46,72.45,67.11,1785094365743.175
0.157,-0.573,-0.95,-9.34,73.09,68.45,1785094365753.752
0.156,-0.558,-0.946,-14.44,73.24,69.8,1785094365766.989
0.14,-0.553,-0.937,-19.29,72.76,70.47,1785094365772.9011
0.126,-0.543,-0.929,-25.18,71.66,70.1,1785094365783.405
0.133,-0.542,-0.906,-31.25,70.77,70.13,1785094365796.6467
0.138,-0.558,-0.855,-36.84,70.31,70.68,1785094365802.7678
0.155,-0.586,-0.815,-41.44,69.86,70.96,1785094365813.17
0.174,-0.599,-0.791,-45.38,68.58,70.59,1785094365823.8372
0.188,-0.598,-0.797,-48.34,66.47,70.93,1785094365837.0051
0.183,-0.605,-0.848,-51.79,64.52,71.29,1785094365843.242
0.175,-0.604,-0.871,-56.7,63.81,70.93,1785094365853.46
0.185,-0.61,-0.874,-58.66,64.36,71.11,1785094365866.842
0.169,-0.628,-0.848,-56.22,65.25,70.89,1785094365872.65
0.164,-0.635,-0.827,-50.05,65.83,70.22,1785094365883.2122
0.182,-0.619,-0.821,-42.42,66.87,69.34,1785094365893.833
0.197,-0.59,-0.8,-36.5,68.09,68.54,1785094365907.0798
0.227,-0.57,-0.814,-35.13,68.7,68.3,1785094365913.014
0.252,-0.567,-0.842,-38.21,69.31,67.96,1785094365923.6199
0.256,-0.577,-0.852,-44.07,69.77,69.34,1785094365936.817
0.254,-0.589,-0.854,-51.18,69.67,70.99,1785094365943.085
0.253,-0.589,-0.84,-56.31,69.73,72.36,1785094365953.263
0.259,-0.588,-0.822,-56.83,70.1,73.79,1785094365963.921
0.27,-0.581,-0.821,-53.74,71.32,74.65,1785094365977.24
0.287,-0.577,-0.802,-47.85,73.7,75.01,1785094365983.238
0.311,-0.585,-0.8,-40.71,75.96,74.86,1785094365993.634
0.325,-0.573,-0.788,-34.94,77.97,74.4,1785094366006.8228
0.326,-0.568,-0.774,-30.67,79.26,74.53,1785094366012.789
0.31,-0.569,-0.767,-29.05,79.5,73.98,1785094366023.32
0.291,-0.559,-0.763,-29.51,79.04,72.94,1785094366036.5652
0.297,-0.525,-0.766,-30.55,78.49,71.69,1785094366042.806
0.32,-0.512,-0.779,-28.57,79.56,70.93,1785094366053.029
0.33,-0.52,-0.77,-24.93,81.27,70.19,1785094366063.685
0.343,-0.53,-0.784,-21.97,82.37,69.7,1785094366076.999
0.343,-0.535,-0.773,-20.94,84.11,69.98,1785094366083.062
0.324,-0.538,-0.721,-21.67,84.99,71.29,1785094366093.369
0.323,-0.543,-0.697,-23.71,84.2,73.31,1785094366106.594
0.322,-0.538,-0.683,-27.19,83.19,75.05,1785094366112.54
0.322,-0.528,-0.676,-29.63,82.09,76.39,1785094366123.0469
0.338,-0.524,-0.671,-29.42,81.21,77.3,1785094366133.703
0.343,-0.526,-0.679,-25.33,81.45,76.88,1785094366146.997
0.338,-0.541,-0.708,-17.94,83.1,76.05,1785094366152.873
0.342,-0.54,-0.722,-12.15,85.6,75.35,1785094366163.475
0.352,-0.522,-0.692,-10.1,87.37,76.14,1785094366176.707
0.353,-0.519,-0.646,-11.6,87.77,78.31,1785094366182.9373
0.34,-0.533,-0.598,-16.08,87.04,81.12,1785094366193.2358
0.326,-0.551,-0.57,-21.24,85.42,83.68,1785094366203.841
0.322,-0.563,-0.577,-24.05,83.41,85.7,1785094366217.0151
0.336,-0.583,-0.612,-21.7,82.67,86.43,1785094366223.1692
0.338,-0.589,-0.646,-16.08,83.74,84.26,1785094366233.498
0.344,-0.578,-0.644,-9.03,85.88,81.39,1785094366246.743
0.349,-0.571,-0.635,-2.66,88.29,79.07,1785094366252.5889
0.351,-0.564,-0.621,0.37,90.79,78.49,1785094366262.893
0.353,-0.573,-0.586,0.12,92.26,80.23,1785094366273.44
0.349,-0.595,-0.547,-2.87,92.14,82.83,1785094366286.6812
0.349,-0.629,-0.523,-6.5,90.98,84.6,1785094366292.632
0.355,-0.66,-0.537,-7.87,89.66,84.72,1785094366302.909
0.357,-0.687,-0.569,-6.41,89.45,83.04,1785094366313.495
0.362,-0.701,-0.607,-3.08,90.88,79.74,1785094366326.879
0.355,-0.695,-0.596,0.92,94.18,76.39,1785094366332.648
0.341,-0.681,-0.569,5.16,97.2,74.28,1785094366342.9692
0.344,-0.68,-0.547,7.6,99.64,73.09,1785094366353.431
0.349,-0.679,-0.514,7.54,101.32,72.7,1785094366366.7268
0.356,-0.697,-0.491,7.9,102.45,73.0,1785094366372.714
0.356,-0.718,-0.475,9.13,103.79,73.09,1785094366383.1968
0.36,-0.75,-0.485,13.37,106.02,72.48,1785094366393.9211
0.352,-0.773,-0.477,18.98,109.68,70.5,1785094366407.2002
0.347,-0.768,-0.467,22.55,112.28,67.54,1785094366413.124
0.35,-0.742,-0.469,22.22,113.32,64.15,1785094366424.0598
0.354,-0.714,-0.456,18.1,113.99,62.01,1785094366437.126
0.359,-0.716,-0.436,12.21,113.93,61.19,1785094366443.3333
0.36,-0.741,-0.39,6.47,113.68,60.43,1785094366453.759
0.355,-0.786,-0.343,3.45,113.16,59.97,1785094366466.9841
0.363,-0.809,-0.306,0.89,112.19,60.06,1785094366472.887
0.382,-0.803,-0.293,-2.69,110.35,59.42,1785094366483.472
0.403,-0.777,-0.279,-10.22,107.27,58.14,1785094366496.78
0.4,-0.765,-0.291,-23.93,102.51,56.18,1785094366502.816
0.4,-0.765,-0.291,-44.31,97.78,53.99,1785094366513.3528
0.387,-0.76,-0.317,-65.07,93.39,52.13,1785094366526.634
0.386,-0.767,-0.318,-79.01,89.39,51.12,1785094366532.492
0.4,-0.792,-0.314,-82.64,86.52,50.57,1785094366543.0479
0.402,-0.837,-0.292,-76.54,84.17,49.99,1785094366553.638
0.391,-0.897,-0.267,-76.54,84.17,49.99,1785094366566.8992
0.397,-0.923,-0.261,-65.89,83.44,48.89,1785094366572.822
0.415,-0.876,-0.257,-58.32,82.92,49.23,1785094366583.367
0.443,-0.812,-0.273,-56.86,80.54,51.0,1785094366596.811
0.465,-0.775,-0.305,-63.63,77.46,51.73,1785094366602.8008
0.461,-0.761,-0.324,-77.09,73.92,51.12,1785094366613.1033
0.453,-0.792,-0.33,-88.93,70.25,50.54,1785094366623.83
0.449,-0.851,-0.321,-93.97,67.02,49.23,1785094366636.9631
0.443,-0.891,-0.302,-90.27,64.0,47.49,1785094366643.1091
0.457,-0.884,-0.288,-78.31,61.83,47.27,1785094366653.433
0.479,-0.852,-0.282,-61.8,60.43,48.86,1785094366666.6519
0.475,-0.814,-0.285,-47.91,58.2,50.39,1785094366672.575
0.473,-0.772,-0.293,-41.17,54.51,50.97,1785094366683.1328
0.483,-0.751,-0.316,-39.92,49.78,50.48,1785094366693.8018
0.498,-0.757,-0.332,-41.66,45.35,49.29,1785094366707.124
0.5,-0.774,-0.34,-44.22,41.38,47.46,1785094366712.981
0.5,-0.788,-0.354,-45.75,37.51,46.6,1785094366723.5352
0.49,-0.793,-0.36,-46.3,34.24,46.42,1785094366736.711
0.488,-0.796,-0.372,-45.99,30.92,46.11,1785094366742.8438
0.491,-0.781,-0.397,-46.75,28.23,45.75,1785094366753.163
0.497,-0.756,-0.426,-49.81,26.22,46.24,1785094366763.6963
0.491,-0.747,-0.449,-54.08,25.06,46.91,1785094366777.3052
0.472,-0.763,-0.446,-58.75,24.11,47.67,1785094366783.232
0.464,-0.794,-0.439,-60.3,23.26,48.1,1785094366793.5889
0.485,-0.818,-0.432,-56.98,23.16,48.95,1785094366806.8499
0.505,-0.825,-0.414,-48.74,23.9,51.15,1785094366812.705
0.502,-0.83,-0.403,-37.51,24.41,54.14,1785094366823.2698
0.49,-0.842,-0.393,-24.6,24.93,55.76,1785094366833.861
0.485,-0.841,-0.394,-12.45,25.03,56.18,1785094366847.1191
0.488,-0.833,-0.42,-3.88,24.78,56.58,1785094366853.023
0.489,-0.824,-0.468,-0.52,25.06,56.73,1785094366863.425
0.488,-0.828,-0.499,-1.8,26.43,57.01,1785094366876.663
0.494,-0.86,-0.492,-4.91,28.47,56.31,1785094366882.778
0.499,-0.9,-0.453,-6.62,30.37,55.21,1785094366892.833
0.497,-0.93,-0.394,-4.52,32.47,55.45,1785094366903.4429
0.501,-0.962,-0.333,3.02,34.24,56.0,1785094366916.657
0.515,-0.981,-0.282,13.03,34.76,55.51,1785094366922.799
0.523,-0.998,-0.237,23.19,34.09,54.69,1785094366933.04
0.511,-1.025,-0.215,33.2,32.14,53.1,1785094366943.727
0.499,-1.049,-0.221,42.42,29.54,50.94,1785094366956.922
0.495,-1.063,-0.231,50.97,26.89,48.95,1785094366963.0872
0.492,-1.066,-0.242,58.44,24.26,46.66,1785094366973.485
0.486,-1.047,-0.248,61.31,21.49,44.83,1785094366986.625
0.478,-1.023,-0.256,60.24,17.46,42.82,1785094366992.378
0.47,-1.009,-0.28,54.48,13.28,40.25,1785094367003.0762
0.453,-0.998,-0.296,43.92,9.13,36.65,1785094367013.702
0.435,-0.99,-0.312,31.25,4.82,32.44,1785094367026.935
0.425,-0.981,-0.322,18.46,0.85,28.5,1785094367032.829
0.421,-0.968,-0.326,7.81,-2.72,24.32,1785094367043.0247
0.417,-0.957,-0.329,1.65,-5.98,19.96,1785094367053.438
0.409,-0.956,-0.349,-0.55,-8.91,15.66,1785094367066.711
0.385,-0.949,-0.365,-1.5,-10.68,11.32,1785094367072.623
0.371,-0.939,-0.381,-1.37,-11.75,7.08,1785094367082.906
0.377,-0.924,-0.392,-0.4,-12.36,3.81,1785094367093.2058
0.383,-0.917,-0.388,2.04,-12.24,1.19,1785094367103.652
0.38,-0.908,-0.383,5.25,-11.63,-0.79,1785094367116.912
0.381,-0.891,-0.385,7.69,-10.74,-1.83,1785094367122.976
0.383,-0.885,-0.395,9.09,-9.92,-3.08,1785094367132.769
0.384,-0.872,-0.402,8.51,-9.37,-4.15,1785094367143.1228
0.386,-0.87,-0.413,6.16,-8.79,-5.28,1785094367153.4788
0.385,-0.871,-0.412,2.47,-7.63,-6.84,1785094367163.875
0.396,-0.875,-0.406,-0.27,-6.56,-8.42,1785094367177.282
0.411,-0.879,-0.4,-1.1,-5.62,-10.04,1785094367183.187
0.421,-0.879,-0.4,-0.15,-4.67,-11.11,1785094367193.1
0.424,-0.873,-0.414,1.13,-4.39,-11.6,1785094367203.463
0.42,-0.863,-0.419,1.04,-4.27,-11.38,1785094367216.811
0.411,-0.861,-0.419,0.82,-4.12,-11.44,1785094367222.728
0.406,-0.866,-0.42,1.68,-4.03,-11.78,1785094367232.6519
0.4,-0.865,-0.421,3.51,-3.66,-12.09,1785094367243.1318
0.394,-0.865,-0.421,5.55,-3.42,-12.36,1785094367253.574
0.4,-0.855,-0.419,6.93,-3.42,-12.79,1785094367266.877
0.416,-0.838,-0.417,7.6,-3.54,-13.31,1785094367272.6829
0.427,-0.836,-0.411,8.91,-3.72,-13.98,1785094367282.9067
0.429,-0.844,-0.393,11.35,-4.55,-14.56,1785094367293.5159
0.427,-0.847,-0.382,14.5,-5.86,-15.14,1785094367303.945
0.423,-0.845,-0.38,17.46,-7.23,-15.32,1785094367317.224
0.416,-0.834,-0.383,19.56,-7.87,-14.83,1785094367323.0222
0.415,-0.823,-0.392,21.12,-8.21,-14.19,1785094367333.385
0.422,-0.822,-0.403,22.28,-8.21,-13.89,1785094367343.93
0.417,-0.819,-0.403,22.25,-7.9,-13.55,1785094367357.229
0.406,-0.813,-0.397,20.48,-7.87,-12.73,1785094367363.237
0.396,-0.804,-0.385,16.97,-7.63,-11.9,1785094367373.3608
0.394,-0.792,-0.371,12.54,-7.6,-11.38,1785094367383.89
0.399,-0.788,-0.359,8.24,-8.24,-11.41,1785094367397.128
0.396,-0.793,-0.351,4.52,-9.28,-11.84,1785094367403.1309
0.386,-0.804,-0.348,2.5,-10.28,-12.73,1785094367413.187
0.376,-0.822,-0.344,2.99,-10.96,-14.22,1785094367423.794
0.357,-0.844,-0.343,5.62,-11.51,-16.27,1785094367436.929
0.345,-0.845,-0.344,9.7,-11.81,-18.22,1785094367443.1204
0.354,-0.838,-0.341,15.29,-11.93,-19.38,1785094367453.2712
0.362,-0.825,-0.329,21.18,-12.33,-20.05,1785094367463.952
0.359,-0.813,-0.312,26.25,-13.34,-19.93,1785094367477.248
0.352,-0.805,-0.294,29.82,-14.89,-19.59,1785094367483.231
0.339,-0.786,-0.307,30.46,-16.63,-19.26,1785094367493.639
0.319,-0.766,-0.303,26.89,-17.55,-18.16,1785094367506.86
0.32,-0.754,-0.309,21.7,-18.95,-18.56,1785094367512.824
0.341,-0.751,-0.332,16.24,-19.59,-20.36,1785094367523.3381
0.365,-0.753,-0.34,11.57,-19.32,-21.06,1785094367536.536
0.377,-0.761,-0.328,10.16,-19.1,-20.54,1785094367542.759
0.372,-0.764,-0.305,11.87,-19.47,-19.96,1785094367553.004
0.355,-0.761,-0.291,14.31,-21.06,-19.2,1785094367563.672
0.339,-0.76,-0.286,16.08,-22.98,-17.88,1785094367577.111
0.328,-0.756,-0.289,17.46,-24.17,-16.75,1785094367583.02
0.322,-0.762,-0.302,18.86,-24.23,-16.63,1785094367593.443
0.34,-0.78,-0.306,21.24,-23.74,-16.6,1785094367606.651
0.381,-0.811,-0.299,27.22,-23.5,-16.14,1785094367612.587
0.404,-0.852,-0.286,38.24,-23.22,-16.66,1785094367623.1091
0.395,-0.904,-0.27,55.64,-22.83,-18.37,1785094367633.801
0.358,-0.936,-0.24,76.36,-23.44,-19.87,1785094367647.022
0.319,-0.923,-0.235,96.47,-24.54,-19.47,1785094367652.906
0.297,-0.898,-0.239,115.57,-23.93,-18.62,1785094367663.5452
0.298,-0.896,-0.245,133.88,-22.74,-19.84,1785094367676.8708
0.33,-0.887,-0.272,147.28,-21.79,-22.58,1785094367682.863
0.379,-0.859,-0.293,152.23,-20.39,-24.29,1785094367693.474
0.415,-0.827,-0.315,146.95,-19.38,-24.54,1785094367706.8591
0.423,-0.778,-0.318,128.3,-19.47,-23.04,1785094367712.664
0.423,-0.741,-0.304,99.77,-20.78,-20.05,1785094367723.405
0.435,-0.732,-0.282,67.26,-22.71,-17.09,1785094367736.5718
0.465,-0.748,-0.256,37.02,-24.87,-15.35,1785094367742.688
0.508,-0.772,-0.23,13.82,-26.73,-13.95,1785094367753.0469
0.537,-0.803,-0.215,0.24,-28.32,-12.63,1785094367763.645
0.534,-0.843,-0.199,-4.0,-29.18,-11.84,1785094367776.86
0.509,-0.868,-0.174,-2.2,-30.21,-11.11,1785094367782.927
0.509,-0.868,-0.174,3.75,-30.98,-9.46,1785094367792.9658
0.486,-0.875,-0.185,9.92,-29.88,-6.26,1785094367803.408
0.476,-0.852,-0.203,13.49,-28.81,-2.26,1785094367816.6753
0.492,-0.829,-0.212,13.86,-28.11,0.43,1785094367822.8008
0.499,-0.821,-0.219,10.38,-27.22,3.69,1785094367832.885
0.471,-0.805,-0.198,10.38,-27.22,3.69,1785094367843.431
0.426,-0.793,-0.173,5.95,-26.58,8.64,1785094367853.876
0.39,-0.801,-0.181,2.26,-26.09,13.18,1785094367867.1292
0.372,-0.803,-0.186,-1.74,-24.29,16.54,1785094367873.065
0.363,-0.788,-0.169,-4.79,-22.03,19.84,1785094367883.373
0.354,-0.765,-0.145,-6.29,-20.29,23.62,1785094367893.941
0.351,-0.739,-0.131,-6.5,-19.59,27.56,1785094367907.2012
0.349,-0.71,-0.138,-6.04,-19.38,31.62,1785094367913.1829
0.336,-0.679,-0.144,-7.51,-19.17,36.13,1785094367923.409
0.303,-0.657,-0.141,-11.47,-19.93,40.83,1785094367936.738
0.269,-0.658,-0.136,-17.18,-21.42,45.14,1785094367942.976
0.242,-0.685,-0.128,-23.38,-23.53,48.92,1785094367953.076
0.226,-0.733,-0.153,-28.05,-25.73,51.73,1785094367963.797
0.227,-0.748,-0.169,-31.19,-27.1,54.2,1785094367977.092
0.255,-0.741,-0.176,-30.82,-28.78,58.47,1785094367983.0881
0.279,-0.735,-0.189,-27.5,-31.01,63.48,1785094367993.4258
0.271,-0.723,-0.188,-24.72,-33.85,68.18,1785094368006.742
0.237,-0.725,-0.177,-23.19,-37.6,72.85,1785094368012.594
0.176,-0.735,-0.153,-25.06,-41.99,76.97,1785094368023.159
0.101,-0.739,-0.146,-30.27,-47.27,80.6,1785094368033.7542
0.057,-0.743,-0.197,-37.2,-52.83,84.63,1785094368047.067
0.063,-0.74,-0.274,-44.22,-56.86,88.87,1785094368052.8691
0.092,-0.748,-0.315,-49.1,-58.96,92.35,1785094368063.489
0.099,-0.793,-0.313,-49.96,-61.65,94.27,1785094368076.942
0.063,-0.865,-0.292,-47.46,-65.55,94.67,1785094368082.809
0.014,-0.913,-0.245,-41.54,-69.73,95.58,1785094368093.194
-0.036,-0.92,-0.193,-31.62,-74.71,98.85,1785094368103.807
-0.058,-0.894,-0.217,-19.47,-79.96,104.07,1785094368117.061
-0.049,-0.816,-0.279,-10.04,-83.5,110.05,1785094368123.258
-0.022,-0.754,-0.358,-3.97,-86.49,116.06,1785094368133.708
-0.005,-0.756,-0.433,-2.59,-88.44,119.79,1785094368146.97
-0.018,-0.829,-0.44,-6.32,-90.0,119.82,1785094368152.875
-0.059,-0.915,-0.384,-12.21,-93.08,118.59,1785094368163.526
-0.103,-0.967,-0.324,-15.11,-97.48,120.55,1785094368176.9888
-0.125,-0.974,-0.304,-12.88,-102.08,125.98,1785094368182.872
-0.145,-0.935,-0.329,-7.32,-105.69,132.02,1785094368193.6199
-0.157,-0.884,-0.402,-1.28,-108.07,137.85,1785094368206.899
-0.162,-0.856,-0.511,1.89,-108.52,142.25,1785094368212.7932
-0.183,-0.878,-0.598,-1.77,-107.24,143.25,1785094368223.603
-0.22,-0.942,-0.625,-13.43,-105.66,141.39,1785094368236.9448
-0.272,-1.035,-0.575,-30.06,-104.95,139.04,1785094368242.939
-0.325,-1.108,-0.49,-46.05,-107.0,137.79,1785094368253.7769
-0.34,-1.148,-0.426,-54.17,-110.66,138.22,1785094368267.055
-0.339,-1.166,-0.381,-51.7,-114.14,138.13,1785094368273.0369
-0.359,-1.168,-0.406,-41.26,-116.82,135.5,1785094368284.003
-0.395,-1.169,-0.496,-26.8,-116.92,130.56,1785094368297.2788
-0.436,-1.181,-0.592,-11.08,-114.2,124.58,1785094368303.2498
-0.465,-1.191,-0.709,1.86,-109.07,117.92,1785094368316.659
-0.478,-1.178,-0.758,8.18,-101.14,113.8,1785094368323.8489
-0.494,-1.154,-0.721,4.88,-92.41,111.39,1785094368333.292
-0.519,-1.134,-0.649,-6.29,-85.73,107.88,1785094368343.929
-0.536,-1.14,-0.564,-21.61,-81.33,103.12,1785094368357.0098
-0.553,-1.165,-0.476,-36.26,-78.4,95.77,1785094368363.167
-0.557,-1.191,-0.426,-45.41,-76.88,87.16,1785094368373.7158
-0.546,-1.188,-0.452,-46.6,-75.26,79.2,1785094368386.9429
-0.523,-1.143,-0.55,-40.68,-71.75,72.85,1785094368392.946
-0.5,-1.087,-0.616,-29.3,-66.04,66.71,1785094368403.441
-0.493,-1.043,-0.597,-16.05,-61.59,60.76,1785094368416.7402
-0.502,-1.008,-0.524,-3.88,-58.87,55.76,1785094368422.8052
-0.526,-0.999,-0.431,7.75,-57.28,52.31,1785094368432.944
-0.55,-1.001,-0.357,18.07,-57.53,50.14,1785094368443.5872
