ax,ay,az,gx,gy,gz,timestamp_ms
-0.895,-0.447,-0.081,-20.36,8.09,-10.22,1785106220389.204
-0.888,-0.435,-0.058,-18.65,8.88,-10.77,1785106220389.7988
-0.893,-0.412,-0.045,-17.21,8.64,-10.71,1785106220390.308
-0.899,-0.387,-0.04,-17.27,7.97,-9.43,1785106220390.784
-0.897,-0.39,-0.029,-16.69,7.11,-7.08,1785106220391.2551
-0.894,-0.385,-0.034,-15.69,5.13,-6.32,1785106220391.7297
-0.895,-0.371,-0.037,-16.21,3.57,-5.13,1785106220392.195
-0.9,-0.362,-0.038,-17.67,2.62,-3.45,1785106220392.6667
-0.896,-0.369,-0.03,-18.65,1.01,-1.43,1785106220393.132
-0.887,-0.371,-0.037,-18.43,-0.7,-1.16,1785106220393.61
-0.898,-0.365,-0.043,-18.77,-2.08,-1.77,1785106220394.073
-0.899,-0.359,-0.055,-19.53,-3.02,-2.23,1785106220394.52
-0.915,-0.353,-0.067,-20.63,-3.72,-3.57,1785106220394.9382
-0.928,-0.365,-0.069,-21.09,-4.33,-3.75,1785106220395.339
-0.928,-0.368,-0.075,-19.56,-5.19,-4.97,1785106220395.745
-0.928,-0.364,-0.086,-17.58,-5.95,-6.26,1785106220396.147
-0.918,-0.361,-0.101,-15.69,-6.29,-6.56,1785106220396.532
-0.892,-0.356,-0.124,-14.04,-6.23,-6.44,1785106220396.9229
-0.875,-0.349,-0.134,-13.43,-5.71,-5.77,1785106220397.315
-0.872,-0.356,-0.133,-13.76,-4.73,-3.94,1785106220397.6992
-0.868,-0.377,-0.131,-13.67,-3.63,-2.11,1785106220398.096
-0.86,-0.387,-0.128,-12.79,-2.5,-0.82,1785106220398.489
-0.857,-0.399,-0.129,-10.71,-1.4,-0.21,1785106220398.9102
-0.862,-0.406,-0.127,-7.45,0.0,0.34,1785106220399.299
-0.866,-0.407,-0.134,-3.33,1.25,0.0,1785106220399.6868
-0.869,-0.404,-0.144,0.67,2.66,-0.82,1785106220400.074
-0.877,-0.394,-0.142,4.27,4.03,-1.53,1785106220400.47
-0.878,-0.38,-0.147,6.59,5.16,-1.34,1785106220400.856
-0.879,-0.375,-0.157,6.56,6.59,-1.71,1785106220401.24
-0.884,-0.383,-0.158,4.91,7.69,-2.29,1785106220401.616
-0.899,-0.385,-0.146,2.08,8.42,-2.78,1785106220401.9893
-0.912,-0.385,-0.129,-1.07,8.39,-2.75,1785106220402.33
-0.915,-0.381,-0.118,-3.6,8.06,-3.08,1785106220402.684
-0.915,-0.376,-0.103,-6.23,7.48,-2.99,1785106220403.04
-0.911,-0.366,-0.096,-8.94,6.84,-2.47,1785106220403.4163
-0.898,-0.37,-0.115,-11.47,6.96,-2.66,1785106220403.776
-0.899,-0.391,-0.124,-13.86,7.84,-4.03,1785106220404.1228
-0.905,-0.418,-0.123,-13.4,8.27,-4.88,1785106220404.4648
-0.908,-0.427,-0.127,-9.74,7.45,-5.25,1785106220404.813
-0.894,-0.433,-0.118,-4.27,6.01,-3.57,1785106220405.154
-0.887,-0.428,-0.121,1.71,5.25,-2.5,1785106220405.489
-0.892,-0.39,-0.131,4.97,4.09,-3.91,1785106220405.8271
-0.875,-0.376,-0.129,2.69,3.33,-3.14,1785106220406.1921
-0.874,-0.38,-0.124,-1.4,4.36,-3.36,1785106220406.524
-0.878,-0.395,-0.114,-4.36,5.04,-4.33,1785106220406.861
-0.883,-0.411,-0.108,-5.92,5.34,-4.76,1785106220407.1958
-0.888,-0.426,-0.115,-5.01,5.52,-5.28,1785106220407.522
-0.896,-0.434,-0.107,-3.11,5.74,-5.86,1785106220407.857
-0.896,-0.43,-0.105,-0.18,5.46,-6.16,1785106220408.1887
-0.897,-0.436,-0.115,4.06,5.04,-6.23,1785106220408.584
-0.899,-0.437,-0.115,6.62,4.46,-6.5,1785106220408.9868
-0.894,-0.432,-0.12,7.63,3.97,-6.26,1785106220409.349
-0.884,-0.423,-0.138,8.03,3.51,-5.92,1785106220409.686
-0.888,-0.405,-0.148,7.17,3.14,-6.16,1785106220409.9883
-0.888,-0.397,-0.155,5.01,3.11,-6.32,1785106220410.2888
-0.893,-0.402,-0.144,2.26,2.78,-6.35,1785106220410.605
-0.897,-0.407,-0.123,-0.12,2.35,-5.8,1785106220410.903
-0.895,-0.412,-0.117,-1.43,2.2,-5.43,1785106220411.196
-0.893,-0.417,-0.127,-2.9,2.29,-5.43,1785106220411.498
-0.892,-0.419,-0.134,-4.06,2.5,-5.31,1785106220411.795
-0.89,-0.417,-0.132,-4.58,2.56,-5.04,1785106220412.0908
-0.884,-0.418,-0.138,-4.27,2.29,-4.73,1785106220412.394
-0.878,-0.416,-0.145,-4.39,2.26,-4.3,1785106220412.7031
-0.874,-0.415,-0.145,-4.88,2.69,-3.97,1785106220412.996
-0.873,-0.417,-0.136,-4.82,2.62,-3.88,1785106220413.322
-0.871,-0.417,-0.126,-4.64,2.44,-3.48,1785106220413.625
-0.867,-0.42,-0.122,-3.6,2.41,-3.23,1785106220413.936
-0.869,-0.417,-0.12,-3.05,2.32,-2.99,1785106220414.233
-0.867,-0.419,-0.117,-3.02,2.59,-2.81,1785106220414.5369
-0.87,-0.424,-0.121,-3.36,3.02,-3.02,1785106220414.855
-0.871,-0.423,-0.129,-3.36,3.51,-3.14,1785106220415.147
-0.877,-0.423,-0.131,-3.17,3.88,-3.33,1785106220415.448
-0.877,-0.419,-0.123,-3.81,4.0,-3.3,1785106220415.7498
-0.869,-0.426,-0.124,-3.51,4.18,-3.23,1785106220416.051
-0.871,-0.426,-0.127,-2.29,3.91,-3.17,1785106220416.352
-0.874,-0.418,-0.134,-1.16,3.69,-3.42,1785106220416.6558
-0.878,-0.42,-0.15,0.27,3.91,-3.78,1785106220416.9631
-0.885,-0.424,-0.142,1.31,3.97,-4.36,1785106220417.26
-0.888,-0.441,-0.122,2.11,3.66,-5.1,1785106220417.564
-0.882,-0.444,-0.123,3.2,3.78,-5.68,1785106220417.845
-0.874,-0.439,-0.147,6.29,4.3,-5.28,1785106220418.1162
-0.874,-0.439,-0.147,9.58,4.46,-5.8,1785106220418.392
-0.878,-0.431,-0.174,11.54,4.39,-7.08,1785106220418.698
-0.881,-0.424,-0.179,12.45,4.09,-7.72,1785106220418.984
-0.877,-0.423,-0.171,12.54,4.0,-7.97,1785106220419.2559
-0.873,-0.425,-0.162,12.54,4.0,-7.97,1785106220419.538
-0.875,-0.431,-0.154,12.91,3.66,-8.39,1785106220419.821
-0.879,-0.431,-0.152,12.48,3.3,-9.13,1785106220420.096
-0.877,-0.431,-0.149,11.32,3.39,-9.0,1785106220420.382
-0.877,-0.432,-0.135,11.2,3.48,-8.58,1785106220420.6663
-0.879,-0.441,-0.135,13.34,3.33,-8.39,1785106220420.9731
-0.882,-0.445,-0.131,15.11,3.27,-8.7,1785106220421.248
-0.884,-0.449,-0.114,14.95,2.84,-8.64,1785106220421.526
-0.885,-0.451,-0.108,15.26,2.9,-8.91,1785106220421.8208
-0.877,-0.451,-0.092,16.14,2.56,-8.91,1785106220422.0957
-0.872,-0.45,-0.066,17.18,1.53,-8.64,1785106220422.376
-0.866,-0.46,-0.067,18.1,0.92,-8.12,1785106220422.698
-0.864,-0.478,-0.079,18.92,1.04,-7.45,1785106220422.9949
-0.879,-0.48,-0.094,19.87,1.53,-8.18,1785106220423.27
-0.869,-0.47,-0.109,18.37,1.56,-7.9,1785106220423.5488
-0.854,-0.46,-0.132,16.33,1.4,-6.81,1785106220423.815
-0.857,-0.441,-0.146,13.73,1.8,-6.29,1785106220424.0708
-0.855,-0.432,-0.145,9.67,1.92,-5.4,1785106220424.328
-0.845,-0.442,-0.141,6.13,1.95,-5.19,1785106220424.584
-0.846,-0.456,-0.141,3.51,2.62,-5.62,1785106220424.844
-0.85,-0.476,-0.146,1.46,3.54,-5.58,1785106220425.1157
-0.863,-0.487,-0.146,0.18,3.72,-4.46,1785106220425.3772
-0.859,-0.487,-0.137,-0.09,2.87,-2.38,1785106220425.642
-0.853,-0.465,-0.111,-1.71,1.16,-1.83,1785106220425.896
-0.855,-0.449,-0.074,-7.57,-0.43,-1.74,1785106220426.2012
-0.842,-0.455,-0.08,-13.49,-0.34,-1.65,1785106220426.476
-0.847,-0.474,-0.095,-17.46,0.7,-2.72,1785106220426.739
-0.877,-0.508,-0.097,-17.91,1.22,-4.52,1785106220426.9978
-0.877,-0.517,-0.101,-13.4,1.1,-5.01,1785106220427.261
-0.858,-0.489,-0.107,-6.93,0.09,-3.66,1785106220427.5332
-0.879,-0.448,-0.083,-0.58,-1.59,-2.35,1785106220427.812
-0.873,-0.426,-0.069,3.94,-4.0,-0.64,1785106220428.076
-0.842,-0.421,-0.103,5.4,-5.22,-0.67,1785106220428.3809
-0.849,-0.421,-0.127,1.34,-4.24,-2.23,1785106220428.681
-0.869,-0.42,-0.128,-6.78,-3.85,-3.05,1785106220428.967
-0.861,-0.428,-0.119,-12.7,-3.91,-1.53,1785106220429.2322
-0.865,-0.449,-0.096,-14.5,-4.67,-0.12,1785106220429.493
-0.867,-0.456,-0.11,-13.58,-5.95,0.82,1785106220429.7332
-0.875,-0.442,-0.122,-13.37,-6.62,0.64,1785106220429.986
-0.88,-0.432,-0.128,-14.25,-7.29,0.67,1785106220430.2341
-0.87,-0.441,-0.127,-15.11,-7.87,2.35,1785106220430.474
-0.877,-0.446,-0.118,-15.96,-8.51,2.78,1785106220430.741
-0.882,-0.441,-0.11,-16.6,-8.73,3.51,1785106220430.9858
-0.887,-0.433,-0.1,-16.14,-9.09,4.85,1785106220431.233
-0.864,-0.444,-0.096,-13.18,-10.22,5.65,1785106220431.4802
-0.861,-0.424,-0.124,-12.51,-11.44,4.46,1785106220431.7341
-0.889,-0.416,-0.118,-15.9,-9.4,4.09,1785106220431.9849
-0.868,-0.461,-0.13,-17.76,-7.63,4.73,1785106220432.222
-0.863,-0.456,-0.16,-18.4,-7.23,2.66,1785106220432.4758
-0.867,-0.445,-0.172,-19.47,-5.68,3.17,1785106220432.7249
-0.87,-0.456,-0.164,-20.36,-4.7,4.03,1785106220432.972
-0.87,-0.46,-0.169,-18.68,-3.97,4.06,1785106220433.218
-0.857,-0.46,-0.179,-15.87,-3.2,4.79,1785106220433.4688
-0.856,-0.456,-0.173,-13.46,-2.75,5.34,1785106220433.7192
-0.863,-0.456,-0.162,-9.43,-2.26,6.44,1785106220433.9548
-0.856,-0.449,-0.167,-4.76,-2.23,8.15,1785106220434.2039
-0.846,-0.423,-0.198,-3.45,-1.8,8.51,1785106220434.4478
-0.835,-0.404,-0.222,-6.1,0.21,9.4,1785106220434.707
-0.852,-0.416,-0.199,-10.16,1.86,9.28,1785106220434.9692
-0.865,-0.452,-0.163,-10.41,2.9,9.49,1785106220435.2231
-0.855,-0.475,-0.142,-5.52,3.2,9.98,1785106220435.468
-0.851,-0.451,-0.156,-0.31,3.33,10.16,1785106220435.7078
-0.861,-0.424,-0.165,2.78,4.36,11.29,1785106220435.959
-0.863,-0.416,-0.165,4.12,5.13,11.99,1785106220436.208
-0.856,-0.418,-0.174,6.26,5.98,11.81,1785106220436.448
-0.86,-0.419,-0.175,8.36,6.81,11.63,1785106220436.701
-0.861,-0.423,-0.172,10.56,7.14,11.44,1785106220436.9722
-0.864,-0.43,-0.155,12.6,6.81,10.71,1785106220437.243
-0.87,-0.44,-0.135,14.25,6.44,10.41,1785106220437.4941
-0.873,-0.453,-0.103,15.66,5.74,10.32,1785106220437.752
-0.866,-0.452,-0.111,15.72,4.82,10.19,1785106220437.99
-0.868,-0.43,-0.125,13.15,5.07,10.59,1785106220438.237
-0.867,-0.426,-0.14,9.98,4.94,10.86,1785106220438.4749
-0.868,-0.429,-0.13,7.6,4.85,10.38,1785106220438.7278
-0.876,-0.438,-0.117,5.92,4.09,9.64,1785106220438.9539
-0.868,-0.448,-0.133,5.43,4.15,9.83,1785106220439.183
-0.871,-0.44,-0.151,4.94,4.12,9.49,1785106220439.414
-0.876,-0.438,-0.164,4.39,4.3,8.94,1785106220439.652
-0.87,-0.436,-0.165,4.52,4.61,8.48,1785106220439.894
-0.872,-0.438,-0.154,4.91,4.55,8.3,1785106220440.13
-0.874,-0.437,-0.147,5.71,4.09,8.64,1785106220440.361
-0.872,-0.424,-0.159,5.74,3.72,8.82,1785106220440.585
-0.868,-0.414,-0.163,3.97,3.88,9.19,1785106220440.814
-0.865,-0.416,-0.174,0.98,3.94,9.16,1785106220441.042
-0.875,-0.432,-0.167,-1.56,4.33,8.82,1785106220441.2659
-0.887,-0.443,-0.162,-2.84,4.43,8.64,1785106220441.5
-0.884,-0.435,-0.173,-2.53,4.58,9.19,1785106220441.7268
-0.879,-0.43,-0.193,-1.68,5.58,8.48,1785106220442.1812
-0.887,-0.44,-0.185,-0.55,6.2,7.9,1785106220442.41
-0.834,-0.558,-0.137,-108.8,-21.7,-14.92,1785106220443.0
-0.835,-0.577,-0.103,-103.98,-15.26,-16.08,1785106220443.2522
-0.828,-0.598,-0.09,-96.9,-9.46,-17.09,1785106220443.479
-0.817,-0.615,-0.102,-84.38,-3.63,-18.59,1785106220443.706
-0.819,-0.621,-0.107,-67.29,1.37,-20.51,1785106220453.6672
-0.817,-0.616,-0.104,-46.05,4.12,-21.79,1785106220464.236
-0.813,-0.598,-0.121,-21.3,5.55,-22.83,1785106220477.546
-0.812,-0.568,-0.136,3.36,6.62,-23.13,1785106220483.239
-0.812,-0.527,-0.16,25.24,7.14,-23.59,1785106220493.6362
-0.814,-0.466,-0.182,40.35,8.27,-23.56,1785106220504.12
-0.816,-0.439,-0.19,47.64,9.7,-23.1,1785106220517.3938
-0.822,-0.429,-0.185,49.04,11.08,-23.1,1785106220523.082
-0.826,-0.42,-0.18,48.46,11.54,-22.83,1785106220533.798
-0.82,-0.419,-0.195,47.09,11.17,-22.61,1785106220544.457
-0.817,-0.413,-0.212,43.82,10.35,-22.77,1785106220557.6892
-0.812,-0.394,-0.239,38.67,9.46,-22.37,1785106220563.384
-0.803,-0.384,-0.275,32.23,8.61,-21.09,1785106220573.979
-0.796,-0.384,-0.297,23.56,7.84,-19.93,1785106220584.5398
-0.784,-0.397,-0.299,14.16,6.9,-18.65,1785106220597.806
-0.771,-0.431,-0.283,6.01,5.4,-17.12,1785106220603.638
-0.761,-0.477,-0.255,-0.98,3.14,-15.93,1785106220613.874
-0.76,-0.513,-0.246,-6.04,0.95,-15.08,1785106220624.369
-0.756,-0.525,-0.261,-10.07,-0.27,-13.86,1785106220637.742
-0.757,-0.529,-0.299,-14.22,-0.4,-12.94,1785106220643.7603
-0.765,-0.543,-0.327,-18.56,0.92,-12.27,1785106220653.748
-0.775,-0.578,-0.336,-20.81,2.59,-11.44,1785106220664.588
-0.794,-0.622,-0.335,-20.63,4.27,-10.71,1785106220677.782
-0.811,-0.66,-0.335,-19.93,5.86,-10.19,1785106220683.774
-0.827,-0.695,-0.32,-19.41,7.48,-10.04,1785106220693.992
-0.85,-0.728,-0.276,-18.68,8.58,-9.61,1785106220704.4102
-0.876,-0.761,-0.223,-17.49,8.51,-9.64,1785106220717.671
-0.896,-0.788,-0.179,-16.94,7.87,-10.83,1785106220723.6428
-0.915,-0.818,-0.15,-19.01,6.96,-13.0,1785106220733.813
-0.943,-0.84,-0.139,-25.67,6.81,-16.94,1785106220744.3408
-0.963,-0.833,-0.114,-38.39,6.99,-22.46,1785106220757.618
-0.97,-0.85,-0.087,-53.29,7.45,-30.0,1785106220763.5908
-0.972,-0.911,-0.054,-66.81,6.87,-39.28,1785106220773.7742
-0.98,-1.013,-0.0,-75.01,3.75,-50.26,1785106220784.3452
-0.988,-1.104,0.063,-73.67,-1.77,-62.41,1785106220797.618
-0.985,-1.162,0.089,-61.98,-10.41,-75.41,1785106220803.6082
-0.974,-1.176,0.077,-45.29,-20.97,-89.72,1785106220813.9783
-0.963,-1.134,0.041,-33.88,-31.98,-104.65,1785106220824.7349
-0.963,-1.134,0.041,-34.49,-42.05,-119.48,1785106220838.003
-0.952,-1.072,0.02,-45.63,-51.06,-134.56,1785106220844.023
-0.949,-1.045,0.0,-63.75,-59.24,-148.75,1785106220854.7058
-0.943,-1.028,0.006,-82.46,-66.71,-161.66,1785106220867.97
-0.921,-1.05,-0.012,-100.77,-73.43,-174.54,1785106220874.093
-0.89,-1.094,-0.05,-100.77,-73.43,-174.54,1785106220884.8628
-0.85,-1.145,-0.06,-116.95,-79.23,-185.95,1785106220898.238
-0.792,-1.209,-0.077,-126.41,-85.76,-195.14,1785106220903.8433
-0.738,-1.231,-0.081,-128.79,-91.25,-202.25,1785106220917.541
-0.687,-1.199,-0.064,-125.03,-96.56,-206.7,1785106220923.6199
-0.624,-1.175,-0.071,-117.89,-104.04,-208.87,1785106220934.637
-0.541,-1.205,-0.17,-116.82,-109.16,-210.06,1785106220947.86
-0.467,-1.249,-0.316,-122.78,-107.49,-212.41,1785106220953.8613
-0.411,-1.337,-0.383,-129.43,-105.44,-215.92,1785106220967.412
-0.298,-1.45,-0.329,-132.73,-105.44,-215.03,1785106220973.5151
-0.198,-1.545,-0.233,-131.41,-105.84,-211.31,1785106220984.675
-0.193,-1.602,-0.136,-134.25,-107.33,-210.21,1785106220997.947
-0.266,-1.637,-0.12,-147.37,-108.65,-215.03,1785106221003.9922
-0.366,-1.628,-0.118,-164.13,-108.74,-225.87,1785106221017.458
-0.442,-1.608,-0.123,-173.68,-109.26,-239.84,1785106221023.581
-0.495,-1.55,-0.144,-178.78,-109.1,-252.94,1785106221034.842
-0.511,-1.499,-0.166,-178.14,-107.21,-262.55,1785106221048.0562
-0.553,-1.435,-0.196,-168.43,-105.08,-269.91,1785106221054.057
-0.573,-1.342,-0.281,-155.67,-101.14,-273.08,1785106221067.6328
-0.589,-1.234,-0.366,-148.29,-94.21,-273.78,1785106221073.576
-0.572,-1.122,-0.39,-144.84,-82.58,-272.62,1785106221084.622
-0.482,-1.068,-0.292,-140.11,-69.67,-267.43,1785106221097.8691
-0.404,-1.03,-0.183,-128.09,-59.69,-261.57,1785106221103.879
-0.401,-0.981,-0.142,-114.57,-52.13,-254.89,1785106221114.8857
-0.413,-0.943,-0.142,-100.89,-45.72,-245.98,1785106221128.199
-0.387,-0.878,-0.126,-82.43,-41.63,-236.76,1785106221134.0898
-0.343,-0.795,-0.154,-58.26,-40.89,-227.39,1785106221144.887
-0.325,-0.683,-0.223,-34.52,-41.72,-217.54,1785106221158.124
-0.316,-0.54,-0.272,-18.98,-43.43,-207.16,1785106221164.1719
-0.279,-0.421,-0.322,-16.33,-45.23,-195.84,1785106221174.829
-0.25,-0.36,-0.378,-25.3,-45.47,-184.58,1785106221188.117
-0.281,-0.329,-0.361,-41.11,-45.56,-174.35,1785106221194.3538
-0.322,-0.351,-0.347,-56.06,-47.0,-163.4,1785106221204.8928
-0.331,-0.354,-0.365,-67.42,-48.28,-153.23,1785106221218.0369
-0.309,-0.329,-0.44,-76.51,-48.98,-144.78,1785106221224.0051
-0.245,-0.302,-0.6,-87.71,-47.73,-136.72,1785106221234.8071
-0.166,-0.225,-0.773,-107.76,-43.37,-129.0,1785106221248.095
-0.083,-0.136,-0.897,-139.38,-35.28,-120.67,1785106221254.127
-0.041,-0.082,-0.917,-181.65,-22.13,-111.45,1785106221267.442
-0.068,-0.049,-0.834,-228.43,-5.71,-100.25,1785106221273.438
-0.139,-0.074,-0.66,-264.29,9.46,-85.12,1785106221284.1643
-0.198,-0.186,-0.449,-273.6,19.68,-66.47,1785106221294.898
-0.228,-0.322,-0.281,-247.66,23.62,-45.29,1785106221308.3389
-0.242,-0.412,-0.188,-184.67,21.7,-23.04,1785106221314.2268
-0.258,-0.428,-0.228,-96.1,14.19,-1.98,1785106221324.686
-0.278,-0.329,-0.359,-8.27,4.85,17.64,1785106221337.889
-0.293,-0.185,-0.501,58.26,-0.92,39.46,1785106221344.08
-0.307,-0.052,-0.627,92.17,-1.59,62.75,1785106221354.019
-0.325,0.062,-0.704,96.93,1.68,84.08,1785106221364.592
-0.346,0.118,-0.765,82.67,5.55,102.73,1785106221377.8792
-0.409,0.124,-0.813,55.94,10.5,117.86,1785106221383.8442
-0.486,0.105,-0.82,24.23,15.75,129.58,1785106221394.4858
-0.553,0.058,-0.809,-3.51,18.89,137.79,1785106221407.671
-0.613,-0.038,-0.825,-22.06,20.69,142.34,1785106221413.866
-0.674,-0.127,-0.837,-34.73,21.06,143.22,1785106221424.347
-0.715,-0.209,-0.835,-39.61,20.97,141.79,1785106221437.571
-0.7,-0.257,-0.826,-33.11,20.33,139.01,1785106221443.702
-0.644,-0.281,-0.841,-14.65,17.49,135.72,1785106221454.319
-0.552,-0.3,-0.908,9.09,14.71,129.76,1785106221467.584
-0.47,-0.305,-0.996,30.09,14.56,120.88,1785106221473.661
-0.418,-0.279,-1.063,42.21,17.49,112.28,1785106221483.969
-0.389,-0.258,-1.07,44.22,23.35,104.65,1785106221497.483
-0.361,-0.267,-1.031,40.16,30.52,97.26,1785106221503.447
-0.315,-0.298,-0.971,36.47,37.6,91.31,1785106221513.965
-0.241,-0.375,-0.911,41.84,40.53,88.05,1785106221524.5828
-0.221,-0.431,-0.998,57.65,41.11,84.81,1785106221537.8162
-0.159,-0.36,-1.011,56.09,42.18,81.51,1785106221543.9539
-0.039,-0.378,-1.01,45.96,39.89,84.32,1785106221554.291
0.068,-0.373,-1.133,36.74,40.16,85.21,1785106221567.7012
0.11,-0.384,-1.286,24.75,49.07,83.86,1785106221573.676
0.061,-0.432,-1.283,11.17,62.9,84.26,1785106221584.0562
-0.001,-0.561,-1.198,10.74,79.1,89.45,1785106221594.667
-0.076,-0.783,-1.102,35.25,96.13,96.44,1785106221607.9092
-0.109,-0.969,-0.933,82.61,107.64,105.01,1785106221613.9487
-0.096,-1.121,-0.786,150.85,112.31,112.16,1785106221624.974
-0.097,-1.157,-0.719,225.26,113.13,113.44,1785106221638.028
-0.107,-1.131,-0.702,288.4,114.57,110.48,1785106221644.3179
-0.122,-0.979,-0.808,314.25,112.98,102.11,1785106221657.701
-0.141,-0.766,-0.829,294.11,119.02,95.74,1785106221663.722
-0.195,-0.621,-0.806,245.16,125.1,87.04,1785106221674.725
-0.276,-0.494,-0.76,167.42,128.15,77.43,1785106221687.9539
-0.322,-0.44,-0.718,72.05,129.34,73.64,1785106221693.976
-0.361,-0.511,-0.612,-28.2,130.83,73.61,1785106221704.723
-0.372,-0.698,-0.487,-104.31,129.7,73.58,1785106221717.973
-0.387,-0.871,-0.441,-148.93,123.57,69.25,1785106221724.0378
-0.372,-0.992,-0.422,-163.18,118.02,64.76,1785106221737.3928
-0.372,-1.076,-0.396,-144.63,111.88,59.54,1785106221743.477
-0.355,-1.042,-0.398,-107.36,103.21,56.89,1785106221754.418
-0.332,-0.944,-0.517,-58.9,96.96,55.12,1785106221767.6458
-0.318,-0.822,-0.633,-16.02,95.31,53.59,1785106221773.6252
-0.327,-0.679,-0.696,8.91,95.55,53.1,1785106221784.0251
-0.35,-0.627,-0.767,22.06,100.16,54.9,1785106221794.729
-0.358,-0.665,-0.77,23.26,107.67,55.51,1785106221810.7852
-0.385,-0.743,-0.714,23.13,115.05,56.89,1785106221813.8262
-0.398,-0.804,-0.658,31.16,119.36,59.54,1785106221824.7349
-0.386,-0.811,-0.625,47.15,119.94,60.79,1785106221837.9067
-0.368,-0.761,-0.636,64.76,120.33,61.46,1785106221844.0
-0.338,-0.687,-0.689,74.68,121.34,64.12,1785106221854.6328
-0.315,-0.619,-0.722,71.47,124.73,68.45,1785106221867.954
-0.307,-0.587,-0.723,57.53,131.26,74.31,1785106221873.9111
-0.31,-0.623,-0.694,41.78,139.44,80.72,1785106221884.679
-0.327,-0.686,-0.669,28.32,147.86,86.79,1785106221897.873
-0.32,-0.743,-0.697,22.86,157.44,92.72,1785106221903.637
-0.321,-0.768,-0.722,25.79,168.77,98.73,1785106221914.675
-0.341,-0.783,-0.699,35.74,181.1,104.19,1785106221927.9512
-0.381,-0.855,-0.599,52.58,193.52,107.15,1785106221933.9531
-0.438,-0.925,-0.466,75.44,204.23,111.55,1785106221944.864
-0.471,-0.945,-0.333,106.78,211.19,118.23,1785106221958.124
-0.461,-0.929,-0.274,143.83,213.32,123.05,1785106221964.2073
-0.418,-0.908,-0.267,175.88,216.32,122.59,1785106221977.896
-0.391,-0.863,-0.296,188.57,220.01,118.44,1785106221983.792
-0.403,-0.832,-0.329,180.0,223.21,115.85,1785106221997.2952
-0.442,-0.793,-0.351,154.27,226.6,113.16,1785106222003.308
-0.47,-0.764,-0.326,118.93,229.96,110.35,1785106222014.507
-0.511,-0.781,-0.279,81.06,232.61,109.44,1785106222027.807
-0.546,-0.802,-0.213,42.15,234.14,110.45,1785106222033.7449
-0.558,-0.84,-0.187,6.04,233.83,113.28,1785106222044.6191
-0.557,-0.885,-0.159,-24.14,232.7,115.85,1785106222057.902
-0.547,-0.946,-0.091,-45.26,229.26,117.92,1785106222064.069
-0.542,-1.031,-0.036,-55.12,224.19,119.54,1785106222075.003
-0.543,-1.101,0.0,-52.06,218.79,120.88,1785106222088.153
-0.532,-1.163,-0.017,-33.75,212.47,120.18,1785106222094.408
-0.48,-1.174,-0.061,-12.45,205.63,116.06,1785106222107.5132
-0.414,-1.173,-0.134,2.23,199.84,110.29,1785106222113.646
-0.414,-1.173,-0.134,10.38,198.49,103.73,1785106222124.407
-0.382,-1.214,-0.197,11.26,196.97,94.55,1785106222137.6292
-0.386,-1.205,-0.196,12.21,194.86,87.22,1785106222143.789
-0.391,-1.205,-0.183,17.03,192.54,80.72,1785106222154.171
-0.365,-1.225,-0.174,17.03,192.54,80.72,1785106222167.659
-0.328,-1.239,-0.225,23.53,189.67,74.28,1785106222173.6729
-0.327,-1.242,-0.283,25.36,187.9,68.39,1785106222184.3699
-0.356,-1.231,-0.254,21.64,185.77,62.38,1785106222197.629
-0.365,-1.22,-0.207,18.46,182.81,56.43,1785106222203.722
-0.337,-1.212,-0.166,17.98,179.27,51.33,1785106222214.33
-0.316,-1.207,-0.194,19.2,176.18,46.3,1785106222227.752
-0.345,-1.176,-0.217,14.07,175.45,42.12,1785106222233.593
-0.386,-1.149,-0.171,2.99,175.3,40.01,1785106222244.184
-0.407,-1.176,-0.09,-4.46,174.41,38.39,1785106222255.018
-0.387,-1.209,-0.023,-2.29,172.43,34.97,1785106222268.6208
-0.375,-1.224,0.011,9.8,167.82,30.37,1785106222274.2058
-0.377,-1.201,0.056,24.84,161.66,27.99,1785106222284.626
-0.381,-1.19,0.095,39.03,155.34,26.15,1785106222297.971
-0.391,-1.208,0.251,53.19,147.65,27.31,1785106222303.9392
-0.375,-1.117,0.355,61.59,140.84,30.12,1785106222314.594
-0.339,-0.972,0.343,72.85,133.88,24.32,1785106222327.9163
-0.33,-0.84,0.495,56.31,124.45,18.56,1785106222333.834
-0.339,-0.83,0.685,34.27,116.12,16.63,1785106222344.7139
-0.387,-0.841,0.857,15.29,106.36,14.04,1785106222357.833
-0.412,-0.803,0.982,0.92,94.49,13.25,1785106222363.852
-0.405,-0.768,1.023,1.01,80.42,10.68,1785106222374.1528
-0.344,-0.678,1.04,9.03,64.7,9.58,1785106222384.639
-0.27,-0.578,0.96,23.44,46.66,7.84,1785106222397.881
-0.257,-0.453,0.855,31.43,28.57,9.0,1785106222403.8433
-0.253,-0.281,0.756,28.2,9.95,17.15,1785106222414.0488
-0.268,-0.149,0.577,21.64,-8.0,26.58,1785106222424.713
-0.261,-0.066,0.354,3.27,-23.07,35.0,1785106222437.834
-0.193,-0.022,0.199,-32.47,-31.74,43.37,1785106222443.912
-0.121,-0.018,0.132,-76.82,-34.12,49.26,1785106222454.232
-0.076,-0.088,0.127,-117.68,-34.18,55.48,1785106222467.5378
-0.069,-0.191,0.105,-144.87,-36.19,61.37,1785106222473.5251
-0.081,-0.308,0.062,-154.42,-38.0,67.72,1785106222484.253
-0.155,-0.396,0.061,-149.05,-37.63,73.31,1785106222497.525
-0.271,-0.465,0.085,-128.15,-39.55,75.26,1785106222503.451
-0.32,-0.558,0.074,-94.85,-44.98,76.82,1785106222514.074
-0.327,-0.66,0.024,-56.15,-51.06,76.66,1785106222524.7358
-0.35,-0.74,-0.048,-20.81,-57.65,77.64,1785106222537.954
-0.406,-0.79,-0.096,8.58,-63.33,78.65,1785106222544.0981
-0.421,-0.801,-0.18,30.82,-69.43,77.94,1785106222554.3198
-0.405,-0.818,-0.322,43.92,-75.81,75.35,1785106222567.61
-0.412,-0.832,-0.409,40.83,-79.2,71.69,1785106222573.7012
-0.481,-0.838,-0.423,23.32,-79.71,69.83,1785106222584.069
-0.588,-0.827,-0.394,1.8,-80.72,68.61,1785106222594.646
-0.673,-0.839,-0.354,-14.65,-82.03,66.41,1785106222607.884
-0.714,-0.862,-0.302,-23.47,-83.22,62.38,1785106222613.87
-0.681,-0.895,-0.26,-23.29,-86.03,59.54,1785106222624.33
-0.588,-0.968,-0.294,-15.87,-89.08,59.21,1785106222637.5889
-0.527,-1.018,-0.337,-8.3,-89.82,58.63,1785106222643.559
-0.537,-1.063,-0.369,-3.66,-89.82,62.29,1785106222653.908
-0.556,-1.051,-0.404,-3.48,-89.6,67.32,1785106222664.4412
-0.584,-1.003,-0.441,-5.31,-87.44,70.65,1785106222677.6682
-0.587,-0.998,-0.457,-9.92,-82.25,76.91,1785106222683.662
-0.571,-0.991,-0.448,-15.44,-77.97,80.75,1785106222693.929
-0.535,-0.986,-0.426,-19.9,-74.5,85.12,1785106222704.596
-0.514,-0.991,-0.426,-21.97,-72.15,90.24,1785106222717.781
-0.56,-1.003,-0.446,-23.07,-69.55,94.27,1785106222723.7903
-0.603,-1.03,-0.472,-25.39,-67.2,98.57,1785106222734.2551
-0.597,-1.063,-0.504,-27.77,-65.13,103.15,1785106222747.581
-0.591,-1.064,-0.426,-29.48,-62.9,108.04,1785106222753.522
-0.511,-1.169,-0.246,-11.44,-70.8,116.58,1785106222764.264
-0.558,-1.201,-0.543,22.77,-79.29,120.15,1785106222777.515
-0.79,-0.816,-0.641,4.76,-49.96,103.64,1785106222783.498
-0.686,-0.769,-0.638,-38.82,-42.12,107.7,1785106222794.111
-0.634,-0.984,-0.555,-77.85,-40.04,115.63,1785106222804.8582
-0.733,-1.086,-0.49,-85.73,-32.72,112.16,1785106222818.068
-0.823,-1.034,-0.513,-83.96,-35.34,103.52,1785106222824.1868
-0.918,-1.041,-0.419,-86.12,-37.11,104.07,1785106222834.858
-0.935,-1.111,-0.421,-75.26,-33.88,110.17,1785106222848.217
-0.968,-1.025,-0.387,-64.46,-35.34,105.53,1785106222854.139
-0.968,-1.012,-0.32,-51.33,-37.45,102.24,1785106222865.1143
-0.935,-1.024,-0.248,-29.51,-41.78,97.63,1785106222878.0588
-0.886,-1.02,-0.213,-1.68,-49.17,94.09,1785106222884.011
-0.843,-0.986,-0.276,25.45,-54.69,90.82,1785106222894.4958
-0.798,-0.91,-0.379,42.73,-54.99,85.09,1785106222907.663
-0.749,-0.844,-0.439,46.36,-49.38,78.04,1785106222913.716
-0.732,-0.809,-0.449,35.52,-44.31,71.47,1785106222924.1128
-0.744,-0.796,-0.41,19.23,-42.63,62.75,1785106222934.756
-0.745,-0.778,-0.341,6.81,-41.54,54.32,1785106222947.946
-0.732,-0.762,-0.291,0.64,-42.63,48.1,1785106222953.9578
-0.733,-0.73,-0.265,-1.62,-45.99,43.52,1785106222964.1887
-0.766,-0.688,-0.255,-1.28,-49.07,38.94,1785106222974.772
-0.802,-0.633,-0.238,-0.58,-52.61,35.16,1785106222987.9941
-0.818,-0.586,-0.22,-0.67,-56.79,32.96,1785106222994.102
-0.847,-0.549,-0.226,-2.96,-60.49,31.5,1785106223004.1333
-0.906,-0.516,-0.269,-8.58,-63.08,31.37,1785106223014.7368
-0.983,-0.481,-0.267,-18.52,-64.09,32.96,1785106223028.099
-1.057,-0.464,-0.219,-28.63,-65.37,34.97,1785106223034.028
-1.071,-0.474,-0.179,-39.31,-66.62,39.46,1785106223044.472
-1.04,-0.485,-0.141,-51.3,-68.51,45.81,1785106223057.751
-1.006,-0.494,-0.158,-63.84,-70.16,52.03,1785106223063.717
-0.983,-0.503,-0.221,-77.36,-70.93,56.61,1785106223074.2058
-0.961,-0.482,-0.272,-94.67,-71.66,60.4,1785106223084.795
-0.941,-0.454,-0.301,-113.04,-72.57,64.46,1785106223098.102
-0.921,-0.479,-0.375,-126.65,-72.6,67.81,1785106223104.084
-0.894,-0.523,-0.424,-132.97,-69.89,68.36,1785106223114.8757
-0.866,-0.555,-0.426,-130.65,-64.7,64.79,1785106223128.0862
-0.856,-0.569,-0.386,-120.52,-58.14,58.84,1785106223134.084
-0.84,-0.573,-0.317,-105.72,-52.1,54.35,1785106223144.82
-0.798,-0.615,-0.265,-86.73,-46.39,50.11,1785106223158.0002
-0.773,-0.673,-0.249,-65.07,-40.19,43.79,1785106223164.047
-0.783,-0.698,-0.237,-41.51,-36.35,39.77,1785106223174.488
-0.809,-0.689,-0.265,-14.4,-35.34,39.77,1785106223187.735
-0.796,-0.623,-0.332,10.1,-34.67,41.57,1785106223193.8088
-0.763,-0.509,-0.406,23.35,-34.39,42.21,1785106223204.167
-0.774,-0.394,-0.452,19.68,-33.08,40.59,1785106223214.7798
-0.804,-0.334,-0.445,0.82,-30.24,37.32,1785106223228.087
-0.821,-0.317,-0.394,-25.82,-27.83,32.69,1785106223234.2488
-0.848,-0.335,-0.332,-51.15,-25.33,26.73,1785106223244.447
-0.88,-0.35,-0.259,-72.39,-23.53,21.36,1785106223257.66
-0.911,-0.402,-0.22,-85.09,-22.06,15.78,1785106223263.733
-0.954,-0.47,-0.192,-87.65,-19.07,9.4,1785106223274.029
-0.985,-0.473,-0.133,-80.11,-15.93,4.33,1785106223284.5417
-0.977,-0.442,-0.097,-61.62,-14.1,1.89,1785106223297.85
-0.956,-0.419,-0.102,-36.62,-12.51,0.79,1785106223303.7979
-0.953,-0.396,-0.135,-11.87,-10.35,0.24,1785106223313.9993
-0.961,-0.363,-0.156,7.51,-7.54,1.13,1785106223324.3862
-0.958,-0.325,-0.165,19.04,-5.37,3.54,1785106223334.891
-0.955,-0.297,-0.184,24.11,-2.93,5.43,1785106223348.1592
-0.961,-0.289,-0.186,22.34,-0.7,6.32,1785106223354.051
-0.957,-0.291,-0.184,14.53,1.34,6.78,1785106223364.0198
-0.967,-0.303,-0.163,5.16,2.78,6.44,1785106223374.42
