ax,ay,az,gx,gy,gz,timestamp_ms
-0.869,-0.303,-0.376,-17.24,-13.61,-8.88,1785106391855.7078
-0.872,-0.308,-0.375,-19.47,-12.51,-9.74,1785106391856.164
-0.867,-0.317,-0.364,-21.33,-11.32,-10.56,1785106391856.542
-0.865,-0.329,-0.358,-21.64,-10.19,-11.26,1785106391856.917
-0.868,-0.332,-0.353,-20.54,-9.25,-11.9,1785106391857.2659
-0.872,-0.323,-0.356,-18.59,-8.76,-12.57,1785106391857.6262
-0.875,-0.307,-0.36,-17.61,-8.21,-13.12,1785106391857.991
-0.877,-0.293,-0.353,-18.04,-7.87,-13.15,1785106391858.3438
-0.877,-0.288,-0.355,-19.38,-7.72,-12.91,1785106391858.693
-0.877,-0.288,-0.351,-21.49,-6.96,-12.7,1785106391859.0432
-0.877,-0.289,-0.343,-22.55,-5.86,-12.15,1785106391859.4072
-0.879,-0.29,-0.338,-21.88,-4.79,-11.44,1785106391859.761
-0.879,-0.293,-0.331,-20.23,-3.45,-10.68,1785106391860.111
-0.875,-0.298,-0.319,-17.91,-2.14,-10.1,1785106391860.4648
-0.875,-0.308,-0.306,-15.44,-1.13,-9.8,1785106391860.82
-0.877,-0.316,-0.298,-13.31,-0.31,-9.43,1785106391861.1782
-0.879,-0.319,-0.301,-10.04,0.34,-8.97,1785106391861.532
-0.878,-0.32,-0.309,-6.56,0.79,-8.45,1785106391861.8901
-0.877,-0.314,-0.321,-3.6,1.25,-8.21,1785106391862.24
-0.871,-0.309,-0.328,-2.11,1.59,-7.72,1785106391862.571
-0.868,-0.306,-0.327,-1.62,1.95,-7.17,1785106391862.893
-0.871,-0.304,-0.326,-2.11,2.5,-6.96,1785106391863.1968
-0.868,-0.31,-0.322,-3.63,2.78,-6.81,1785106391863.575
-0.866,-0.315,-0.325,-5.65,3.3,-6.96,1785106391863.9119
-0.866,-0.322,-0.329,-7.35,3.88,-7.42,1785106391864.254
-0.868,-0.316,-0.329,-9.43,4.09,-8.06,1785106391864.591
-0.872,-0.313,-0.333,-11.44,4.52,-7.93,1785106391864.8901
-0.877,-0.32,-0.329,-13.06,4.91,-8.36,1785106391865.191
-0.883,-0.328,-0.318,-14.01,5.04,-8.85,1785106391865.497
-0.881,-0.342,-0.313,-13.58,4.91,-9.16,1785106391865.7988
-0.883,-0.352,-0.308,-11.6,4.79,-9.09,1785106391866.103
-0.884,-0.356,-0.299,-8.24,4.52,-9.13,1785106391866.406
-0.887,-0.351,-0.296,-4.27,3.88,-9.4,1785106391866.7048
-0.887,-0.344,-0.303,-0.49,3.3,-9.03,1785106391867.004
-0.885,-0.336,-0.306,1.86,2.87,-8.85,1785106391867.316
-0.885,-0.336,-0.306,3.39,2.78,-8.85,1785106391867.6172
-0.885,-0.33,-0.305,4.15,2.81,-8.61,1785106391867.913
-0.885,-0.333,-0.306,4.33,2.99,-8.58,1785106391868.211
-0.882,-0.334,-0.308,3.88,3.23,-8.7,1785106391868.511
-0.873,-0.329,-0.309,3.11,3.3,-8.76,1785106391868.807
-0.868,-0.329,-0.311,3.11,3.3,-8.76,1785106391869.107
-0.867,-0.332,-0.317,2.29,3.36,-9.4,1785106391869.4038
-0.868,-0.335,-0.317,1.31,3.33,-9.92,1785106391869.703
-0.863,-0.336,-0.318,0.03,3.08,-10.16,1785106391870.003
-0.863,-0.338,-0.323,-1.46,3.08,-10.62,1785106391870.314
-0.866,-0.332,-0.327,-2.9,3.08,-10.65,1785106391870.62
-0.868,-0.333,-0.331,-3.72,2.96,-10.56,1785106391870.9053
-0.866,-0.338,-0.325,-4.27,2.99,-10.71,1785106391871.1848
-0.863,-0.341,-0.319,-4.67,2.53,-10.47,1785106391871.468
-0.858,-0.345,-0.319,-4.24,2.44,-10.04,1785106391871.747
-0.857,-0.34,-0.318,-3.69,2.41,-9.61,1785106391872.021
-0.857,-0.338,-0.316,-2.96,2.38,-9.25,1785106391872.296
-0.86,-0.338,-0.313,-2.2,2.23,-8.91,1785106391872.5737
-0.86,-0.332,-0.318,-1.59,1.46,-8.55,1785106391872.848
-0.87,-0.33,-0.329,-1.28,1.53,-8.3,1785106391873.124
-0.87,-0.33,-0.325,-1.16,1.62,-7.42,1785106391873.398
-0.87,-0.318,-0.323,-0.95,0.67,-6.56,1785106391873.678
-0.872,-0.304,-0.324,-0.92,0.37,-5.22,1785106391873.954
-0.878,-0.291,-0.329,-1.74,0.37,-3.91,1785106391874.2368
-0.882,-0.279,-0.333,-2.75,0.4,-1.95,1785106391874.516
-0.882,-0.275,-0.337,-3.57,0.58,-0.03,1785106391874.79
-0.869,-0.278,-0.335,-4.36,0.55,2.14,1785106391875.0688
-0.853,-0.284,-0.336,-5.01,0.82,4.06,1785106391875.347
-0.85,-0.293,-0.329,-5.34,1.19,5.4,1785106391875.6191
-0.85,-0.303,-0.323,-5.13,1.5,6.35,1785106391875.9028
-0.85,-0.31,-0.318,-4.49,1.16,6.68,1785106391876.1821
-0.851,-0.32,-0.323,-3.81,0.92,6.9,1785106391876.4631
-0.854,-0.323,-0.334,-3.66,0.76,6.41,1785106391876.7231
-0.86,-0.326,-0.336,-4.36,0.7,5.52,1785106391876.983
-0.864,-0.331,-0.338,-5.31,0.61,4.49,1785106391877.2449
-0.864,-0.329,-0.331,-6.1,0.09,3.48,1785106391877.509
-0.865,-0.325,-0.33,-6.71,-0.34,2.5,1785106391877.773
-0.866,-0.321,-0.331,-7.78,-0.34,1.98,1785106391878.0361
-0.865,-0.328,-0.329,-8.85,-0.34,1.74,1785106391878.297
-0.859,-0.339,-0.329,-9.43,-0.52,2.01,1785106391878.5479
-0.853,-0.35,-0.327,-8.76,-0.46,2.47,1785106391878.8062
-0.85,-0.353,-0.321,-7.23,-0.49,2.87,1785106391879.0662
-0.846,-0.346,-0.322,-5.37,-0.82,3.6,1785106391879.3188
-0.846,-0.342,-0.327,-4.0,-0.98,4.33,1785106391879.5781
-0.848,-0.345,-0.334,-3.63,-0.82,5.1,1785106391879.837
-0.849,-0.351,-0.332,-3.63,-1.07,5.68,1785106391880.0928
-0.849,-0.352,-0.331,-3.05,-1.01,6.32,1785106391880.3552
-0.853,-0.346,-0.332,-2.5,-1.07,6.56,1785106391880.615
-0.86,-0.342,-0.33,-2.72,-1.19,6.78,1785106391880.878
-0.858,-0.343,-0.331,-4.03,-1.07,6.71,1785106391881.135
-0.86,-0.349,-0.332,-5.37,-0.95,6.41,1785106391881.3938
-0.862,-0.36,-0.336,-5.71,-0.7,6.04,1785106391881.653
-0.867,-0.375,-0.336,-5.19,-0.61,5.07,1785106391881.976
-0.867,-0.381,-0.333,-3.78,-0.61,4.15,1785106391882.272
-0.869,-0.378,-0.332,-1.5,-0.79,3.02,1785106391882.604
-0.872,-0.371,-0.333,0.49,-0.89,2.01,1785106391882.871
-0.869,-0.369,-0.335,1.43,-0.89,0.85,1785106391883.1082
-0.868,-0.37,-0.335,1.31,-1.1,-0.58,1785106391883.352
-0.865,-0.371,-0.332,1.77,-1.13,-1.56,1785106391883.5972
-0.866,-0.367,-0.335,2.53,-1.34,-2.38,1785106391883.837
-0.87,-0.356,-0.339,2.59,-1.77,-2.99,1785106391884.0818
-0.871,-0.348,-0.34,1.8,-1.95,-3.57,1785106391884.325
-0.866,-0.337,-0.343,-0.12,-2.23,-3.97,1785106391884.562
-0.863,-0.333,-0.339,-2.81,-2.32,-4.09,1785106391884.809
-0.865,-0.334,-0.336,-5.71,-2.35,-4.18,1785106391885.054
-0.866,-0.344,-0.331,-8.36,-2.56,-4.61,1785106391885.3008
-0.865,-0.351,-0.318,-10.35,-3.02,-5.01,1785106391885.5413
-0.863,-0.356,-0.315,-10.83,-3.54,-4.91,1785106391885.788
-0.865,-0.357,-0.311,-10.68,-4.0,-5.04,1785106391886.035
-0.87,-0.36,-0.307,-10.47,-4.82,-5.37,1785106391886.273
-0.875,-0.363,-0.309,-10.62,-5.8,-6.13,1785106391886.521
-0.875,-0.363,-0.307,-11.2,-6.59,-6.62,1785106391886.767
-0.877,-0.365,-0.307,-11.81,-7.08,-7.2,1785106391887.015
-0.878,-0.364,-0.302,-12.67,-7.54,-7.87,1785106391887.258
-0.875,-0.366,-0.304,-13.52,-7.78,-8.27,1785106391887.5078
-0.874,-0.364,-0.307,-14.47,-7.66,-8.73,1785106391887.755
-0.872,-0.363,-0.305,-15.81,-7.6,-9.19,1785106391887.9978
-0.871,-0.364,-0.306,-17.46,-7.6,-9.4,1785106391888.247
-0.866,-0.366,-0.305,-18.92,-7.45,-9.31,1785106391888.496
-0.866,-0.368,-0.304,-19.14,-7.57,-9.31,1785106391888.739
-0.864,-0.363,-0.3,-18.86,-8.12,-9.52,1785106391888.988
-0.866,-0.357,-0.322,-18.34,-8.39,-9.58,1785106391889.238
-0.871,-0.344,-0.324,-18.86,-8.18,-9.92,1785106391889.486
-0.869,-0.351,-0.319,-19.14,-8.39,-9.61,1785106391889.729
-0.873,-0.344,-0.329,-19.68,-8.61,-9.86,1785106391889.9783
-0.867,-0.346,-0.333,-21.06,-7.9,-9.49,1785106391890.2268
-0.862,-0.344,-0.329,-21.82,-7.93,-9.34,1785106391890.4587
-0.857,-0.338,-0.329,-21.67,-8.12,-8.85,1785106391890.6912
-0.849,-0.327,-0.333,-21.42,-7.9,-8.27,1785106391890.925
-0.845,-0.324,-0.336,-21.82,-7.51,-8.06,1785106391891.16
-0.842,-0.323,-0.341,-23.53,-7.23,-8.15,1785106391891.39
-0.843,-0.32,-0.345,-25.54,-6.56,-7.42,1785106391891.624
-0.85,-0.323,-0.34,-26.52,-5.86,-6.59,1785106391891.856
-0.852,-0.328,-0.334,-26.46,-5.71,-5.8,1785106391892.083
-0.851,-0.321,-0.334,-25.27,-5.43,-5.22,1785106391892.317
-0.853,-0.314,-0.334,-24.99,-4.88,-4.49,1785106391892.551
-0.855,-0.325,-0.335,-24.99,-3.81,-3.39,1785106391892.7832
-0.863,-0.326,-0.33,-24.08,-3.08,-2.5,1785106391893.014
-0.864,-0.323,-0.328,-22.06,-2.53,-1.16,1785106391893.2512
-0.866,-0.319,-0.334,-19.62,-1.89,-0.18,1785106391893.4841
-0.868,-0.321,-0.336,-18.07,-1.28,0.67,1785106391893.713
-0.869,-0.323,-0.331,-16.88,-0.79,1.1,1785106391893.943
-0.868,-0.326,-0.334,-15.41,-0.15,1.5,1785106391894.1782
-0.872,-0.329,-0.337,-14.16,0.58,1.22,1785106391894.41
-0.876,-0.332,-0.337,-13.58,1.22,0.89,1785106391894.636
-0.876,-0.336,-0.335,-12.21,1.62,0.73,1785106391894.8691
-0.876,-0.334,-0.33,-10.01,1.5,0.27,1785106391895.097
-0.874,-0.323,-0.328,-8.39,1.25,-0.06,1785106391895.322
-0.872,-0.316,-0.333,-7.75,1.37,-0.64,1785106391895.551
-0.878,-0.317,-0.334,-8.36,1.68,-1.46,1785106391895.779
-0.878,-0.319,-0.33,-8.67,1.68,-1.8,1785106391896.0051
-0.878,-0.32,-0.33,-7.81,1.43,-2.04,1785106391896.235
-0.88,-0.322,-0.331,-6.99,1.43,-2.32,1785106391896.461
-0.877,-0.321,-0.334,-6.5,1.28,-2.5,1785106391896.6882
-0.874,-0.321,-0.331,-6.29,1.1,-2.5,1785106391896.907
-0.871,-0.321,-0.337,-5.92,0.92,-2.75,1785106391897.166
-0.867,-0.317,-0.342,-6.2,0.82,-3.36,1785106391897.392
-0.862,-0.322,-0.343,-6.99,1.01,-3.85,1785106391897.6108
-0.858,-0.331,-0.342,-7.42,1.13,-4.52,1785106391897.832
-0.855,-0.336,-0.334,-6.71,0.98,-5.31,1785106391898.055
-0.85,-0.335,-0.327,-4.73,0.31,-6.16,1785106391898.2761
-0.846,-0.328,-0.329,-2.87,-0.18,-7.26,1785106391898.497
-0.842,-0.325,-0.333,-1.95,-0.58,-7.97,1785106391898.7178
-0.839,-0.328,-0.336,-1.74,-0.85,-8.45,1785106391898.939
-0.837,-0.331,-0.337,-1.46,-1.1,-9.03,1785106391899.158
-0.834,-0.326,-0.332,-0.92,-1.59,-9.58,1785106391899.382
-0.831,-0.317,-0.332,-0.76,-2.11,-9.95,1785106391899.605
-0.831,-0.313,-0.339,-1.46,-2.56,-10.07,1785106391899.827
-0.833,-0.318,-0.341,-2.84,-2.81,-10.62,1785106391900.0498
-0.833,-0.318,-0.341,-4.24,-2.99,-10.99,1785106391900.278
-0.833,-0.32,-0.343,-5.25,-3.33,-11.26,1785106391900.502
-0.829,-0.315,-0.346,-6.59,-4.0,-11.14,1785106391900.7249
-0.827,-0.311,-0.351,-8.48,-4.39,-10.59,1785106391900.948
-0.822,-0.311,-0.35,-8.48,-4.39,-10.59,1785106391901.1719
-0.818,-0.313,-0.35,-9.92,-4.46,-10.1,1785106391901.3928
-0.815,-0.316,-0.351,-10.71,-4.55,-9.77,1785106391901.612
-0.813,-0.317,-0.35,-11.26,-4.43,-9.28,1785106391901.8318
-0.823,-0.324,-0.354,-11.99,-3.72,-7.57,1785106391902.266
-0.832,-0.325,-0.358,-11.44,-3.51,-6.13,1785106391902.48
-0.845,-0.321,-0.364,-34.82,-10.62,-16.05,1785106391902.699
-0.881,-0.339,-0.337,-33.63,-11.14,-17.73,1785106391902.9163
-0.881,-0.339,-0.337,-31.89,-11.38,-18.95,1785106391903.1328
-0.877,-0.339,-0.328,-29.94,-11.75,-19.62,1785106391903.3867
-0.871,-0.336,-0.329,-27.25,-12.15,-19.87,1785106391910.4631
-0.866,-0.331,-0.337,-24.81,-12.45,-19.81,1785106391916.1
-0.862,-0.328,-0.347,-22.52,-12.76,-20.02,1785106391926.889
-0.862,-0.322,-0.356,-20.48,-13.31,-20.6,1785106391940.153
-0.861,-0.315,-0.371,-19.59,-13.55,-21.39,1785106391945.8098
-0.862,-0.316,-0.387,-20.51,-13.58,-21.88,1785106391956.623
-0.866,-0.324,-0.39,-22.8,-13.46,-22.31,1785106391967.257
-0.864,-0.339,-0.386,-25.09,-13.86,-23.04,1785106391980.53
-0.857,-0.342,-0.389,-26.61,-14.34,-23.38,1785106391986.1782
-0.852,-0.338,-0.399,-28.38,-14.62,-23.87,1785106391997.0
-0.849,-0.325,-0.396,-31.34,-14.95,-24.54,1785106392010.221
-0.847,-0.327,-0.392,-34.52,-15.44,-25.06,1785106392015.9568
-0.848,-0.337,-0.384,-37.78,-15.5,-26.4,1785106392026.7122
-0.854,-0.354,-0.373,-40.53,-15.81,-27.44,1785106392037.385
-0.869,-0.391,-0.352,-41.32,-16.75,-28.66,1785106392050.6238
-0.887,-0.43,-0.331,-39.06,-18.13,-30.18,1785106392056.411
-0.902,-0.466,-0.322,-33.81,-19.87,-31.8,1785106392067.138
-0.914,-0.501,-0.32,-27.22,-22.13,-34.21,1785106392080.4312
-0.911,-0.529,-0.319,-20.75,-23.8,-37.6,1785106392086.262
-0.901,-0.542,-0.32,-14.77,-25.09,-41.29,1785106392096.938
-0.898,-0.561,-0.351,-12.36,-26.43,-45.59,1785106392110.4583
-0.909,-0.546,-0.383,-21.88,-26.52,-51.3,1785106392116.511
-0.943,-0.576,-0.364,-40.89,-24.69,-58.96,1785106392126.8323
-0.971,-0.657,-0.293,-62.47,-24.02,-67.26,1785106392147.007
-0.964,-0.766,-0.21,-75.78,-26.06,-74.83,1785106392150.429
-0.942,-0.886,-0.162,-76.11,-30.7,-82.13,1785106392156.1292
-0.913,-0.967,-0.15,-69.31,-37.02,-88.87,1785106392167.411
-0.888,-0.992,-0.164,-62.72,-43.82,-96.84,1785106392180.38
-0.896,-0.997,-0.19,-61.28,-50.29,-108.28,1785106392186.093
-0.933,-0.979,-0.189,-67.51,-55.09,-122.01,1785106392197.08
-0.95,-0.971,-0.174,-78.59,-60.27,-135.07,1785106392210.258
-0.941,-0.987,-0.182,-91.1,-66.04,-148.35,1785106392216.2969
-0.931,-0.993,-0.194,-102.73,-71.23,-161.17,1785106392227.108
-0.922,-0.995,-0.19,-111.76,-76.33,-171.24,1785106392240.324
-0.915,-0.998,-0.186,-117.68,-80.75,-181.04,1785106392246.4377
-0.901,-0.998,-0.159,-122.75,-85.24,-190.04,1785106392257.309
-0.88,-0.997,-0.151,-126.59,-90.21,-197.33,1785106392270.5369
-0.882,-0.999,-0.158,-128.91,-94.88,-204.23,1785106392276.611
-0.913,-1.027,-0.165,-130.19,-99.7,-211.86,1785106392287.6108
-0.934,-1.048,-0.178,-130.92,-105.38,-220.19,1785106392300.8909
-0.94,-1.058,-0.2,-130.71,-111.39,-229.16,1785106392306.924
-0.98,-1.097,-0.238,-131.35,-117.74,-240.12,1785106392320.3787
-1.022,-1.111,-0.261,-137.24,-122.17,-250.92,1785106392326.4849
-1.013,-1.129,-0.267,-144.02,-125.03,-259.8,1785106392337.595
-0.969,-1.193,-0.258,-148.87,-126.68,-268.32,1785106392350.859
-0.926,-1.205,-0.266,-150.0,-127.96,-276.13,1785106392356.977
-0.905,-1.175,-0.249,-150.52,-125.25,-281.69,1785106392370.4277
-0.822,-1.199,-0.244,-149.33,-123.45,-284.16,1785106392376.517
-0.771,-1.228,-0.228,-148.47,-121.31,-288.34,1785106392387.703
-0.753,-1.307,-0.222,-143.5,-117.1,-290.99,1785106392400.903
-0.743,-1.369,-0.203,-131.14,-113.44,-293.53,1785106392407.001
-0.707,-1.356,-0.191,-113.25,-110.6,-296.03,1785106392420.5188
-0.627,-1.236,-0.178,-94.97,-108.74,-297.01,1785106392426.545
-0.515,-1.044,-0.207,-79.1,-107.15,-294.53,1785106392437.571
-0.385,-0.885,-0.287,-71.02,-103.82,-288.98,1785106392450.91
-0.232,-0.791,-0.377,-75.01,-97.75,-281.04,1785106392456.909
-0.125,-0.776,-0.469,-86.09,-90.15,-275.83,1785106392467.603
-0.055,-0.775,-0.5,-101.75,-77.91,-267.56,1785106392480.9292
-0.011,-0.76,-0.476,-114.32,-65.0,-257.0,1785106392486.5178
0.023,-0.77,-0.42,-120.91,-54.6,-246.01,1785106392500.294
0.059,-0.761,-0.368,-121.43,-43.67,-237.31,1785106392506.753
0.146,-0.779,-0.345,-112.95,-36.26,-224.25,1785106392517.244
0.194,-0.782,-0.41,-95.92,-29.54,-211.07,1785106392530.4893
0.179,-0.746,-0.5,-80.63,-20.69,-196.97,1785106392536.5918
0.098,-0.723,-0.544,-71.96,-12.91,-182.62,1785106392547.189
0.069,-0.725,-0.553,-68.88,-6.29,-168.43,1785106392560.4238
0.087,-0.765,-0.61,-66.96,0.67,-154.55,1785106392566.482
0.082,-0.756,-0.615,-65.0,8.42,-141.18,1785106392576.884
0.066,-0.692,-0.65,-63.66,15.14,-129.52,1785106392587.6638
0.009,-0.648,-0.71,-70.13,25.48,-119.72,1785106392600.899
-0.124,-0.637,-0.598,-87.71,37.72,-112.74,1785106392606.9
-0.218,-0.767,-0.591,-105.32,46.14,-105.93,1785106392617.691
-0.294,-0.898,-0.536,-112.74,56.43,-99.83,1785106392630.9153
-0.321,-0.942,-0.462,-103.95,61.71,-92.53,1785106392636.5261
-0.354,-0.927,-0.417,-80.17,64.06,-83.65,1785106392647.5342
-0.397,-0.869,-0.354,-50.39,63.17,-73.64,1785106392660.8262
-0.394,-0.802,-0.302,-18.04,58.14,-61.28,1785106392666.817
-0.37,-0.73,-0.263,17.85,50.33,-48.04,1785106392677.2402
-0.372,-0.597,-0.187,52.03,39.03,-34.85,1785106392690.5178
-0.35,-0.432,-0.184,82.06,25.48,-21.49,1785106392696.565
-0.325,-0.288,-0.292,100.25,14.31,-11.41,1785106392707.1582
-0.326,-0.184,-0.413,97.38,7.35,-6.53,1785106392717.5032
-0.311,-0.149,-0.536,74.92,2.84,-3.42,1785106392730.782
-0.28,-0.151,-0.646,38.42,0.82,0.06,1785106392736.669
-0.248,-0.127,-0.717,-6.93,1.31,4.91,1785106392746.6199
-0.224,-0.092,-0.753,-57.34,3.97,10.99,1785106392757.14
-0.21,-0.054,-0.772,-112.25,7.57,17.18,1785106392770.394
-0.181,-0.025,-0.773,-166.91,12.18,24.54,1785106392776.4219
-0.18,-0.077,-0.757,-211.71,17.15,31.77,1785106392787.057
-0.207,-0.189,-0.695,-240.94,20.23,38.64,1785106392800.277
-0.241,-0.352,-0.586,-244.67,18.65,45.29,1785106392806.3792
-0.27,-0.523,-0.49,-216.19,13.18,52.13,1785106392817.064
-0.27,-0.523,-0.49,-158.85,5.65,60.12,1785106392827.6538
-0.278,-0.617,-0.439,-81.3,-3.11,66.71,1785106392840.9011
-0.261,-0.637,-0.483,-2.11,-10.01,71.5,1785106392847.03
-0.239,-0.581,-0.622,60.18,-11.81,76.27,1785106392857.228
-0.208,-0.469,-0.753,100.89,-8.42,79.56,1785106392870.4573
-0.17,-0.424,-0.883,100.89,-8.42,79.56,1785106392876.4941
-0.151,-0.411,-0.951,121.71,0.21,81.24,1785106392886.899
-0.156,-0.387,-0.961,129.67,10.28,82.52,1785106392897.6782
-0.156,-0.377,-0.951,129.76,19.32,83.83,1785106392910.974
-0.163,-0.37,-0.926,121.46,27.95,83.56,1785106392917.094
-0.188,-0.389,-0.884,105.14,35.22,82.22,1785106392927.631
-0.229,-0.481,-0.883,86.92,41.72,82.19,1785106392940.855
-0.253,-0.592,-0.908,74.01,49.41,85.3,1785106392946.89
-0.26,-0.659,-0.909,67.96,54.81,88.14,1785106392957.261
-0.271,-0.709,-0.905,67.57,58.99,88.6,1785106392970.51
-0.27,-0.732,-0.89,67.2,63.97,87.5,1785106392976.5762
-0.256,-0.742,-0.855,68.03,69.34,86.49,1785106392987.035
-0.23,-0.764,-0.826,70.65,74.83,84.72,1785106392997.6143
-0.209,-0.811,-0.819,75.05,81.12,80.11,1785106393010.89
-0.182,-0.864,-0.827,80.63,87.31,75.11,1785106393016.9038
-0.139,-0.899,-0.826,87.5,93.42,71.05,1785106393027.377
-0.113,-0.902,-0.819,94.18,99.12,67.38,1785106393040.596
-0.111,-0.867,-0.783,98.21,106.14,63.57,1785106393046.657
-0.104,-0.824,-0.747,98.03,112.09,61.22,1785106393057.2551
-0.078,-0.804,-0.694,92.9,117.83,62.59,1785106393070.5437
-0.07,-0.813,-0.626,87.8,123.51,65.03,1785106393077.2312
-0.082,-0.81,-0.541,83.93,128.61,67.45,1785106393087.423
-0.077,-0.767,-0.456,80.54,130.95,69.64,1785106393100.499
-0.045,-0.725,-0.44,74.95,131.99,72.12,1785106393106.574
-0.038,-0.701,-0.462,62.41,135.04,74.1,1785106393117.19
-0.057,-0.67,-0.451,41.57,138.58,76.11,1785106393130.265
-0.055,-0.68,-0.451,18.89,142.22,79.65,1785106393136.222
-0.07,-0.727,-0.459,-0.4,146.82,81.7,1785106393147.089
-0.096,-0.779,-0.425,-14.25,150.61,83.74,1785106393160.263
-0.103,-0.832,-0.388,-21.12,153.23,87.65,1785106393166.34
-0.104,-0.867,-0.381,-20.2,155.86,92.32,1785106393177.042
-0.118,-0.874,-0.385,-15.14,158.06,96.19,1785106393190.243
-0.129,-0.871,-0.385,-9.95,159.67,100.16,1785106393196.262
-0.139,-0.863,-0.377,-5.19,160.95,103.73,1785106393206.999
-0.142,-0.863,-0.371,-1.56,162.54,106.39,1785106393217.793
-0.164,-0.898,-0.377,-0.43,166.23,106.94,1785106393230.9812
-0.193,-0.942,-0.373,-0.95,170.29,107.09,1785106393236.992
-0.196,-0.975,-0.369,1.59,172.49,107.85,1785106393247.672
-0.186,-0.991,-0.364,5.58,173.96,108.62,1785106393260.8928
-0.199,-0.991,-0.361,7.9,175.57,109.23,1785106393266.9749
-0.223,-0.991,-0.381,7.69,177.07,110.48,1785106393277.652
-0.231,-0.999,-0.384,4.24,178.69,111.36,1785106393290.947
-0.228,-1.006,-0.365,-0.49,179.75,112.86,1785106393297.009
-0.235,-1.01,-0.367,-5.22,181.28,114.66,1785106393307.6401
-0.25,-1.004,-0.375,-11.54,183.45,115.88,1785106393320.988
-0.266,-1.003,-0.401,-19.75,185.49,117.01,1785106393326.942
-0.294,-1.018,-0.413,-28.53,187.84,117.07,1785106393340.3298
-0.323,-1.04,-0.391,-35.0,188.94,116.61,1785106393346.3572
-0.327,-1.067,-0.356,-34.12,188.18,115.85,1785106393357.2961
-0.321,-1.082,-0.328,-24.17,185.74,115.05,1785106393370.5117
-0.341,-1.068,-0.329,-9.37,185.25,115.12,1785106393376.554
-0.367,-1.045,-0.342,4.12,184.76,113.77,1785106393387.295
-0.36,-1.037,-0.368,14.28,183.29,111.79,1785106393400.5398
-0.359,-1.033,-0.366,20.42,183.14,108.98,1785106393406.734
-0.38,-1.022,-0.362,24.93,181.92,106.54,1785106393417.522
-0.377,-0.989,-0.353,29.39,179.54,103.79,1785106393430.799
-0.364,-0.946,-0.306,32.65,178.01,101.44,1785106393436.82
-0.381,-0.915,-0.294,32.32,176.7,99.89,1785106393447.6428
-0.383,-0.893,-0.27,26.52,175.45,98.09,1785106393460.8909
-0.376,-0.921,-0.221,17.91,174.35,96.87,1785106393466.9631
-0.378,-0.972,-0.2,11.08,172.73,96.59,1785106393477.6409
-0.364,-0.986,-0.199,10.01,168.86,93.78,1785106393490.911
-0.309,-0.99,-0.25,13.52,163.03,89.3,1785106393496.9521
-0.24,-0.988,-0.331,13.55,156.71,84.2,1785106393507.6448
-0.192,-0.947,-0.433,4.85,150.76,78.31,1785106393520.8499
-0.16,-0.869,-0.547,-11.72,147.28,74.62,1785106393526.8638
-0.159,-0.792,-0.601,-34.79,147.34,72.79,1785106393537.479
-0.196,-0.758,-0.561,-63.69,148.14,70.31,1785106393550.7688
-0.223,-0.779,-0.512,-87.71,148.38,69.09,1785106393556.8262
-0.242,-0.784,-0.509,-97.75,149.85,71.02,1785106393567.4119
-0.253,-0.772,-0.488,-96.56,152.01,76.02,1785106393580.6821
-0.234,-0.822,-0.507,-80.97,152.99,81.97,1785106393586.8218
-0.229,-0.857,-0.537,-57.99,153.6,87.04,1785106393597.399
-0.258,-0.829,-0.513,-33.11,154.58,93.08,1785106393610.6702
-0.294,-0.81,-0.5,-9.52,154.15,99.98,1785106393616.689
-0.309,-0.809,-0.503,6.74,152.71,105.66,1785106393627.411
-0.337,-0.803,-0.479,13.52,152.29,109.41,1785106393640.552
-0.386,-0.827,-0.437,12.21,153.32,112.0,1785106393646.589
-0.425,-0.9,-0.379,7.9,153.63,111.88,1785106393657.402
-0.442,-0.984,-0.295,6.84,151.77,108.71,1785106393670.66
-0.449,-1.047,-0.204,12.6,148.53,104.92,1785106393676.721
-0.476,-1.078,-0.115,21.06,143.5,99.73,1785106393687.4822
-0.498,-1.075,-0.031,26.55,137.24,92.99,1785106393700.7283
-0.48,-1.075,-0.011,28.66,130.41,86.52,1785106393706.775
-0.452,-1.058,-0.013,26.83,125.55,80.48,1785106393717.4421
-0.461,-1.02,0.065,19.87,121.31,75.11,1785106393730.675
-0.517,-0.969,0.253,10.04,116.0,70.62,1785106393736.845
-0.571,-0.93,0.414,5.58,107.67,65.25,1785106393747.367
-0.583,-0.881,0.484,8.09,96.62,58.35,1785106393760.5051
-0.559,-0.813,0.479,12.54,83.83,53.07,1785106393766.544
-0.512,-0.747,0.416,16.51,70.59,51.42,1785106393776.938
-0.495,-0.64,0.389,15.38,57.77,49.32,1785106393787.565
-0.531,-0.496,0.4,7.29,44.77,47.58,1785106393800.812
-0.548,-0.375,0.391,-5.55,31.98,49.84,1785106393806.862
-0.547,-0.315,0.391,-20.87,20.17,54.32,1785106393817.107
-0.556,-0.324,0.418,-35.62,9.34,59.6,1785106393827.679
-0.545,-0.392,0.412,-41.84,-1.53,65.8,1785106393841.012
-0.5,-0.443,0.37,-38.45,-13.92,69.77,1785106393846.529
-0.445,-0.443,0.28,-30.7,-27.04,70.74,1785106393857.12
-0.4,-0.402,0.116,-26.4,-38.91,70.35,1785106393870.537
-0.371,-0.348,-0.077,-31.86,-48.01,69.37,1785106393876.622
-0.344,-0.34,-0.203,-47.88,-54.14,68.45,1785106393887.0608
-0.342,-0.354,-0.239,-71.81,-58.14,66.9,1785106393897.5942
-0.349,-0.394,-0.249,-93.57,-61.98,65.74,1785106393910.861
-0.349,-0.466,-0.267,-107.82,-66.32,62.26,1785106393916.928
-0.327,-0.54,-0.282,-115.05,-72.05,56.98,1785106393927.504
-0.255,-0.658,-0.367,-112.06,-79.71,52.49,1785106393940.886
-0.19,-0.75,-0.45,-102.21,-87.31,50.2,1785106393946.7861
-0.243,-0.772,-0.533,-89.27,-94.94,52.06,1785106393957.423
-0.393,-0.739,-0.675,-80.66,-101.75,56.49,1785106393970.666
-0.514,-0.692,-0.856,-81.55,-104.71,59.82,1785106393976.6829
-0.593,-0.674,-0.96,-89.79,-102.45,61.1,1785106393987.336
-0.641,-0.692,-0.943,-101.32,-99.4,62.11,1785106394000.635
-0.653,-0.757,-0.876,-107.27,-96.71,64.82,1785106394006.6401
-0.653,-0.864,-0.81,-101.23,-93.75,68.18,1785106394017.307
-0.676,-0.972,-0.734,-85.76,-90.73,72.3,1785106394030.5469
-0.75,-1.051,-0.661,-67.2,-88.87,77.76,1785106394036.631
-0.847,-1.065,-0.623,-48.89,-87.47,83.56,1785106394047.035
-0.886,-0.998,-0.622,-28.78,-84.96,90.09,1785106394057.621
-0.863,-0.907,-0.626,-6.04,-82.22,97.14,1785106394070.9219
-0.838,-0.856,-0.653,16.79,-79.78,101.9,1785106394076.964
-0.834,-0.832,-0.665,35.98,-77.85,105.56,1785106394087.4373
-0.826,-0.817,-0.653,50.57,-78.16,108.8,1785106394100.688
-0.805,-0.801,-0.696,61.46,-79.26,110.66,1785106394106.735
-0.805,-0.801,-0.696,62.65,-78.59,111.09,1785106394117.414
-0.757,-0.742,-0.79,43.76,-77.88,112.86,1785106394130.6958
-0.751,-0.63,-0.82,23.56,-69.09,115.18,1785106394136.779
-0.772,-0.645,-0.875,-4.36,-63.63,105.66,1785106394147.315
-0.795,-0.552,-0.914,-4.36,-63.63,105.66,1785106394160.5178
-0.784,-0.598,-0.87,-40.07,-59.76,101.47,1785106394166.563
-0.748,-0.737,-0.845,-66.84,-51.33,98.21,1785106394177.072
-0.769,-0.767,-0.802,-84.14,-48.4,91.89,1785106394190.318
-0.782,-0.822,-0.733,-84.11,-42.3,88.9,1785106394196.342
-0.778,-0.864,-0.662,-69.06,-41.35,83.19,1785106394206.8237
-0.784,-0.834,-0.612,-43.95,-43.82,78.83,1785106394217.4211
-0.816,-0.795,-0.605,-13.49,-41.9,76.33,1785106394230.6501
-0.852,-0.737,-0.609,13.0,-40.1,73.18,1785106394236.758
-0.871,-0.677,-0.595,32.01,-39.74,71.5,1785106394247.207
-0.874,-0.622,-0.599,45.72,-37.81,70.56,1785106394260.4019
-0.856,-0.576,-0.648,52.71,-35.04,68.27,1785106394266.414
-0.845,-0.543,-0.68,49.71,-31.77,64.67,1785106394276.834
-0.824,-0.53,-0.67,39.67,-28.14,61.19,1785106394287.533
-0.805,-0.536,-0.652,27.89,-26.12,57.25,1785106394300.7
-0.797,-0.553,-0.633,19.5,-23.71,53.5,1785106394306.878
-0.822,-0.569,-0.592,15.56,-21.61,49.41,1785106394317.2102
-0.852,-0.571,-0.551,15.5,-21.61,46.39,1785106394330.508
-0.87,-0.574,-0.536,18.86,-21.67,44.07,1785106394336.4648
-0.878,-0.571,-0.522,23.93,-20.78,41.26,1785106394346.901
-0.882,-0.552,-0.502,29.45,-20.54,38.3,1785106394357.528
-0.881,-0.521,-0.488,34.91,-20.45,35.16,1785106394370.8533
-0.871,-0.496,-0.5,38.58,-20.63,31.56,1785106394376.859
-0.875,-0.483,-0.51,38.42,-20.42,28.35,1785106394387.271
-0.885,-0.467,-0.496,34.15,-21.03,25.36,1785106394400.5618
-0.867,-0.458,-0.49,27.44,-21.7,22.61,1785106394406.1592
-0.845,-0.447,-0.481,19.2,-21.73,19.5,1785106394416.922
-0.847,-0.437,-0.471,10.44,-21.33,16.08,1785106394427.594
-0.854,-0.446,-0.453,2.93,-21.21,12.85,1785106394440.9038
-0.848,-0.458,-0.433,-1.83,-21.79,9.8,1785106394446.867
-0.834,-0.466,-0.434,-3.85,-22.4,7.11,1785106394456.833
-0.834,-0.466,-0.417,-4.94,-22.74,4.97,1785106394467.305
-0.836,-0.463,-0.399,-5.95,-23.35,2.9,1785106394480.558
-0.831,-0.46,-0.384,-7.35,-23.68,1.56,1785106394486.511
-0.827,-0.456,-0.369,-8.48,-23.99,0.37,1785106394496.496
-0.829,-0.459,-0.359,-9.09,-23.5,-1.56,1785106394506.982
-0.841,-0.466,-0.335,-9.0,-23.26,-4.49,1785106394517.491
-0.85,-0.474,-0.325,-6.99,-23.1,-6.93,1785106394530.6702
-0.863,-0.484,-0.313,-2.72,-22.55,-8.67,1785106394536.696
-0.872,-0.488,-0.29,2.9,-22.95,-10.28,1785106394546.799
-0.875,-0.481,-0.273,9.67,-23.68,-11.47,1785106394557.26
-0.873,-0.468,-0.265,17.27,-24.38,-11.63,1785106394570.5227
-0.871,-0.443,-0.257,23.62,-25.36,-11.02,1785106394576.556
-0.868,-0.416,-0.259,27.04,-26.55,-10.5,1785106394586.997
-0.86,-0.401,-0.266,26.89,-27.71,-10.1,1785106394597.602
-0.857,-0.396,-0.27,23.74,-28.53,-10.1,1785106394610.871
-0.851,-0.395,-0.288,19.96,-29.08,-10.41,1785106394616.915
-0.859,-0.388,-0.284,14.47,-29.02,-10.41,1785106394627.327
-0.863,-0.392,-0.256,9.77,-29.73,-9.64,1785106394640.5662
-0.862,-0.389,-0.263,6.26,-31.31,-10.19,1785106394646.5752
-0.847,-0.376,-0.284,1.19,-31.86,-10.74,1785106394656.708
-0.884,-0.347,-0.282,-9.16,-32.5,-12.51,1785106394667.224
-0.87,-0.377,-0.271,-18.89,-30.49,-10.71,1785106394680.4778
-0.836,-0.375,-0.297,-26.31,-31.98,-11.87,1785106394686.583
-0.842,-0.358,-0.301,-34.61,-32.72,-12.76,1785106394696.9668
-0.852,-0.374,-0.304,-41.38,-32.53,-13.0,1785106394707.649
-0.855,-0.375,-0.3,-46.6,-33.57,-13.79,1785106394720.8882
-0.867,-0.394,-0.285,-48.52,-33.05,-13.31,1785106394726.969
-0.873,-0.414,-0.274,-45.5,-32.41,-13.21,1785106394737.605
-0.873,-0.399,-0.279,-42.3,-33.63,-14.47,1785106394750.5842
-0.861,-0.396,-0.292,-41.51,-33.54,-14.07,1785106394756.642
-0.867,-0.404,-0.307,-42.51,-32.72,-13.98,1785106394767.041
-0.874,-0.414,-0.289,-44.07,-32.17,-13.4,1785106394777.62
-0.874,-0.448,-0.292,-39.7,-32.78,-13.25,1785106394790.892
-0.88,-0.43,-0.319,-33.88,-35.52,-15.5,1785106394796.8792
-0.871,-0.4,-0.326,-32.23,-36.93,-16.02,1785106394807.356
-0.867,-0.382,-0.332,-35.0,-37.08,-15.9,1785106394820.6
