ax,ay,az,gx,gy,gz,timestamp_ms
-0.02,0.522,0.756,-2.72,42.45,-62.81,1784842175976.4731
-0.056,0.544,0.689,9.89,42.73,-61.95,1784842175977.244
-0.033,0.51,0.685,23.07,45.14,-60.3,1784842175977.904
-0.002,0.428,0.725,34.79,47.7,-58.26,1784842175978.485
0.015,0.33,0.733,40.25,50.23,-56.25,1784842175979.0598
0.029,0.241,0.76,33.6,53.29,-55.67,1784842175979.63
0.004,0.218,0.811,18.68,55.45,-55.3,1784842175980.214
-0.06,0.27,0.795,4.3,56.09,-55.64,1784842175980.788
-0.114,0.388,0.722,-3.08,56.92,-56.22,1784842175981.689
-0.136,0.497,0.648,-1.04,57.68,-55.97,1784842175982.293
-0.136,0.564,0.591,10.74,59.42,-56.55,1784842175982.892
-0.117,0.556,0.577,27.31,62.65,-56.31,1784842175983.49
-0.089,0.466,0.581,38.48,66.84,-53.68,1784842175984.072
-0.094,0.349,0.614,33.33,72.39,-47.85,1784842175984.665
-0.15,0.271,0.72,9.31,78.59,-38.7,1784842175985.2568
-0.196,0.235,0.842,-20.63,83.19,-28.35,1784842175985.852
-0.227,0.24,0.897,-47.06,86.31,-18.01,1784842175986.436
-0.249,0.266,0.885,-68.03,87.65,-8.97,1784842175987.026
-0.278,0.337,0.825,-81.82,87.01,-2.29,1784842175987.573
-0.283,0.412,0.725,-83.16,88.08,4.85,1784842175988.051
-0.274,0.438,0.646,-78.65,92.72,8.82,1784842175988.517
-0.268,0.413,0.671,-76.08,100.47,10.32,1784842175988.998
-0.334,0.377,0.743,-78.16,108.13,13.03,1784842175989.4778
-0.444,0.355,0.794,-85.85,116.46,18.16,1784842175989.955
-0.483,0.325,0.901,-97.78,124.82,24.05,1784842175990.429
-0.442,0.261,1.033,-104.74,128.45,26.76,1784842175990.924
-0.432,0.218,1.03,-102.24,127.57,25.94,1784842175991.411
-0.429,0.239,0.989,-97.9,126.53,26.15,1784842175991.8909
-0.38,0.273,1.03,-93.69,124.91,26.89,1784842175992.367
-0.355,0.301,1.061,-81.3,122.01,25.36,1784842175992.844
-0.403,0.337,1.031,-62.38,118.99,22.71,1784842175993.325
-0.44,0.361,0.999,-44.4,117.47,20.45,1784842175993.903
-0.431,0.343,1.023,-27.5,118.69,18.28,1784842175994.398
-0.461,0.273,1.042,-13.52,119.88,16.08,1784842175995.003
-0.517,0.189,1.071,-7.93,120.52,15.63,1784842175995.5032
-0.529,0.096,1.129,-9.06,121.1,16.39,1784842175996.158
-0.534,0.018,1.179,-9.03,119.75,15.23,1784842175996.681
-0.539,-0.001,1.14,-2.9,115.88,13.4,1784842175997.1562
-0.554,0.049,1.072,3.36,110.48,12.48,1784842175997.636
-0.576,0.117,1.056,6.44,106.97,10.77,1784842175998.112
-0.58,0.169,1.079,11.02,106.69,6.23,1784842175998.585
-0.574,0.179,1.113,18.65,108.04,0.18,1784842175999.072
-0.535,0.137,1.147,28.23,109.26,-5.62,1784842175999.4822
-0.456,0.056,1.209,36.99,109.2,-10.38,1784842175999.887
-0.362,-0.032,1.295,43.64,107.27,-15.56,1784842176000.8188
-0.32,-0.085,1.402,48.65,101.23,-21.94,1784842176001.8828
-0.344,-0.053,1.429,55.33,92.68,-30.46,1784842176002.521
-0.399,0.063,1.353,68.73,85.02,-39.89,1784842176002.9348
-0.433,0.19,1.293,86.55,80.29,-49.04,1784842176003.345
-0.45,0.28,1.267,106.23,74.92,-60.12,1784842176003.76
-0.501,0.336,1.277,123.42,68.79,-74.28,1784842176004.2131
-0.561,0.296,1.286,134.62,61.8,-81.42,1784842176004.639
-0.595,0.22,1.289,134.34,53.93,-78.95,1784842176005.075
-0.625,0.172,1.266,121.01,45.9,-70.53,1784842176006.777
-0.668,0.149,1.195,98.91,39.06,-58.32,1784842176007.206
-0.691,0.103,1.084,74.62,36.77,-43.98,1784842176007.633
-0.691,0.103,1.084,52.83,37.81,-31.8,1784842176008.065
-0.675,0.027,0.975,35.43,36.96,-21.61,1784842176008.493
-0.664,-0.056,0.908,17.85,33.23,-9.31,1784842176008.917
-0.657,-0.076,0.889,1.01,26.46,7.57,1784842176009.3289
-0.65,-0.004,0.9,-8.73,18.74,21.55,1784842176009.752
-0.648,0.116,0.907,-8.73,18.74,21.55,1784842176010.171
-0.634,0.223,0.904,-7.48,12.85,28.32,1784842176010.593
-0.618,0.288,0.902,3.91,8.3,28.57,1784842176010.961
-0.618,0.316,0.897,20.45,4.3,24.29,1784842176011.328
-0.621,0.311,0.889,37.57,-0.21,18.25,1784842176011.908
-0.621,0.279,0.875,51.91,-4.85,12.39,1784842176012.279
-0.625,0.238,0.846,61.13,-8.76,7.66,1784842176012.645
-0.626,0.2,0.811,64.46,-11.08,4.76,1784842176013.012
-0.623,0.177,0.778,63.45,-12.63,3.45,1784842176013.51
-0.624,0.161,0.741,58.96,-13.28,3.08,1784842176013.906
-0.635,0.149,0.713,50.63,-12.51,3.27,1784842176014.271
-0.644,0.154,0.712,38.91,-10.44,3.08,1784842176014.6338
-0.652,0.147,0.724,28.05,-7.97,3.23,1784842176014.9949
-0.654,0.156,0.708,21.82,-7.54,6.04,1784842176015.359
-0.662,0.186,0.693,17.03,-6.38,6.38,1784842176015.719
-0.671,0.206,0.677,14.62,-4.12,4.76,1784842176016.115
-0.681,0.222,0.665,14.74,-1.77,2.44,1784842176016.526
-0.68,0.235,0.666,16.42,0.64,-0.09,1784842176016.8882
-0.677,0.243,0.668,19.38,2.04,-3.14,1784842176017.247
-0.684,0.243,0.663,23.26,3.27,-6.53,1784842176017.6
-0.688,0.239,0.659,25.94,4.85,-9.58,1784842176017.965
-0.689,0.231,0.648,26.95,6.2,-12.09,1784842176018.327
-0.683,0.235,0.637,26.49,7.69,-14.34,1784842176018.686
-0.682,0.218,0.632,24.66,9.46,-16.45,1784842176019.053
-0.683,0.203,0.616,22.98,10.5,-15.23,1784842176019.426
-0.677,0.214,0.604,17.82,12.54,-15.14,1784842176019.794
-0.671,0.22,0.608,10.83,14.71,-15.75,1784842176020.156
-0.668,0.225,0.609,4.58,16.66,-15.96,1784842176020.521
-0.664,0.232,0.608,-1.34,18.59,-15.59,1784842176020.885
-0.662,0.239,0.611,-7.81,20.33,-14.98,1784842176021.2422
-0.661,0.248,0.618,-13.89,21.79,-14.25,1784842176021.61
-0.659,0.254,0.628,-19.26,22.83,-13.21,1784842176021.966
-0.66,0.262,0.631,-23.35,23.77,-12.18,1784842176022.3
-0.658,0.274,0.636,-25.88,24.57,-10.96,1784842176022.6099
-0.657,0.285,0.641,-26.67,24.9,-9.89,1784842176022.922
-0.664,0.288,0.638,-25.88,25.12,-8.94,1784842176023.2341
-0.672,0.285,0.636,-24.41,25.3,-8.03,1784842176023.556
-0.679,0.285,0.637,-22.71,25.64,-6.93,1784842176023.865
-0.686,0.282,0.645,-21.3,25.88,-5.71,1784842176024.181
-0.692,0.274,0.654,-20.57,25.79,-4.39,1784842176024.496
-0.699,0.266,0.653,-20.66,25.79,-2.93,1784842176024.807
-0.701,0.262,0.653,-22.25,25.42,-0.67,1784842176025.113
-0.708,0.263,0.658,-24.6,24.99,1.5,1784842176025.425
-0.72,0.266,0.669,-27.16,25.51,2.9,1784842176025.738
-0.724,0.265,0.68,-30.09,26.06,4.27,1784842176026.0479
-0.724,0.269,0.694,-33.23,25.33,6.13,1784842176026.357
-0.722,0.28,0.703,-35.71,24.57,7.75,1784842176026.668
-0.711,0.283,0.705,-37.17,24.08,9.03,1784842176026.978
-0.699,0.277,0.708,-38.48,22.98,10.96,1784842176027.3018
-0.69,0.273,0.711,-39.43,21.91,13.09,1784842176027.617
-0.681,0.269,0.704,-39.67,20.91,15.14,1784842176027.932
-0.674,0.259,0.695,-39.86,19.75,17.27,1784842176028.2878
-0.669,0.253,0.685,-40.47,18.56,19.93,1784842176028.602
-0.667,0.248,0.676,-41.44,17.67,22.74,1784842176028.956
-0.67,0.245,0.667,-42.51,16.36,25.57,1784842176029.382
-0.675,0.243,0.66,-43.46,15.11,28.38,1784842176030.05
-0.681,0.245,0.652,-44.34,14.07,30.98,1784842176030.386
-0.686,0.25,0.645,-44.77,12.88,33.42,1784842176030.7031
-0.692,0.251,0.636,-44.43,11.51,35.83,1784842176031.014
-0.696,0.254,0.629,-43.89,10.35,37.84,1784842176031.3262
-0.699,0.256,0.617,-42.73,9.43,39.43,1784842176031.6328
-0.702,0.256,0.603,-40.86,8.67,41.23,1784842176031.946
-0.711,0.257,0.584,-38.54,8.39,42.79,1784842176032.255
-0.721,0.258,0.57,-36.23,8.73,44.19,1784842176032.5662
-0.72,0.254,0.554,-34.76,9.67,45.26,1784842176032.885
-0.733,0.25,0.538,-34.49,10.96,46.6,1784842176033.205
-0.757,0.246,0.522,-35.92,12.57,48.1,1784842176033.523
-0.766,0.243,0.505,-39.49,14.59,50.23,1784842176033.8308
-0.771,0.239,0.491,-45.11,17.12,52.77,1784842176034.157
-0.777,0.235,0.483,-52.86,19.96,55.27,1784842176034.484
-0.776,0.252,0.489,-62.44,22.89,56.64,1784842176034.8052
-0.787,0.216,0.535,-72.12,24.78,58.78,1784842176035.1318
-0.8,0.192,0.547,-77.88,23.8,64.91,1784842176035.451
-0.806,0.223,0.541,-82.92,23.38,68.54,1784842176035.765
-0.8,0.257,0.545,-84.08,23.74,69.64,1784842176036.085
-0.798,0.276,0.531,-79.44,23.47,68.94,1784842176036.3992
-0.801,0.281,0.526,-72.27,22.98,67.05,1784842176036.713
-0.8,0.284,0.526,-63.94,22.64,63.97,1784842176037.029
-0.796,0.289,0.534,-54.54,22.31,60.76,1784842176037.412
-0.795,0.285,0.542,-44.62,21.24,57.8,1784842176037.7478
-0.801,0.265,0.545,-36.35,20.2,55.45,1784842176038.065
-0.801,0.241,0.545,-30.92,20.26,53.71,1784842176038.383
-0.805,0.219,0.535,-27.8,20.2,52.8,1784842176038.6912
-0.811,0.203,0.529,-26.15,20.45,52.1,1784842176039.0068
-0.811,0.195,0.53,-25.85,21.18,51.48,1784842176039.402
-0.802,0.191,0.53,-26.76,22.22,51.42,1784842176039.724
-0.795,0.187,0.548,-28.69,22.89,51.85,1784842176040.032
-0.795,0.185,0.565,-30.18,23.56,52.03,1784842176040.348
-0.802,0.182,0.565,-30.73,24.69,52.06,1784842176040.67
-0.812,0.177,0.563,-31.01,25.61,52.13,1784842176040.98
-0.816,0.172,0.569,-31.86,27.04,51.58,1784842176041.291
-0.802,0.159,0.576,-33.97,28.72,50.78,1784842176041.604
-0.792,0.149,0.574,-37.51,30.12,50.57,1784842176041.9167
-0.779,0.141,0.574,-42.63,32.29,51.42,1784842176042.2231
-0.764,0.136,0.57,-48.77,34.79,52.58,1784842176042.54
-0.755,0.139,0.573,-55.45,37.51,52.98,1784842176042.852
-0.743,0.14,0.592,-62.62,39.74,52.28,1784842176043.176
-0.738,0.148,0.61,-68.79,41.02,51.06,1784842176043.484
-0.73,0.165,0.615,-73.12,41.29,49.32,1784842176043.7979
-0.722,0.182,0.609,-75.5,41.02,46.97,1784842176044.113
-0.715,0.197,0.597,-76.11,40.47,43.98,1784842176044.4219
-0.71,0.206,0.583,-75.66,39.67,40.47,1784842176044.743
-0.708,0.216,0.571,-74.65,38.61,36.9,1784842176045.058
-0.709,0.223,0.563,-72.85,36.87,33.75,1784842176045.374
-0.714,0.227,0.559,-69.98,34.91,31.07,1784842176045.686
-0.727,0.228,0.558,-65.58,33.17,28.32,1784842176046.0059
-0.745,0.223,0.559,-60.64,31.59,26.37,1784842176046.34
-0.76,0.222,0.565,-56.37,30.06,25.21,1784842176046.9739
-0.78,0.225,0.563,-50.75,26.7,25.3,1784842176047.2952
-0.801,0.237,0.488,-19.87,9.34,7.51,1784842176047.852
-0.798,0.238,0.487,-18.77,9.0,6.71,1784842176048.159
-0.8,0.239,0.483,-17.18,8.42,5.98,1784842176048.46
-0.803,0.239,0.48,-15.59,8.0,5.52,1784842176048.762
-0.805,0.238,0.479,-14.04,7.72,5.25,1784842176049.0662
-0.81,0.24,0.477,-12.88,7.63,5.04,1784842176056.121
-0.816,0.244,0.47,-12.42,7.84,4.82,1784842176069.27
-0.821,0.247,0.473,-13.4,8.48,4.7,1784842176074.936
-0.819,0.246,0.482,-16.3,9.22,5.22,1784842176085.181
-0.814,0.25,0.484,-19.93,10.19,5.92,1784842176095.789
-0.806,0.26,0.482,-23.77,11.72,6.68,1784842176106.319
-0.801,0.272,0.483,-27.44,13.4,7.35,1784842176119.672
-0.794,0.295,0.481,-30.49,15.47,7.51,1784842176125.4111
-0.783,0.323,0.477,-34.61,17.12,7.42,1784842176135.8608
-0.776,0.349,0.453,-39.8,18.65,7.93,1784842176146.396
-0.76,0.348,0.439,-49.75,20.91,9.77,1784842176159.809
-0.738,0.361,0.448,-63.88,24.6,13.25,1784842176165.466
-0.73,0.414,0.468,-78.43,29.24,18.68,1784842176176.133
-0.716,0.494,0.491,-89.45,33.75,25.57,1784842176189.3198
-0.704,0.581,0.497,-94.39,37.11,34.36,1784842176195.297
-0.699,0.651,0.464,-94.76,39.52,43.82,1784842176205.7642
-0.688,0.725,0.385,-90.55,41.84,53.01,1784842176216.51
-0.675,0.834,0.319,-86.43,43.89,61.77,1784842176229.9011
-0.687,0.97,0.317,-87.77,44.89,70.07,1784842176235.878
-0.709,1.064,0.414,-95.49,45.69,79.62,1784842176246.3071
-0.736,1.054,0.509,-103.31,44.68,91.92,1784842176259.646
-0.724,1.006,0.577,-109.07,43.64,105.41,1784842176265.501
-0.679,0.978,0.63,-114.02,42.09,119.17,1784842176276.549
-0.656,0.972,0.655,-113.22,38.64,130.44,1784842176289.622
-0.661,0.971,0.647,-103.73,33.75,140.11,1784842176295.9749
-0.695,0.941,0.594,-89.33,29.69,150.94,1784842176306.578
-0.737,0.871,0.513,-76.36,28.44,163.67,1784842176319.767
-0.766,0.781,0.433,-70.68,29.69,176.27,1784842176325.7441
-0.791,0.705,0.369,-74.92,32.53,187.72,1784842176336.691
-0.788,0.655,0.297,-88.44,37.14,197.3,1784842176349.896
-0.788,0.655,0.297,-109.84,42.63,201.03,1784842176355.636
-0.827,0.601,0.24,-134.04,45.63,209.45,1784842176366.7031
-0.846,0.488,0.224,-160.07,46.94,217.51,1784842176380.1018
-0.844,0.424,0.245,-185.89,46.39,222.57,1784842176385.886
-0.847,0.401,0.27,-206.7,44.65,225.17,1784842176399.455
-0.871,0.419,0.274,-206.7,44.65,225.17,1784842176405.301
-0.908,0.453,0.31,-217.08,42.73,227.0,1784842176416.399
-0.866,0.417,0.37,-216.71,40.74,231.57,1784842176429.605
-0.828,0.363,0.396,-206.03,40.25,229.93,1784842176444.0051
-0.841,0.335,0.453,-187.14,39.98,222.66,1784842176447.275
-0.87,0.304,0.567,-169.07,39.67,216.38,1784842176459.871
-0.902,0.288,0.712,-155.64,34.79,209.72,1784842176465.579
-0.904,0.355,0.853,-144.11,23.65,202.83,1784842176476.986
-0.871,0.452,0.942,-133.03,10.68,192.82,1784842176490.22
-0.86,0.466,0.899,-127.26,4.12,172.89,1784842176495.945
-0.862,0.375,0.838,-133.98,3.69,148.29,1784842176509.5679
-0.848,0.331,0.802,-158.6,5.46,129.55,1784842176515.3123
-0.743,0.46,0.853,-196.94,5.83,118.78,1784842176526.125
-0.623,0.72,0.906,-210.91,0.12,107.52,1784842176536.772
-0.574,0.884,0.945,-185.71,-9.74,89.51,1784842176550.22
-0.6,0.837,0.998,-141.94,-20.75,68.12,1784842176555.8
-0.665,0.681,1.062,-107.79,-31.71,51.39,1784842176566.693
-0.668,0.607,1.111,-90.67,-41.81,44.34,1784842176580.023
-0.604,0.631,1.144,-88.63,-50.63,42.63,1784842176586.0159
-0.549,0.713,1.185,-90.21,-60.58,41.26,1784842176596.263
-0.526,0.757,1.2,-84.32,-71.29,42.18,1784842176609.8171
-0.524,0.734,1.177,-74.25,-80.57,47.43,1784842176615.583
-0.536,0.692,1.178,-70.35,-87.41,53.68,1784842176626.1172
-0.52,0.655,1.182,-72.33,-93.48,62.04,1784842176636.78
-0.516,0.649,1.217,-78.4,-101.17,69.0,1784842176650.136
-0.501,0.66,1.257,-84.72,-110.72,72.79,1784842176656.001
-0.485,0.713,1.28,-84.2,-122.75,73.55,1784842176666.6938
-0.46,0.796,1.306,-74.25,-137.76,74.5,1784842176680.0261
-0.457,0.926,1.264,-52.49,-152.47,74.5,1784842176686.033
-0.528,1.02,1.042,-23.5,-165.01,75.66,1784842176696.7412
-0.588,1.028,1.086,0.76,-166.14,76.33,1784842176710.0632
-0.543,1.01,1.273,32.04,-171.61,85.09,1784842176715.9
-0.561,0.86,1.14,63.63,-176.49,101.08,1784842176726.816
-0.645,0.739,1.093,71.6,-173.77,107.73,1784842176739.864
-0.679,0.632,1.076,64.27,-167.36,110.93,1784842176745.823
-0.601,0.5,1.024,53.16,-165.47,120.21,1784842176759.4612
-0.49,0.382,0.968,36.65,-161.14,123.97,1784842176765.179
-0.427,0.311,0.932,13.79,-152.99,117.71,1784842176776.4321
-0.373,0.289,0.921,-11.2,-142.8,109.5,1784842176789.585
-0.319,0.298,0.899,-31.25,-133.79,101.87,1784842176795.469
-0.277,0.284,0.864,-45.78,-126.56,94.7,1784842176806.347
-0.243,0.25,0.832,-57.1,-120.0,87.22,1784842176819.647
-0.202,0.2,0.834,-67.23,-112.25,78.74,1784842176825.6372
-0.177,0.147,0.835,-78.28,-105.78,68.88,1784842176836.306
-0.156,0.125,0.811,-88.66,-98.94,55.18,1784842176849.709
-0.127,0.121,0.802,-97.63,-92.68,40.35,1784842176855.683
-0.14,0.128,0.8,-103.82,-88.44,26.67,1784842176866.177
-0.179,0.201,0.773,-105.17,-86.49,13.25,1784842176879.543
-0.195,0.317,0.731,-101.32,-82.71,-0.12,1784842176885.502
-0.209,0.402,0.688,-88.69,-78.65,-13.34,1784842176895.878
-0.207,0.428,0.642,-68.27,-75.26,-24.84,1784842176906.517
-0.202,0.416,0.602,-47.15,-70.86,-35.74,1784842176919.8552
-0.203,0.377,0.594,-30.18,-66.19,-45.23,1784842176925.954
-0.199,0.334,0.582,-16.85,-63.88,-51.42,1784842176936.249
-0.156,0.291,0.568,-7.72,-62.84,-54.08,1784842176949.654
-0.139,0.258,0.533,-2.32,-60.79,-55.48,1784842176955.2651
-0.138,0.233,0.509,-0.37,-58.38,-55.45,1784842176965.823
-0.13,0.218,0.493,-0.85,-56.0,-53.87,1784842176976.429
-0.113,0.203,0.497,-3.23,-53.59,-49.38,1784842176989.4568
-0.096,0.207,0.534,-9.31,-51.0,-44.77,1784842176995.0989
-0.083,0.244,0.566,-17.03,-48.1,-40.89,1784842177009.4521
-0.076,0.297,0.559,-20.97,-46.05,-36.93,1784842177016.294
-0.042,0.334,0.541,-20.57,-44.47,-32.17,1784842177029.4622
-0.01,0.367,0.55,-17.09,-39.61,-29.45,1784842177035.209
0.017,0.333,0.58,-10.28,-36.59,-23.68,1784842177045.925
0.029,0.245,0.587,-3.6,-37.57,-15.05,1784842177056.671
0.017,0.163,0.582,-2.66,-39.19,-6.1,1784842177069.723
0.028,0.075,0.584,-6.99,-39.86,3.54,1784842177075.398
0.043,0.007,0.573,-13.67,-38.21,9.7,1784842177085.692
0.039,-0.025,0.563,-21.94,-34.03,11.14,1784842177096.4292
0.062,-0.059,0.577,-29.76,-29.42,11.69,1784842177109.7268
0.07,-0.11,0.586,-36.9,-26.55,13.12,1784842177115.4128
0.069,-0.108,0.605,-42.05,-23.74,12.76,1784842177126.2058
0.092,-0.065,0.614,-39.67,-20.36,12.67,1784842177139.404
0.118,-0.043,0.626,-31.5,-18.49,11.35,1784842177145.254
0.162,-0.018,0.671,-19.81,-16.6,9.46,1784842177155.752
0.19,-0.01,0.707,-4.39,-16.3,5.71,1784842177166.2349
0.185,-0.044,0.718,8.85,-16.3,-0.58,1784842177179.6301
0.203,-0.095,0.735,21.3,-16.05,-9.98,1784842177185.469
0.212,-0.179,0.765,28.47,-15.44,-19.41,1784842177195.838
0.186,-0.242,0.805,28.38,-14.37,-30.09,1784842177206.424
0.164,-0.27,0.85,23.77,-12.6,-41.87,1784842177219.761
0.157,-0.267,0.888,16.69,-9.8,-52.77,1784842177225.5737
0.157,-0.24,0.919,8.48,-7.05,-62.47,1784842177235.88
0.164,-0.201,0.963,-0.89,-4.73,-70.99,1784842177246.404
0.153,-0.157,1.004,-10.77,-3.72,-78.62,1784842177259.737
0.142,-0.108,1.036,-21.49,-2.5,-85.48,1784842177265.6191
0.145,-0.055,1.081,-32.01,-1.37,-91.01,1784842177275.991
0.148,-0.018,1.111,-41.75,-0.58,-96.13,1784842177286.3738
0.148,0.024,1.129,-50.29,1.01,-100.8,1784842177299.77
0.14,0.069,1.153,-55.88,1.04,-103.37,1784842177305.661
0.131,0.106,1.163,-58.66,-2.32,-104.28,1784842177316.171
0.121,0.131,1.177,-59.54,-5.4,-104.86,1784842177330.772
0.098,0.137,1.193,-57.44,-7.51,-104.74,1784842177339.99
0.102,0.141,1.206,-54.9,-9.61,-105.32,1784842177345.73
0.113,0.129,1.212,-53.35,-12.36,-107.0,1784842177356.542
0.094,0.115,1.196,-52.86,-15.66,-110.08,1784842177369.887
0.084,0.118,1.198,-54.29,-18.37,-114.47,1784842177375.715
0.086,0.114,1.213,-55.12,-20.54,-118.84,1784842177386.5652
0.059,0.092,1.208,-56.06,-22.61,-122.81,1784842177399.752
0.04,0.094,1.197,-58.75,-23.9,-126.96,1784842177405.4412
0.047,0.106,1.194,-61.28,-25.45,-130.1,1784842177416.4412
-0.008,0.117,1.176,-62.65,-28.44,-133.21,1784842177429.888
-0.058,0.17,1.154,-63.63,-30.21,-137.24,1784842177436.237
-0.029,0.235,1.147,-62.72,-30.92,-140.87,1784842177446.4487
-0.012,0.276,1.15,-58.05,-33.08,-143.41,1784842177459.6409
-0.021,0.305,1.155,-51.97,-36.13,-145.15,1784842177465.397
-0.02,0.329,1.151,-46.72,-38.73,-146.15,1784842177476.401
-0.003,0.333,1.146,-41.08,-41.26,-146.34,1784842177489.759
-0.007,0.292,1.146,-35.55,-44.8,-145.39,1784842177495.421
-0.052,0.252,1.127,-33.72,-47.55,-144.84,1784842177506.414
-0.059,0.245,1.105,-35.8,-48.52,-144.66,1784842177519.434
-0.048,0.256,1.09,-38.03,-49.62,-145.15,1784842177525.212
-0.048,0.28,1.091,-38.82,-51.12,-145.85,1784842177536.1272
-0.077,0.314,1.086,-39.98,-52.25,-147.86,1784842177549.542
-0.097,0.376,1.081,-40.56,-52.58,-150.49,1784842177555.265
-0.102,0.417,1.085,-38.54,-52.95,-152.13,1784842177566.253
-0.114,0.428,1.059,-33.81,-53.77,-152.62,1784842177579.5168
-0.111,0.439,1.014,-28.5,-55.39,-152.04,1784842177585.291
-0.087,0.45,0.994,-23.5,-56.79,-151.25,1784842177596.1357
-0.057,0.456,1.004,-19.32,-57.68,-149.42,1784842177609.465
-0.039,0.45,1.018,-17.52,-59.05,-147.19,1784842177615.274
-0.059,0.439,1.011,-18.92,-60.64,-145.97,1784842177626.5227
-0.064,0.433,0.993,-22.52,-61.59,-144.57,1784842177639.426
-0.064,0.433,0.993,-26.18,-61.8,-143.07,1784842177645.191
-0.067,0.431,0.958,-28.96,-61.53,-141.79,1784842177656.102
-0.081,0.433,0.932,-31.46,-60.64,-139.93,1784842177669.4082
-0.077,0.423,0.933,-33.97,-59.97,-137.64,1784842177675.316
-0.072,0.412,0.925,-33.97,-59.97,-137.64,1784842177686.092
-0.076,0.411,0.898,-36.56,-59.48,-135.78,1784842177699.492
-0.072,0.428,0.885,-39.58,-58.38,-135.01,1784842177705.245
-0.08,0.438,0.883,-42.18,-57.44,-134.62,1784842177716.1392
-0.079,0.443,0.885,-43.52,-56.03,-134.65,1784842177729.394
-0.076,0.447,0.887,-44.31,-54.38,-134.83,1784842177735.019
-0.073,0.451,0.89,-44.62,-53.25,-134.4,1784842177746.065
-0.04,0.463,0.897,-44.37,-52.67,-133.4,1784842177759.415
-0.027,0.465,0.899,-44.04,-52.28,-133.09,1784842177765.2512
-0.041,0.461,0.881,-43.76,-51.88,-133.58,1784842177776.079
-0.034,0.469,0.896,-43.09,-50.39,-133.3,1784842177789.263
-0.041,0.455,0.91,-42.15,-49.71,-132.48,1784842177795.1912
-0.051,0.452,0.909,-42.24,-49.47,-132.08,1784842177805.998
-0.053,0.47,0.893,-43.31,-49.01,-131.72,1784842177816.729
-0.051,0.495,0.872,-43.79,-48.28,-130.86,1784842177830.0413
-0.021,0.529,0.885,-41.84,-46.48,-130.01,1784842177835.868
0.01,0.522,0.911,-39.19,-46.17,-128.45,1784842177846.74
0.008,0.516,0.924,-38.42,-46.57,-127.38,1784842177860.0261
0.001,0.541,0.927,-38.91,-46.97,-126.1,1784842177865.703
-0.001,0.556,0.902,-38.64,-47.36,-124.64,1784842177876.918
0.013,0.582,0.874,-37.51,-46.27,-123.63,1784842177890.0781
0.042,0.62,0.891,-34.73,-45.05,-122.14,1784842177896.1333
0.052,0.616,0.904,-31.19,-44.62,-120.46,1784842177906.792
0.065,0.591,0.907,-28.66,-43.98,-118.99,1784842177920.0198
0.082,0.575,0.92,-27.47,-43.95,-116.28,1784842177926.004
0.097,0.549,0.921,-27.8,-44.28,-113.04,1784842177936.734
0.133,0.522,0.92,-29.51,-43.7,-110.05,1784842177950.013
0.156,0.515,0.948,-31.95,-43.31,-106.69,1784842177956.0098
0.131,0.493,0.965,-35.34,-43.89,-103.64,1784842177966.767
0.117,0.468,0.94,-39.49,-43.55,-101.41,1784842177980.104
0.147,0.453,0.918,-42.3,-41.99,-99.43,1784842177985.9563
0.156,0.441,0.934,-43.82,-41.11,-97.54,1784842177996.585
0.131,0.431,0.945,-45.35,-40.86,-96.35,1784842178009.871
0.125,0.426,0.938,-48.16,-39.74,-96.19,1784842178015.541
0.129,0.427,0.939,-50.84,-38.36,-95.98,1784842178026.546
0.127,0.437,0.94,-52.31,-37.75,-95.68,1784842178036.799
0.136,0.439,0.948,-52.37,-37.39,-94.91,1784842178050.0413
0.124,0.427,0.935,-51.39,-37.81,-94.09,1784842178065.208
0.132,0.409,0.922,-50.08,-37.81,-93.72,1784842178066.33
0.126,0.376,0.913,-47.94,-38.79,-93.72,1784842178079.657
0.125,0.357,0.904,-45.41,-39.31,-94.55,1784842178085.349
0.158,0.353,0.937,-42.48,-39.77,-96.01,1784842178096.1558
0.147,0.358,0.963,-38.61,-42.15,-98.97,1784842178106.872
0.143,0.375,0.951,-33.54,-44.77,-103.55,1784842178120.29
0.146,0.414,0.928,-26.58,-47.55,-108.37,1784842178126.1592
0.119,0.479,0.882,-17.18,-51.12,-112.58,1784842178136.987
0.109,0.527,0.827,-6.87,-53.9,-115.12,1784842178150.3281
0.157,0.556,0.838,8.58,-56.25,-114.93,1784842178156.1191
0.176,0.554,0.868,26.28,-59.08,-114.66,1784842178166.775
0.179,0.528,0.898,37.2,-60.95,-114.6,1784842178180.165
0.187,0.486,0.907,41.69,-62.32,-113.1,1784842178186.1018
0.18,0.456,0.879,41.2,-62.81,-111.55,1784842178196.558
0.197,0.447,0.86,37.05,-61.92,-110.14,1784842178210.119
0.227,0.45,0.865,31.8,-61.19,-107.67,1784842178215.7178
0.231,0.449,0.862,26.83,-61.1,-104.68,1784842178226.801
0.234,0.441,0.842,21.67,-59.76,-101.93,1784842178240.0078
0.247,0.427,0.834,15.5,-58.35,-98.79,1784842178246.208
0.249,0.423,0.833,8.24,-56.95,-95.65,1784842178256.38
0.234,0.425,0.84,-0.06,-54.81,-93.33,1784842178266.8958
0.222,0.405,0.843,-8.94,-52.67,-91.13,1784842178280.1863
0.211,0.397,0.84,-18.92,-50.94,-89.14,1784842178286.102
0.193,0.424,0.834,-29.79,-49.13,-87.34,1784842178296.4812
0.186,0.457,0.824,-38.94,-46.51,-84.96,1784842178309.814
0.198,0.459,0.811,-44.65,-43.98,-82.31,1784842178315.619
0.205,0.445,0.788,-48.55,-41.54,-80.2,1784842178326.376
0.187,0.455,0.797,-53.47,-39.43,-77.76,1784842178336.937
0.16,0.48,0.804,-58.23,-37.42,-75.23,1784842178355.126
0.148,0.498,0.792,-62.17,-33.88,-74.16,1784842178355.753
0.121,0.511,0.786,-65.25,-29.79,-74.47,1784842178366.216
0.085,0.523,0.777,-67.38,-27.34,-73.73,1784842178379.425
0.07,0.563,0.745,-69.12,-24.81,-72.6,1784842178385.255
0.111,0.62,0.712,-68.03,-21.09,-71.32,1784842178396.01
0.171,0.669,0.729,-61.8,-18.98,-69.43,1784842178406.827
0.198,0.719,0.752,-51.15,-17.98,-69.52,1784842178420.4668
0.228,0.713,0.779,-40.01,-19.62,-69.98,1784842178428.4302
0.247,0.704,0.787,-29.94,-21.49,-71.75,1784842178436.474
0.254,0.72,0.772,-19.9,-23.32,-73.18,1784842178449.686
0.268,0.717,0.778,-8.58,-25.03,-73.09,1784842178455.435
0.272,0.672,0.762,3.48,-26.43,-73.31,1784842178465.966
0.318,0.58,0.746,12.48,-28.05,-70.99,1784842178476.7659
0.341,0.522,0.764,14.68,-28.84,-68.24,1784842178490.0352
0.341,0.515,0.793,12.63,-27.95,-65.65,1784842178495.783
0.363,0.506,0.812,9.8,-27.92,-62.5,1784842178506.311
0.355,0.492,0.811,4.91,-28.23,-61.43,1784842178521.7102
0.356,0.483,0.801,-1.01,-29.02,-59.6,1784842178530.2751
0.335,0.479,0.779,-8.09,-27.19,-58.84,1784842178535.886
0.305,0.468,0.756,-15.96,-25.45,-57.16,1784842178546.308
0.299,0.491,0.74,-23.32,-21.76,-56.31,1784842178559.666
0.308,0.514,0.72,-28.66,-22.0,-52.95,1784842178565.301
0.316,0.568,0.702,-30.98,-18.62,-52.13,1784842178576.938
0.259,0.588,0.682,-32.07,-15.47,-51.79,1784842178586.577
0.267,0.582,0.665,-31.19,-15.11,-47.12,1784842178600.0168
0.296,0.62,0.685,-31.89,-9.98,-47.76,1784842178605.727
0.323,0.613,0.705,-31.43,-5.83,-46.72,1784842178616.1877
0.329,0.623,0.711,-30.4,-5.28,-45.11,1784842178626.84
0.33,0.638,0.726,-33.66,-1.5,-43.55,1784842178640.0828
0.333,0.657,0.73,-37.54,-0.55,-39.34,1784842178645.741
0.311,0.685,0.729,-38.97,-0.49,-34.91,1784842178656.1338
0.307,0.688,0.74,-38.7,2.53,-31.95,1784842178666.699
0.313,0.672,0.755,-38.27,4.21,-27.62,1784842178680.021
0.342,0.662,0.775,-39.4,5.71,-23.19,1784842178685.7559
0.351,0.651,0.784,-40.59,6.5,-20.2,1784842178696.1028
0.347,0.633,0.771,-39.95,5.62,-17.27,1784842178706.733
0.356,0.619,0.757,-37.81,4.64,-13.82,1784842178719.9
0.342,0.617,0.739,-34.27,4.61,-11.6,1784842178725.8071
0.326,0.608,0.724,-28.11,4.61,-9.67,1784842178736.0298
0.304,0.587,0.708,-19.87,4.33,-8.64,1784842178746.535
0.268,0.557,0.687,-10.65,3.66,-8.15,1784842178759.895
0.215,0.528,0.65,-1.89,3.91,-8.64,1784842178765.4778
0.175,0.508,0.59,6.9,5.86,-9.25,1784842178775.6072
0.185,0.478,0.553,18.16,8.97,-9.25,1784842178785.975
0.188,0.419,0.549,29.69,11.05,-9.03,1784842178796.598
0.145,0.353,0.534,38.61,12.88,-10.35,1784842178809.9312
0.099,0.288,0.504,44.34,15.17,-12.02,1784842178815.4248
0.06,0.235,0.469,48.34,19.2,-14.37,1784842178826.383
0.021,0.185,0.425,50.26,24.45,-17.73,1784842178839.4082
-0.012,0.107,0.376,49.65,30.58,-21.55,1784842178845.044
-0.042,-0.003,0.349,45.53,38.33,-26.09,1784842178855.8508
-0.098,-0.122,0.322,37.11,47.0,-31.5,1784842178866.529
-0.152,-0.232,0.292,18.04,56.7,-37.14,1784842178879.955
-0.196,-0.255,0.28,-9.8,67.81,-42.21,1784842178885.6099
-0.202,-0.18,0.266,-37.02,80.94,-45.69,1784842178896.302
-0.115,-0.126,0.372,-63.84,95.65,-50.45,1784842178909.547
-0.073,-0.075,0.546,-86.79,106.11,-56.34,1784842178915.4172
-0.073,-0.075,0.546,-105.41,112.03,-59.45,1784842178926.364
-0.153,0.048,0.659,-118.87,118.41,-58.72,1784842178939.492
-0.18,0.189,0.772,-123.36,122.9,-57.83,1784842178945.364
-0.182,0.299,0.849,-117.25,124.52,-58.11,1784842178956.413
-0.217,0.393,0.808,-103.34,125.43,-57.22,1784842178969.8088
-0.21,0.45,0.754,-103.34,125.43,-57.22,1784842178975.6218
