ax,ay,az,gx,gy,gz,timestamp_ms
-0.904,-0.34,-0.223,-17.37,-3.81,-1.53,1785106137880.3752
-0.906,-0.346,-0.219,-17.58,-3.05,-1.01,1785106137902.48
-0.901,-0.35,-0.215,-17.06,-2.35,-1.04,1785106137903.033
-0.897,-0.35,-0.21,-16.14,-1.13,-0.76,1785106137903.526
-0.895,-0.351,-0.207,-14.5,-0.03,-0.31,1785106137904.017
-0.901,-0.348,-0.208,-12.7,0.76,0.0,1785106137904.4932
-0.904,-0.341,-0.212,-11.69,1.56,-0.03,1785106137904.9622
-0.898,-0.343,-0.213,-11.23,2.96,-0.09,1785106137905.4429
-0.898,-0.345,-0.212,-10.41,4.46,-0.12,1785106137905.9192
-0.898,-0.344,-0.202,-8.94,4.82,-0.06,1785106137906.373
-0.899,-0.349,-0.198,-6.56,4.97,0.18,1785106137906.791
-0.892,-0.35,-0.192,-4.24,5.01,0.67,1785106137907.193
-0.892,-0.348,-0.191,-2.62,4.79,1.22,1785106137907.593
-0.896,-0.339,-0.192,-2.66,4.94,1.5,1785106137907.9858
-0.902,-0.336,-0.185,-3.91,5.28,2.11,1785106137908.3818
-0.902,-0.334,-0.186,-4.43,5.8,2.23,1785106137908.7842
-0.901,-0.328,-0.185,-5.68,6.13,2.11,1785106137909.19
-0.9,-0.328,-0.182,-7.6,6.56,2.41,1785106137909.5837
-0.897,-0.33,-0.179,-8.64,6.59,2.53,1785106137909.9883
-0.902,-0.34,-0.175,-8.58,6.68,2.26,1785106137910.3958
-0.899,-0.346,-0.165,-7.81,6.53,2.17,1785106137910.792
-0.9,-0.345,-0.158,-5.68,6.16,2.11,1785106137911.1848
-0.9,-0.338,-0.16,-3.27,5.46,2.23,1785106137911.5952
-0.897,-0.334,-0.172,-1.1,5.13,2.11,1785106137912.0698
-0.906,-0.334,-0.177,0.4,5.49,1.53,1785106137912.4858
-0.905,-0.339,-0.178,1.8,5.07,1.43,1785106137912.8901
-0.9,-0.344,-0.182,3.14,4.61,1.16,1785106137913.29
-0.904,-0.345,-0.184,3.94,4.24,0.98,1785106137913.666
-0.906,-0.342,-0.186,4.88,3.42,1.34,1785106137914.055
-0.905,-0.33,-0.194,5.46,2.81,1.65,1785106137914.423
-0.904,-0.319,-0.204,4.61,2.11,0.92,1785106137914.764
-0.904,-0.319,-0.212,2.23,1.77,0.03,1785106137915.091
-0.906,-0.324,-0.212,-0.98,1.8,-0.67,1785106137915.4282
-0.907,-0.329,-0.214,-3.08,1.89,-0.92,1785106137915.791
-0.904,-0.338,-0.229,-3.88,2.11,-1.13,1785106137916.136
-0.905,-0.337,-0.237,-4.15,2.5,-1.43,1785106137916.477
-0.905,-0.337,-0.237,-3.63,2.72,-1.5,1785106137916.864
-0.902,-0.335,-0.232,-2.81,2.87,-1.68,1785106137917.2007
-0.899,-0.337,-0.224,-2.11,2.87,-2.08,1785106137917.55
-0.896,-0.343,-0.215,-0.52,2.96,-2.47,1785106137917.8938
-0.896,-0.352,-0.213,-0.52,2.96,-2.47,1785106137918.25
-0.9,-0.355,-0.217,1.92,3.3,-2.72,1785106137918.5789
-0.901,-0.353,-0.225,4.33,3.17,-2.38,1785106137918.913
-0.9,-0.344,-0.237,6.29,3.11,-2.08,1785106137919.2488
-0.902,-0.333,-0.243,6.87,2.99,-1.95,1785106137919.583
-0.901,-0.327,-0.244,5.86,2.87,-1.83,1785106137919.9119
-0.898,-0.325,-0.241,3.54,2.87,-1.83,1785106137920.2659
-0.899,-0.326,-0.24,0.98,2.99,-1.8,1785106137920.6028
-0.902,-0.329,-0.232,-1.31,2.96,-1.59,1785106137920.9521
-0.902,-0.335,-0.229,-2.72,2.75,-1.5,1785106137921.293
-0.903,-0.339,-0.226,-3.75,2.84,-1.34,1785106137921.6309
-0.905,-0.338,-0.225,-4.73,2.66,-1.01,1785106137921.965
-0.901,-0.333,-0.221,-5.65,2.41,-1.16,1785106137922.2778
-0.897,-0.332,-0.217,-6.81,2.41,-1.37,1785106137922.581
-0.895,-0.334,-0.211,-7.32,2.2,-1.53,1785106137922.9077
-0.892,-0.337,-0.209,-7.14,1.89,-1.74,1785106137923.2021
-0.89,-0.344,-0.205,-6.53,1.68,-2.11,1785106137923.505
-0.888,-0.347,-0.207,-5.4,1.53,-2.35,1785106137923.8037
-0.886,-0.35,-0.21,-3.33,1.43,-2.17,1785106137924.0962
-0.885,-0.35,-0.213,-0.98,1.37,-2.17,1785106137924.3909
-0.884,-0.345,-0.215,0.98,1.43,-1.92,1785106137924.69
-0.885,-0.337,-0.212,1.8,1.22,-1.77,1785106137924.9868
-0.884,-0.332,-0.211,1.92,1.04,-1.43,1785106137925.281
-0.883,-0.334,-0.214,1.28,1.07,-1.25,1785106137925.58
-0.885,-0.337,-0.213,0.09,1.04,-1.28,1785106137925.881
-0.885,-0.338,-0.213,-0.85,0.82,-1.28,1785106137926.1802
-0.888,-0.333,-0.211,-1.83,0.55,-1.37,1785106137926.494
-0.892,-0.332,-0.21,-2.9,0.27,-1.4,1785106137926.791
-0.896,-0.334,-0.207,-4.18,0.12,-1.4,1785106137927.105
-0.894,-0.333,-0.202,-5.19,-0.31,-1.4,1785106137927.405
-0.899,-0.337,-0.198,-5.34,-0.79,-1.25,1785106137927.708
-0.897,-0.338,-0.199,-4.76,-1.25,-0.76,1785106137928.0132
-0.899,-0.34,-0.2,-3.97,-1.89,-0.12,1785106137928.308
-0.906,-0.336,-0.199,-3.85,-1.95,0.0,1785106137928.614
-0.905,-0.337,-0.195,-4.33,-1.65,0.24,1785106137928.92
-0.905,-0.339,-0.191,-4.76,-1.68,0.61,1785106137929.217
-0.909,-0.331,-0.191,-5.16,-1.77,0.79,1785106137929.5293
-0.909,-0.322,-0.197,-5.25,-2.11,0.21,1785106137929.831
-0.907,-0.322,-0.201,-6.04,-2.41,-0.46,1785106137930.114
-0.904,-0.329,-0.206,-8.21,-2.35,-0.4,1785106137930.399
-0.903,-0.339,-0.201,-9.25,-2.14,-0.55,1785106137930.6738
-0.902,-0.347,-0.199,-8.58,-2.5,-0.73,1785106137930.969
-0.896,-0.346,-0.2,-7.2,-2.93,-0.82,1785106137931.2388
-0.892,-0.342,-0.199,-5.92,-3.11,-0.76,1785106137931.54
-0.891,-0.34,-0.196,-5.04,-3.2,-0.73,1785106137931.8708
-0.886,-0.338,-0.193,-4.58,-3.36,-0.95,1785106137932.189
-0.882,-0.34,-0.194,-4.09,-3.27,-1.31,1785106137932.467
-0.884,-0.343,-0.198,-3.42,-3.23,-1.95,1785106137932.763
-0.885,-0.346,-0.201,-2.66,-3.33,-2.2,1785106137933.054
-0.885,-0.348,-0.208,-2.01,-3.14,-2.38,1785106137933.3298
-0.889,-0.349,-0.209,-1.53,-2.9,-2.47,1785106137933.609
-0.893,-0.349,-0.211,-1.25,-2.78,-2.26,1785106137933.897
-0.898,-0.348,-0.212,-0.85,-2.53,-2.2,1785106137934.169
-0.901,-0.351,-0.211,-0.34,-2.17,-2.17,1785106137934.4648
-0.906,-0.353,-0.209,0.24,-1.8,-1.74,1785106137934.7488
-0.907,-0.354,-0.209,0.95,-1.5,-1.31,1785106137935.0469
-0.906,-0.354,-0.209,1.46,-1.19,-1.31,1785106137935.3398
-0.908,-0.355,-0.214,1.89,-0.79,-1.22,1785106137935.6238
-0.906,-0.354,-0.216,1.92,-0.46,-0.98,1785106137935.9282
-0.907,-0.357,-0.221,1.83,-0.21,-0.95,1785106137936.1821
-0.909,-0.356,-0.222,1.53,0.0,-0.92,1785106137936.449
-0.904,-0.353,-0.221,0.92,-0.21,-0.7,1785106137936.721
-0.899,-0.35,-0.223,-0.18,-0.21,-0.82,1785106137936.985
-0.9,-0.349,-0.224,-1.19,-0.24,-1.01,1785106137937.242
-0.9,-0.351,-0.221,-2.66,-0.21,-1.07,1785106137937.512
-0.899,-0.351,-0.219,-3.85,-0.37,-1.19,1785106137937.781
-0.896,-0.351,-0.22,-4.61,-0.64,-1.28,1785106137938.041
-0.891,-0.349,-0.22,-5.1,-0.76,-1.22,1785106137938.3108
-0.889,-0.344,-0.217,-5.77,-0.82,-1.22,1785106137938.577
-0.885,-0.344,-0.219,-6.29,-0.82,-1.31,1785106137938.835
-0.885,-0.345,-0.216,-6.78,-0.7,-1.46,1785106137939.095
-0.883,-0.348,-0.212,-6.99,-0.55,-1.5,1785106137939.362
-0.885,-0.348,-0.213,-6.68,-0.37,-1.4,1785106137939.627
-0.888,-0.348,-0.209,-5.95,-0.34,-1.34,1785106137939.88
-0.888,-0.344,-0.211,-5.22,-0.27,-1.22,1785106137940.163
-0.888,-0.344,-0.212,-4.67,-0.31,-1.13,1785106137940.419
-0.891,-0.341,-0.216,-4.73,-0.37,-0.98,1785106137940.671
-0.893,-0.337,-0.22,-5.55,-0.27,-0.82,1785106137940.9302
-0.896,-0.336,-0.223,-6.93,-0.27,-0.98,1785106137941.19
-0.899,-0.338,-0.226,-8.58,-0.18,-1.01,1785106137941.4458
-0.901,-0.341,-0.229,-10.16,-0.18,-1.07,1785106137941.7112
-0.899,-0.344,-0.231,-11.23,-0.18,-1.16,1785106137941.958
-0.9,-0.34,-0.23,-11.63,-0.43,-1.25,1785106137942.2239
-0.901,-0.339,-0.231,-11.81,-0.7,-1.28,1785106137942.467
-0.898,-0.341,-0.234,-12.12,-0.76,-1.34,1785106137942.7239
-0.896,-0.34,-0.236,-12.6,-1.07,-1.56,1785106137942.971
-0.895,-0.342,-0.24,-13.03,-1.04,-1.86,1785106137943.236
-0.896,-0.342,-0.238,-13.09,-1.01,-2.14,1785106137943.4878
-0.894,-0.343,-0.237,-12.85,-1.31,-2.26,1785106137943.742
-0.893,-0.343,-0.242,-12.3,-1.4,-2.44,1785106137943.9858
-0.891,-0.34,-0.246,-11.69,-1.25,-2.47,1785106137944.226
-0.888,-0.339,-0.25,-11.54,-0.92,-2.62,1785106137944.4758
-0.885,-0.336,-0.256,-11.63,-0.89,-2.75,1785106137944.728
-0.884,-0.333,-0.254,-11.75,-0.85,-3.05,1785106137944.97
-0.886,-0.335,-0.254,-11.75,-0.73,-3.33,1785106137945.219
-0.887,-0.337,-0.258,-11.57,-0.61,-3.14,1785106137945.462
-0.886,-0.336,-0.264,-10.96,-0.34,-3.2,1785106137945.7158
-0.888,-0.337,-0.269,-10.53,0.09,-3.39,1785106137945.958
-0.893,-0.335,-0.269,-10.65,0.55,-3.48,1785106137946.2058
-0.899,-0.335,-0.271,-11.35,1.04,-3.36,1785106137946.454
-0.897,-0.336,-0.272,-12.45,1.65,-3.39,1785106137946.7002
-0.893,-0.337,-0.283,-13.31,2.01,-3.78,1785106137946.9531
-0.896,-0.333,-0.295,-15.29,2.32,-3.97,1785106137947.205
-0.903,-0.328,-0.301,-18.65,2.53,-4.0,1785106137947.4502
-0.905,-0.324,-0.304,-23.29,3.08,-4.18,1785106137947.695
-0.907,-0.32,-0.3,-28.75,3.66,-4.64,1785106137947.9492
-0.896,-0.32,-0.295,-34.52,4.18,-4.58,1785106137948.1963
-0.866,-0.327,-0.282,-39.34,4.24,-4.03,1785106137948.4392
-0.827,-0.348,-0.269,-41.14,4.15,-2.56,1785106137948.689
-0.822,-0.382,-0.255,-38.61,4.24,-0.7,1785106137948.943
-0.809,-0.393,-0.244,-31.16,5.83,-0.92,1785106137949.186
-0.76,-0.408,-0.236,-20.54,7.39,-1.1,1785106137949.437
-0.724,-0.422,-0.224,-8.45,8.3,0.0,1785106137949.682
-0.707,-0.421,-0.225,4.67,7.81,1.19,1785106137949.913
-0.69,-0.405,-0.247,17.4,6.47,0.64,1785106137950.1418
-0.678,-0.38,-0.279,25.91,4.79,-1.53,1785106137950.378
-0.677,-0.358,-0.313,27.53,3.2,-4.09,1785106137950.615
-0.693,-0.347,-0.335,22.68,2.23,-6.32,1785106137950.867
-0.725,-0.347,-0.344,13.76,1.59,-8.12,1785106137951.104
-0.759,-0.357,-0.352,3.2,0.79,-9.52,1785106137951.337
-0.787,-0.374,-0.363,-7.08,0.06,-10.56,1785106137951.5881
-0.812,-0.393,-0.388,-16.91,-0.46,-11.87,1785106137951.884
-0.831,-0.388,-0.388,-27.01,-0.31,-12.97,1785106137952.157
-0.834,-0.399,-0.385,-34.46,-0.31,-13.95,1785106137952.398
-0.834,-0.399,-0.385,-37.66,-0.15,-15.47,1785106137952.628
-0.837,-0.417,-0.361,-34.67,-2.04,-16.72,1785106137952.872
-0.852,-0.424,-0.323,-25.82,-5.34,-17.61,1785106137953.1108
-0.869,-0.423,-0.291,-13.67,-8.82,-18.71,1785106137953.347
-0.892,-0.416,-0.282,-1.22,-12.18,-20.54,1785106137953.5842
-0.904,-0.398,-0.286,-1.22,-12.18,-20.54,1785106137953.8271
-0.905,-0.372,-0.299,8.06,-15.69,-21.73,1785106137954.0688
-0.918,-0.348,-0.325,11.93,-18.68,-21.88,1785106137954.298
-0.938,-0.336,-0.34,9.89,-20.57,-20.87,1785106137954.5269
-0.995,-0.343,-0.386,-4.88,-25.15,-16.82,1785106137954.993
-1.014,-0.362,-0.404,-15.08,-26.37,-14.77,1785106137955.2268
-0.891,-0.207,-0.352,1.56,-0.24,-1.5,1785106137955.5928
-0.894,-0.213,-0.353,1.34,-0.21,-1.65,1785106137955.81
-0.894,-0.214,-0.354,1.53,-0.4,-1.68,1785106137956.029
-0.894,-0.212,-0.355,1.77,-0.37,-1.53,1785106137956.247
-0.892,-0.21,-0.353,1.86,-0.21,-1.37,1785106137962.298
-0.893,-0.21,-0.358,2.04,-0.06,-1.5,1785106137972.7039
-0.894,-0.209,-0.359,2.26,-0.12,-1.68,1785106137983.0642
-0.891,-0.211,-0.36,2.2,0.09,-1.77,1785106137996.345
-0.894,-0.213,-0.358,2.32,0.52,-1.95,1785106138001.761
-0.896,-0.213,-0.361,2.78,0.67,-1.95,1785106138011.9412
-0.892,-0.206,-0.362,2.59,0.92,-1.62,1785106138022.342
-0.892,-0.203,-0.357,2.53,0.98,-1.56,1785106138032.769
-0.893,-0.201,-0.349,2.56,0.89,-1.53,1785106138043.1401
-0.89,-0.203,-0.348,2.75,0.79,-1.53,1785106138056.4292
-0.891,-0.205,-0.345,3.11,0.85,-1.46,1785106138061.864
-0.891,-0.204,-0.346,3.57,0.76,-1.59,1785106138072.0461
-0.892,-0.202,-0.349,4.3,0.73,-1.43,1785106138082.472
-0.891,-0.202,-0.35,5.07,0.79,-1.16,1785106138092.915
-0.889,-0.201,-0.35,6.01,0.92,-0.95,1785106138106.0989
-0.891,-0.204,-0.35,8.0,0.82,-0.76,1785106138111.5852
-0.893,-0.205,-0.347,10.62,0.89,-0.43,1785106138121.955
-0.897,-0.203,-0.349,14.1,0.67,-0.03,1785106138132.294
-0.901,-0.202,-0.363,17.82,0.76,0.18,1785106138142.935
-0.907,-0.205,-0.36,21.67,1.59,0.61,1785106138156.174
-0.907,-0.216,-0.361,27.04,2.53,0.98,1785106138162.26
-0.909,-0.222,-0.371,33.72,3.14,1.22,1785106138172.4521
-0.909,-0.217,-0.376,40.25,3.81,2.04,1785106138182.6902
-0.902,-0.211,-0.384,45.56,4.36,2.62,1785106138193.3171
-0.898,-0.204,-0.39,48.62,5.04,2.66,1785106138206.455
-0.896,-0.193,-0.39,49.32,5.74,3.2,1785106138212.59
-0.891,-0.189,-0.387,48.59,6.44,3.27,1785106138222.343
-0.89,-0.189,-0.386,46.6,6.87,3.2,1785106138232.927
-0.891,-0.188,-0.379,43.18,7.39,3.69,1785106138243.364
-0.892,-0.19,-0.374,39.86,8.03,4.21,1785106138256.559
-0.892,-0.195,-0.365,37.11,8.36,4.58,1785106138262.4797
-0.896,-0.201,-0.351,34.61,8.42,5.4,1785106138272.692
-0.903,-0.204,-0.342,32.11,8.51,6.26,1785106138282.9548
-0.909,-0.19,-0.334,29.21,8.39,7.75,1785106138293.5
-0.909,-0.151,-0.325,26.98,8.51,10.41,1785106138306.6921
-0.9,-0.132,-0.323,26.58,8.45,13.7,1785106138312.9558
-0.881,-0.138,-0.338,26.52,7.81,15.53,1785106138322.973
-0.867,-0.141,-0.345,25.82,7.29,17.85,1785106138333.475
-0.86,-0.148,-0.349,25.64,7.2,21.0,1785106138346.833
-0.85,-0.142,-0.343,24.69,7.78,23.8,1785106138352.8918
-0.845,-0.128,-0.326,22.89,8.21,26.92,1785106138362.9639
-0.848,-0.129,-0.312,20.2,8.36,29.66,1785106138373.476
-0.851,-0.142,-0.308,16.6,8.76,32.04,1785106138386.739
-0.863,-0.142,-0.309,12.21,9.46,34.55,1785106138393.131
-0.872,-0.136,-0.336,6.71,10.44,36.87,1785106138402.9373
-0.868,-0.158,-0.403,0.09,13.46,36.01,1785106138413.4773
-0.866,-0.179,-0.47,-6.9,17.61,32.78,1785106138426.7222
-0.882,-0.181,-0.481,-13.0,21.67,31.86,1785106138432.863
-0.903,-0.187,-0.476,-13.82,24.51,32.44,1785106138443.116
-0.903,-0.211,-0.486,-9.52,26.12,32.2,1785106138456.3333
-0.894,-0.245,-0.489,-2.23,26.0,30.88,1785106138462.334
-0.903,-0.275,-0.468,9.43,23.26,29.36,1785106138472.7869
-0.928,-0.339,-0.488,25.3,18.92,28.05,1785106138495.955
-0.95,-0.466,-0.513,42.12,16.54,22.92,1785106138496.7969
-0.987,-0.647,-0.517,57.04,15.84,12.09,1785106138503.468
-1.034,-0.779,-0.527,64.82,15.47,-4.67,1785106138513.595
-1.074,-0.786,-0.518,58.78,17.06,-28.41,1785106138523.0579
-1.104,-0.784,-0.533,36.23,18.22,-56.73,1785106138536.4102
-1.125,-0.862,-0.556,-7.54,19.71,-84.93,1785106138542.2039
-1.16,-1.026,-0.476,-62.41,22.71,-115.15,1785106138555.881
-1.194,-1.282,-0.297,-104.4,20.87,-144.66,1785106138566.2458
-1.241,-1.481,-0.13,-122.17,11.51,-172.22,1785106138575.829
-1.307,-1.495,-0.089,-120.88,-4.36,-205.15,1785106138583.214
-1.388,-1.381,-0.177,-109.5,-23.26,-238.69,1785106138597.399
-1.401,-1.234,-0.267,-99.49,-39.03,-263.5,1785106138602.171
-1.297,-1.126,-0.305,-96.47,-49.81,-279.03,1785106138613.27
-1.112,-1.049,-0.332,-100.1,-57.34,-286.48,1785106138633.12
-0.938,-0.994,-0.309,-105.99,-62.14,-286.42,1785106138634.969
-0.823,-0.944,-0.251,-107.49,-66.44,-282.63,1785106138658.2668
-0.742,-0.914,-0.192,-101.63,-71.02,-278.85,1785106138658.8599
-0.667,-0.871,-0.157,-90.85,-76.27,-276.22,1785106138662.6028
-0.597,-0.779,-0.158,-83.22,-81.3,-272.84,1785106138675.83
-0.597,-0.779,-0.158,-82.49,-85.12,-266.61,1785106138681.5933
-0.544,-0.695,-0.194,-86.73,-86.37,-259.35,1785106138692.5408
-0.507,-0.691,-0.243,-92.59,-85.88,-253.3,1785106138710.57
-0.464,-0.716,-0.285,-97.2,-85.24,-246.68,1785106138711.872
-0.436,-0.738,-0.273,-98.67,-84.78,-237.92,1785106138722.594
-0.398,-0.749,-0.26,-98.67,-84.78,-237.92,1785106138737.517
-0.347,-0.761,-0.231,-97.02,-83.86,-228.77,1785106138741.653
-0.31,-0.822,-0.175,-94.67,-83.62,-220.89,1785106138752.5508
-0.305,-0.911,-0.125,-92.17,-83.83,-212.47,1785106138763.61
-0.333,-1.029,-0.112,-89.54,-85.24,-204.99,1785106138776.532
-0.4,-1.165,-0.126,-90.43,-85.67,-203.56,1785106138782.514
-0.471,-1.277,-0.12,-95.28,-84.84,-206.64,1785106138793.3152
-0.529,-1.376,-0.111,-97.81,-83.96,-212.47,1785106138806.7122
-0.573,-1.427,-0.1,-94.49,-82.92,-220.01,1785106138812.397
-0.617,-1.42,-0.093,-86.37,-83.65,-228.55,1785106138823.596
-0.668,-1.371,-0.114,-79.9,-85.76,-236.7,1785106138836.9658
-0.691,-1.319,-0.105,-77.33,-86.98,-243.35,1785106138842.2908
-0.691,-1.27,-0.1,-74.86,-88.05,-248.82,1785106138853.089
-0.698,-1.212,-0.112,-65.98,-90.18,-250.95,1785106138866.4993
-0.681,-1.12,-0.182,-49.2,-92.26,-250.53,1785106138872.2173
-0.656,-0.951,-0.239,-46.85,-94.76,-252.45,1785106138883.0552
-0.579,-0.928,-0.269,-52.92,-95.16,-247.96,1785106138896.477
-0.568,-0.898,-0.271,-65.52,-94.82,-247.02,1785106138902.679
-0.517,-0.964,-0.229,-71.87,-93.17,-239.91,1785106138913.058
-0.465,-0.992,-0.272,-67.08,-95.28,-237.89,1785106138926.8857
-0.385,-0.896,-0.34,-68.3,-96.74,-234.72,1785106138932.042
-0.303,-0.772,-0.395,-80.78,-94.85,-228.58,1785106138943.382
-0.205,-0.716,-0.38,-99.7,-91.98,-221.14,1785106138961.275
-0.134,-0.74,-0.343,-113.04,-88.93,-216.22,1785106138962.125
-0.095,-0.813,-0.288,-118.17,-86.21,-210.09,1785106138973.161
-0.038,-0.93,-0.277,-111.94,-85.82,-201.79,1785106138986.748
0.002,-1.017,-0.373,-99.92,-85.06,-194.22,1785106138992.576
0.028,-1.008,-0.523,-94.12,-79.87,-184.42,1785106139003.5588
0.059,-0.939,-0.604,-99.67,-70.04,-173.86,1785106139016.7659
0.095,-0.862,-0.67,-115.6,-58.5,-163.76,1785106139022.73
0.098,-0.843,-0.683,-135.56,-44.56,-153.87,1785106139036.1
0.094,-0.83,-0.615,-151.1,-30.34,-144.35,1785106139042.1619
0.102,-0.771,-0.581,-155.55,-17.67,-136.23,1785106139053.026
0.062,-0.703,-0.619,-152.32,-6.23,-129.55,1785106139066.336
0.014,-0.645,-0.686,-148.96,5.43,-122.35,1785106139072.556
-0.021,-0.582,-0.719,-149.69,16.54,-112.64,1785106139083.147
-0.064,-0.593,-0.681,-149.75,26.55,-100.1,1785106139096.4502
-0.151,-0.645,-0.573,-144.47,33.94,-86.95,1785106139102.3901
-0.234,-0.672,-0.46,-126.32,35.22,-73.43,1785106139113.17
-0.278,-0.639,-0.414,-95.25,30.4,-59.91,1785106139126.47
-0.318,-0.573,-0.404,-58.69,21.91,-46.33,1785106139132.638
-0.335,-0.472,-0.458,-22.31,11.32,-33.39,1785106139142.8953
-0.342,-0.274,-0.541,4.12,0.67,-21.52,1785106139153.26
-0.336,-0.046,-0.622,12.7,-9.16,-9.52,1785106139166.579
-0.342,0.124,-0.706,2.08,-15.02,1.22,1785106139172.742
-0.355,0.192,-0.794,-22.49,-15.02,10.19,1785106139182.7341
-0.368,0.158,-0.822,-53.32,-11.44,18.46,1785106139193.186
-0.364,0.1,-0.779,-81.36,-7.87,25.88,1785106139206.46
-0.33,0.106,-0.759,-101.23,-7.51,34.36,1785106139212.81
-0.28,0.185,-0.814,-114.02,-8.73,44.65,1785106139222.957
-0.24,0.234,-0.888,-120.33,-8.0,55.7,1785106139235.906
-0.257,0.233,-0.898,-121.25,-4.73,68.15,1785106139242.2139
-0.262,0.162,-0.826,-107.85,-1.4,83.44,1785106139252.727
-0.28,-0.053,-0.749,-70.41,0.37,96.74,1785106139263.2373
-0.312,-0.305,-0.661,-13.98,0.64,105.75,1785106139276.569
-0.299,-0.322,-0.627,43.18,1.89,109.87,1785106139282.4631
-0.326,-0.197,-0.736,79.68,4.3,109.87,1785106139293.041
-0.307,-0.251,-0.876,91.98,9.13,114.05,1785106139306.13
-0.303,-0.355,-0.958,91.71,15.35,116.03,1785106139312.427
-0.317,-0.41,-0.974,98.57,17.09,114.69,1785106139322.777
-0.298,-0.454,-0.973,117.98,16.27,116.0,1785106139336.047
-0.28,-0.392,-0.926,137.67,16.6,114.44,1785106139342.1829
-0.263,-0.286,-0.909,143.89,17.46,111.7,1785106139353.038
-0.226,-0.203,-0.965,127.29,20.39,110.29,1785106139366.2742
-0.204,-0.196,-0.944,95.68,27.04,111.42,1785106139372.577
-0.23,-0.296,-0.851,63.2,33.88,111.91,1785106139383.0889
-0.255,-0.388,-0.73,38.15,36.74,111.97,1785106139396.3862
-0.227,-0.515,-0.648,34.24,34.61,112.55,1785106139402.33
-0.304,-0.54,-0.772,46.48,31.37,108.25,1785106139413.2212
-0.268,-0.419,-0.814,38.36,33.23,107.7,1785106139429.279
-0.209,-0.476,-0.87,24.41,36.9,108.13,1785106139432.769
-0.203,-0.569,-0.825,11.29,42.73,106.85,1785106139442.873
-0.212,-0.621,-0.796,14.86,45.66,104.71,1785106139456.29
-0.241,-0.651,-0.816,28.75,45.72,101.35,1785106139462.345
-0.252,-0.633,-0.824,39.58,46.66,98.64,1785106139472.859
-0.252,-0.62,-0.804,45.93,48.68,95.92,1785106139483.592
-0.248,-0.608,-0.793,46.88,50.23,92.65,1785106139496.8782
-0.268,-0.597,-0.796,47.21,52.43,88.2,1785106139502.78
-0.288,-0.603,-0.79,49.38,54.32,83.04,1785106139513.2239
-0.265,-0.646,-0.823,53.19,54.99,78.49,1785106139526.493
-0.236,-0.662,-0.844,55.54,56.15,75.78,1785106139532.6897
-0.221,-0.626,-0.869,54.99,57.04,74.19,1785106139543.0369
-0.17,-0.539,-0.916,47.18,58.81,71.81,1785106139556.161
-0.129,-0.488,-0.944,34.52,62.81,70.53,1785106139562.238
-0.151,-0.48,-0.921,19.53,68.36,70.83,1785106139572.641
-0.17,-0.481,-0.928,7.26,73.06,73.92,1785106139583.209
-0.179,-0.5,-0.954,-3.39,78.19,78.8,1785106139596.5
-0.21,-0.537,-0.92,-14.25,83.62,84.87,1785106139602.409
-0.235,-0.615,-0.835,-18.89,87.41,89.97,1785106139612.8252
-0.227,-0.686,-0.789,-14.59,88.84,92.23,1785106139623.471
-0.215,-0.726,-0.805,-2.26,90.37,93.78,1785106139636.657
-0.24,-0.735,-0.819,14.62,92.44,95.28,1785106139642.6711
-0.265,-0.722,-0.827,28.69,94.09,96.53,1785106139653.0618
-0.277,-0.731,-0.808,41.63,97.08,97.2,1785106139666.2542
-0.263,-0.752,-0.727,54.17,102.69,99.03,1785106139672.482
-0.262,-0.731,-0.72,71.35,112.86,99.52,1785106139682.944
-0.344,-0.563,-0.881,73.58,118.41,98.91,1785106139696.174
-0.405,-0.269,-1.019,33.78,117.74,103.64,1785106139702.199
-0.433,-0.193,-0.938,-40.19,120.55,110.42,1785106139713.099
-0.38,-0.491,-0.754,-115.82,124.67,118.02,1785106139726.3623
-0.326,-0.812,-0.606,-155.71,121.95,120.55,1785106139732.6409
-0.357,-0.929,-0.504,-148.53,115.24,116.79,1785106139745.965
-0.365,-0.866,-0.464,-107.03,105.62,115.3,1785106139753.717
-0.328,-0.713,-0.564,-59.02,97.51,116.37,1785106139762.847
-0.298,-0.588,-0.623,-24.05,95.49,120.21,1785106139777.594
-0.298,-0.617,-0.614,8.18,95.03,126.22,1785106139782.433
-0.318,-0.745,-0.588,46.57,95.16,128.64,1785106139792.9001
-0.307,-0.775,-0.638,92.56,95.71,128.15,1785106139806.102
-0.294,-0.659,-0.725,122.78,96.22,125.55,1785106139812.348
-0.273,-0.542,-0.845,126.41,102.02,127.14,1785106139823.1501
-0.313,-0.474,-0.92,101.17,109.53,127.78,1785106139836.3591
-0.342,-0.504,-0.915,61.86,116.92,126.99,1785106139842.407
-0.406,-0.604,-0.839,25.76,121.98,124.09,1785106139853.399
-0.426,-0.693,-0.768,1.95,122.41,122.32,1785106139866.708
-0.398,-0.722,-0.719,-6.44,120.0,121.31,1785106139872.9182
-0.415,-0.76,-0.669,-1.34,116.89,120.94,1785106139883.2278
-0.419,-0.75,-0.685,5.74,116.31,120.55,1785106139896.457
-0.391,-0.693,-0.718,6.44,117.56,120.27,1785106139902.651
-0.389,-0.712,-0.714,10.74,119.39,122.04,1785106139913.465
-0.387,-0.702,-0.75,17.67,119.24,121.83,1785106139926.775
-0.376,-0.675,-0.773,22.49,120.4,122.47,1785106139932.92
-0.377,-0.662,-0.793,26.4,122.75,123.97,1785106139946.2468
-0.393,-0.653,-0.789,28.17,125.83,125.58,1785106139952.327
-0.448,-0.663,-0.759,29.33,128.33,128.15,1785106139963.084
-0.448,-0.663,-0.759,29.3,129.22,130.38,1785106139976.417
-0.476,-0.688,-0.755,30.0,129.8,132.54,1785106139982.4053
-0.451,-0.725,-0.746,30.55,130.22,133.4,1785106139993.365
-0.431,-0.752,-0.727,29.08,131.2,132.05,1785106140006.492
-0.46,-0.759,-0.703,29.08,131.2,132.05,1785106140012.165
-0.479,-0.779,-0.665,29.18,131.66,130.31,1785106140023.5178
-0.494,-0.784,-0.66,35.1,131.2,128.79,1785106140036.78
-0.523,-0.78,-0.648,42.63,131.75,127.2,1785106140043.083
-0.504,-0.806,-0.597,49.5,133.92,126.13,1785106140056.154
-0.485,-0.812,-0.563,57.1,135.96,124.91,1785106140062.3901
-0.504,-0.786,-0.587,65.16,135.56,122.81,1785106140073.196
-0.49,-0.738,-0.62,65.77,135.78,121.1,1785106140086.6492
-0.45,-0.699,-0.646,60.06,137.85,120.4,1785106140092.7998
-0.443,-0.703,-0.632,50.78,140.57,119.91,1785106140103.378
-0.45,-0.688,-0.6,36.38,141.33,118.63,1785106140116.629
-0.466,-0.665,-0.604,21.97,140.51,117.25,1785106140122.7021
-0.486,-0.714,-0.562,8.79,139.68,116.06,1785106140133.5308
-0.447,-0.795,-0.573,-0.89,137.82,114.54,1785106140146.781
-0.426,-0.846,-0.577,-3.54,137.3,113.74,1785106140153.034
-0.447,-0.85,-0.52,3.05,136.63,112.83,1785106140163.484
-0.474,-0.807,-0.479,19.56,133.79,109.53,1785106140176.955
-0.475,-0.758,-0.478,40.16,130.01,106.51,1785106140182.883
-0.447,-0.688,-0.509,55.48,127.2,105.32,1785106140196.265
-0.437,-0.604,-0.55,62.38,127.66,106.48,1785106140202.037
-0.451,-0.533,-0.583,59.6,131.35,109.1,1785106140213.118
-0.462,-0.522,-0.634,47.09,133.82,113.19,1785106140226.473
-0.495,-0.578,-0.631,26.37,136.11,118.44,1785106140232.744
-0.537,-0.651,-0.545,3.85,138.28,124.36,1785106140243.291
-0.575,-0.768,-0.423,-9.67,137.06,128.48,1785106140256.4858
-0.59,-0.935,-0.332,-11.32,133.82,129.58,1785106140262.625
-0.594,-1.101,-0.288,-1.07,130.56,128.18,1785106140273.343
-0.608,-1.2,-0.251,19.1,126.26,124.61,1785106140286.6409
-0.585,-1.227,-0.225,45.47,120.64,119.02,1785106140293.041
-0.512,-1.15,-0.234,65.49,115.18,111.03,1785106140303.53
-0.457,-1.069,-0.313,68.51,111.45,104.25,1785106140316.803
-0.436,-1.039,-0.33,50.81,111.76,101.08,1785106140322.81
-0.401,-1.062,-0.297,28.02,111.94,98.7,1785106140336.202
-0.389,-1.118,-0.254,12.18,110.02,94.85,1785106140342.4639
-0.393,-1.134,-0.217,2.44,105.93,88.17,1785106140352.8691
-0.371,-1.119,-0.225,-1.95,101.02,81.3,1785106140363.5103
-0.339,-1.077,-0.184,-4.79,95.55,74.59,1785106140376.8708
-0.313,-1.051,-0.141,-6.84,87.98,69.31,1785106140382.292
-0.316,-1.003,-0.187,-14.07,81.18,65.1,1785106140393.1047
-0.336,-0.942,-0.209,-27.59,76.27,62.04,1785106140406.2231
-0.316,-1.003,-0.186,-40.47,71.26,59.42,1785106140412.58
-0.297,-1.104,-0.145,-46.51,66.29,55.02,1785106140422.7031
-0.306,-1.161,-0.073,-37.93,60.98,50.97,1785106140433.337
-0.314,-1.175,-0.013,-15.99,51.91,46.24,1785106140446.583
-0.289,-1.144,-0.008,9.25,41.63,41.69,1785106140452.769
-0.25,-1.072,-0.057,31.95,33.75,38.18,1785106140462.954
-0.222,-0.975,-0.118,48.22,28.05,35.28,1785106140476.276
-0.208,-0.884,-0.188,50.17,21.27,34.82,1785106140482.308
-0.184,-0.818,-0.238,39.25,16.48,37.57,1785106140492.788
-0.176,-0.791,-0.288,24.9,14.16,36.9,1785106140503.2507
-0.174,-0.778,-0.287,8.79,11.93,34.15,1785106140516.542
-0.194,-0.8,-0.269,-7.66,8.97,31.62,1785106140522.476
-0.208,-0.808,-0.267,-18.77,5.49,29.57,1785106140532.653
-0.216,-0.765,-0.297,-22.77,1.04,26.34,1785106140543.347
-0.195,-0.711,-0.354,-23.74,-3.42,23.74,1785106140556.407
-0.18,-0.685,-0.375,-25.76,-6.65,21.97,1785106140562.4749
-0.196,-0.656,-0.376,-31.22,-9.95,21.09,1785106140572.7073
-0.212,-0.618,-0.403,-37.42,-13.03,20.33,1785106140583.314
-0.237,-0.578,-0.41,-43.52,-15.93,19.87,1785106140596.5781
-0.271,-0.557,-0.411,-49.1,-18.86,20.6,1785106140602.549
-0.313,-0.531,-0.39,-54.45,-21.94,21.79,1785106140612.9912
-0.36,-0.504,-0.336,-56.67,-26.4,22.13,1785106140626.225
-0.407,-0.474,-0.29,-55.18,-33.05,20.54,1785106140632.4841
-0.433,-0.412,-0.275,-55.57,-41.81,17.7,1785106140642.69
-0.457,-0.363,-0.268,-56.4,-50.14,14.37,1785106140653.3608
-0.479,-0.32,-0.269,-58.75,-58.35,10.77,1785106140666.579
-0.497,-0.281,-0.291,-63.57,-66.41,7.26,1785106140672.795
-0.501,-0.248,-0.348,-72.42,-73.31,4.91,1785106140682.901
-0.496,-0.254,-0.402,-81.58,-77.21,4.27,1785106140693.48
-0.525,-0.274,-0.385,-89.91,-80.57,4.36,1785106140706.699
-0.578,-0.298,-0.316,-96.13,-84.96,5.65,1785106140712.857
-0.597,-0.342,-0.309,-96.26,-90.55,6.56,1785106140722.6738
-0.598,-0.377,-0.318,-89.08,-96.47,8.21,1785106140733.398
-0.603,-0.415,-0.351,-75.69,-102.02,10.65,1785106140746.6482
-0.562,-0.438,-0.438,-60.49,-109.13,11.93,1785106140752.9148
-0.522,-0.45,-0.521,-49.41,-115.85,15.84,1785106140763.379
-0.486,-0.442,-0.635,-45.2,-120.09,23.22,1785106140776.714
-0.495,-0.447,-0.688,-46.45,-120.64,32.75,1785106140782.46
-0.537,-0.494,-0.69,-47.88,-120.3,38.3,1785106140793.4922
-0.566,-0.515,-0.661,-54.29,-123.05,43.52,1785106140806.6729
-0.572,-0.54,-0.646,-60.24,-124.7,51.09,1785106140812.874
-0.579,-0.588,-0.686,-59.51,-125.89,55.24,1785106140823.3442
-0.602,-0.603,-0.721,-59.27,-126.04,57.19,1785106140836.585
-0.606,-0.601,-0.812,-58.93,-126.62,58.87,1785106140842.583
-0.619,-0.59,-0.894,-60.03,-124.3,60.82,1785106140853.3152
-0.611,-0.615,-0.945,-63.26,-120.24,63.36,1785106140866.55
-0.588,-0.636,-0.942,-66.44,-116.28,64.82,1785106140872.7888
-0.599,-0.666,-0.907,-63.69,-113.32,66.44,1785106140883.255
