ax,ay,az,gx,gy,gz,timestamp_ms
-0.868,-0.39,-0.216,-20.51,-3.05,0.85,1785106378911.2917
-0.869,-0.384,-0.216,-24.57,-2.72,1.16,1785106378911.716
-0.87,-0.397,-0.217,-27.44,-1.83,1.56,1785106378912.0461
-0.88,-0.402,-0.214,-28.69,-1.46,1.07,1785106378912.3872
-0.881,-0.413,-0.209,-27.95,-0.89,1.19,1785106378912.716
-0.883,-0.424,-0.21,-25.33,-0.18,1.28,1785106378913.0361
-0.887,-0.426,-0.213,-21.39,0.18,0.95,1785106378913.362
-0.885,-0.424,-0.217,-16.88,0.43,1.22,1785106378913.686
-0.877,-0.422,-0.217,-12.57,0.95,1.74,1785106378914.012
-0.871,-0.417,-0.215,-8.39,1.13,1.95,1785106378914.324
-0.869,-0.412,-0.215,-5.01,1.22,1.92,1785106378914.634
-0.866,-0.405,-0.219,-2.96,1.34,1.92,1785106378914.9329
-0.867,-0.398,-0.221,-2.59,1.46,2.14,1785106378915.2373
-0.869,-0.392,-0.223,-3.81,1.59,2.11,1785106378915.5469
-0.863,-0.386,-0.224,-6.23,1.89,2.32,1785106378915.8442
-0.865,-0.388,-0.227,-8.85,2.35,2.56,1785106378916.144
-0.868,-0.39,-0.22,-11.87,2.87,2.56,1785106378916.4521
-0.87,-0.396,-0.212,-14.1,3.11,2.44,1785106378916.7349
-0.872,-0.4,-0.202,-14.8,3.27,2.5,1785106378917.0151
-0.874,-0.4,-0.197,-13.43,3.17,2.62,1785106378917.293
-0.877,-0.399,-0.197,-11.14,2.84,2.62,1785106378917.5771
-0.877,-0.398,-0.197,-8.97,2.53,2.56,1785106378917.849
-0.875,-0.401,-0.202,-6.96,2.66,2.47,1785106378918.13
-0.878,-0.401,-0.197,-5.13,2.84,2.11,1785106378918.4119
-0.878,-0.404,-0.193,-3.11,2.84,1.71,1785106378918.696
-0.878,-0.397,-0.188,-1.31,2.56,1.4,1785106378918.9739
-0.874,-0.395,-0.194,0.21,2.23,1.89,1785106378919.269
-0.878,-0.389,-0.197,1.22,2.41,2.11,1785106378919.5452
-0.881,-0.384,-0.204,1.28,1.89,1.53,1785106378919.825
-0.879,-0.377,-0.205,-0.21,1.43,1.4,1785106378920.1072
-0.882,-0.373,-0.202,-2.44,1.19,1.22,1785106378920.3809
-0.886,-0.377,-0.202,-5.01,0.82,0.89,1785106378920.657
-0.884,-0.38,-0.202,-7.6,0.76,0.85,1785106378920.9531
-0.882,-0.382,-0.205,-9.89,0.7,0.76,1785106378921.243
-0.887,-0.384,-0.205,-11.9,0.58,0.7,1785106378921.556
-0.887,-0.386,-0.202,-13.12,0.12,0.7,1785106378921.871
-0.886,-0.385,-0.201,-13.25,-0.55,0.64,1785106378922.167
-0.887,-0.384,-0.203,-12.42,-1.04,0.49,1785106378922.5017
-0.887,-0.388,-0.203,-11.2,-1.4,0.49,1785106378922.812
-0.883,-0.391,-0.205,-9.98,-1.43,0.24,1785106378923.12
-0.88,-0.392,-0.205,-8.79,-1.25,-0.24,1785106378923.4077
-0.878,-0.396,-0.206,-7.23,-1.07,-0.64,1785106378923.6592
-0.878,-0.397,-0.202,-4.85,-0.89,-1.13,1785106378923.92
-0.882,-0.399,-0.198,-1.56,-1.43,-1.65,1785106378924.182
-0.879,-0.398,-0.209,1.46,-2.08,-2.04,1785106378924.4612
-0.876,-0.395,-0.225,3.17,-1.89,-2.56,1785106378924.72
-0.88,-0.394,-0.233,3.81,-1.59,-2.96,1785106378925.001
-0.883,-0.393,-0.237,4.09,-1.59,-3.27,1785106378925.264
-0.883,-0.391,-0.24,3.78,-1.5,-3.57,1785106378925.516
-0.881,-0.384,-0.237,2.93,-1.46,-3.69,1785106378925.7778
-0.879,-0.381,-0.235,2.01,-1.59,-3.6,1785106378926.045
-0.877,-0.381,-0.228,1.04,-1.5,-3.66,1785106378926.296
-0.873,-0.382,-0.222,0.46,-1.62,-3.66,1785106378926.559
-0.872,-0.382,-0.222,-0.18,-1.46,-3.51,1785106378926.8213
-0.874,-0.381,-0.225,-1.07,-1.04,-3.3,1785106378927.082
-0.876,-0.381,-0.227,-1.68,-0.7,-2.78,1785106378927.337
-0.876,-0.38,-0.223,-1.77,-0.52,-2.04,1785106378927.6
-0.876,-0.383,-0.222,-1.04,-0.18,-1.74,1785106378927.859
-0.875,-0.388,-0.219,-0.09,0.06,-1.71,1785106378928.128
-0.874,-0.393,-0.212,1.01,0.31,-1.56,1785106378928.386
-0.874,-0.39,-0.214,2.14,0.34,-1.16,1785106378928.6357
-0.876,-0.382,-0.219,2.78,0.27,-0.89,1785106378928.874
-0.879,-0.377,-0.216,2.29,0.21,-0.76,1785106378929.118
-0.881,-0.371,-0.207,0.82,-0.03,-0.27,1785106378929.364
-0.88,-0.371,-0.206,-0.4,-0.43,-0.03,1785106378929.6118
-0.883,-0.379,-0.209,-1.62,-0.24,-0.31,1785106378929.853
-0.884,-0.387,-0.206,-2.38,-0.12,-0.27,1785106378930.104
-0.883,-0.388,-0.203,-1.98,-0.31,-0.09,1785106378930.3523
-0.878,-0.385,-0.202,-1.25,-0.55,0.21,1785106378930.5908
-0.878,-0.382,-0.206,-0.67,-0.73,0.4,1785106378930.842
-0.88,-0.377,-0.211,-0.79,-0.82,0.58,1785106378931.093
-0.881,-0.378,-0.21,-1.28,-0.7,0.64,1785106378931.3508
-0.883,-0.383,-0.21,-1.98,-0.85,0.55,1785106378931.599
-0.882,-0.38,-0.208,-2.66,-1.19,0.64,1785106378931.847
-0.879,-0.378,-0.205,-3.45,-1.5,1.04,1785106378932.093
-0.875,-0.381,-0.208,-4.46,-1.62,1.19,1785106378932.3352
-0.877,-0.383,-0.215,-5.46,-1.62,0.85,1785106378932.584
-0.88,-0.386,-0.214,-6.56,-1.34,0.7,1785106378932.833
-0.88,-0.389,-0.207,-6.68,-1.5,0.92,1785106378933.079
-0.878,-0.388,-0.204,-5.83,-1.89,1.04,1785106378933.3289
-0.877,-0.389,-0.209,-5.01,-2.11,1.01,1785106378933.597
-0.878,-0.391,-0.213,-4.7,-1.98,0.73,1785106378933.836
-0.879,-0.396,-0.216,-4.7,-1.83,0.73,1785106378934.0898
-0.879,-0.394,-0.218,-4.79,-1.89,0.82,1785106378934.3328
-0.876,-0.383,-0.222,-5.49,-2.23,1.16,1785106378934.5798
-0.876,-0.387,-0.227,-6.1,-2.23,1.74,1785106378934.8228
-0.878,-0.382,-0.221,-7.02,-2.47,1.37,1785106378935.071
-0.874,-0.382,-0.211,-7.9,-2.99,1.28,1785106378935.3188
-0.869,-0.388,-0.216,-8.27,-3.14,1.37,1785106378935.562
-0.875,-0.381,-0.221,-9.61,-3.17,1.1,1785106378935.8079
-0.88,-0.39,-0.209,-10.59,-2.96,0.98,1785106378936.0571
-0.879,-0.394,-0.205,-9.89,-3.23,1.1,1785106378936.288
-0.879,-0.394,-0.205,-9.34,-3.36,0.89,1785106378936.543
-0.879,-0.388,-0.21,-9.37,-3.23,0.95,1785106378936.779
-0.876,-0.389,-0.212,-9.19,-3.14,0.82,1785106378937.018
-0.877,-0.389,-0.212,-8.85,-3.27,0.67,1785106378937.2458
-0.878,-0.388,-0.219,-8.85,-3.27,0.67,1785106378937.4949
-0.88,-0.39,-0.218,-8.33,-3.33,0.4,1785106378937.732
-0.879,-0.391,-0.216,-7.81,-3.51,0.46,1785106378937.9622
-0.877,-0.384,-0.214,-7.45,-3.69,0.55,1785106378938.195
-0.874,-0.377,-0.211,-7.81,-3.81,0.4,1785106378938.438
-0.873,-0.38,-0.212,-8.97,-3.78,0.24,1785106378938.6648
-0.874,-0.385,-0.211,-10.13,-3.72,0.12,1785106378938.904
-0.874,-0.385,-0.215,-10.9,-3.72,-0.18,1785106378939.141
-0.874,-0.386,-0.22,-11.78,-3.97,-0.37,1785106378939.379
-0.879,-0.384,-0.222,-12.45,-4.03,-0.55,1785106378939.6072
-0.886,-0.382,-0.218,-12.39,-3.78,-0.79,1785106378939.8442
-0.889,-0.383,-0.213,-11.63,-3.72,-0.7,1785106378940.084
-0.89,-0.387,-0.213,-10.19,-3.66,-0.55,1785106378940.314
-0.887,-0.388,-0.216,-8.55,-3.78,-0.55,1785106378940.548
-0.882,-0.387,-0.224,-7.2,-3.81,-0.64,1785106378940.781
-0.88,-0.382,-0.229,-6.44,-3.69,-0.76,1785106378941.0132
-0.879,-0.376,-0.231,-6.13,-3.54,-0.98,1785106378941.251
-0.877,-0.374,-0.229,-6.81,-3.45,-1.07,1785106378941.488
-0.876,-0.377,-0.226,-7.72,-3.3,-1.13,1785106378941.7222
-0.879,-0.381,-0.225,-7.87,-3.2,-1.25,1785106378941.941
-0.878,-0.38,-0.221,-7.29,-3.02,-1.4,1785106378942.167
-0.874,-0.376,-0.22,-6.47,-3.14,-1.46,1785106378942.391
-0.874,-0.376,-0.229,-6.1,-2.96,-1.71,1785106378942.609
-0.873,-0.375,-0.234,-6.07,-2.72,-1.83,1785106378942.831
-0.876,-0.377,-0.235,-5.86,-2.5,-1.83,1785106378943.0608
-0.878,-0.379,-0.235,-5.34,-2.17,-2.11,1785106378943.2803
-0.881,-0.376,-0.231,-4.61,-1.92,-2.23,1785106378943.509
-0.878,-0.376,-0.228,-3.78,-1.65,-1.86,1785106378943.7407
-0.875,-0.374,-0.226,-3.33,-1.62,-1.71,1785106378944.032
-0.877,-0.371,-0.223,-2.81,-1.4,-1.8,1785106378944.282
-0.878,-0.371,-0.226,-2.5,-1.19,-1.8,1785106378944.558
-0.878,-0.369,-0.23,-2.87,-0.73,-1.89,1785106378944.819
-0.885,-0.373,-0.231,-3.51,-0.37,-1.98,1785106378945.045
-0.883,-0.379,-0.229,-3.57,-0.24,-1.98,1785106378945.2742
-0.883,-0.375,-0.226,-2.87,-0.18,-1.74,1785106378945.506
-0.881,-0.369,-0.226,-2.38,-0.24,-1.37,1785106378945.7258
-0.882,-0.371,-0.225,-2.29,-0.21,-1.34,1785106378945.947
-0.881,-0.371,-0.227,-2.72,-0.12,-1.31,1785106378946.171
-0.879,-0.372,-0.229,-3.17,0.06,-1.34,1785106378946.4011
-0.881,-0.375,-0.228,-3.6,0.27,-1.28,1785106378946.624
-0.879,-0.377,-0.226,-3.63,0.27,-1.25,1785106378946.849
-0.879,-0.378,-0.226,-3.36,0.37,-1.34,1785106378947.078
-0.88,-0.377,-0.228,-3.48,0.46,-1.31,1785106378947.295
-0.878,-0.374,-0.226,-3.81,0.58,-0.85,1785106378947.5278
-0.877,-0.375,-0.228,-3.69,0.76,-0.4,1785106378947.756
-0.876,-0.375,-0.226,-3.33,0.82,-0.06,1785106378947.9758
-0.873,-0.379,-0.228,-2.84,0.85,0.15,1785106378948.19
-0.874,-0.38,-0.227,-2.5,0.89,0.31,1785106378948.411
-0.877,-0.376,-0.225,-2.44,0.98,0.61,1785106378948.643
-0.879,-0.375,-0.226,-2.47,1.01,0.89,1785106378948.8562
-0.878,-0.373,-0.228,-3.05,1.04,0.89,1785106378949.074
-0.879,-0.376,-0.229,-3.81,1.37,1.01,1785106378949.29
-0.882,-0.38,-0.23,-4.39,1.56,1.16,1785106378949.504
-0.883,-0.383,-0.23,-4.67,1.56,1.19,1785106378949.719
-0.882,-0.383,-0.232,-5.07,1.59,0.79,1785106378949.9377
-0.883,-0.383,-0.23,-5.19,1.77,0.7,1785106378950.156
-0.882,-0.378,-0.224,-5.65,1.95,0.76,1785106378950.368
-0.88,-0.375,-0.223,-5.8,1.74,1.01,1785106378950.588
-0.882,-0.378,-0.226,-5.07,1.5,0.58,1785106378950.808
-0.881,-0.381,-0.223,-4.12,1.25,0.27,1785106378951.018
-0.879,-0.381,-0.224,-2.9,0.89,0.18,1785106378951.242
-0.88,-0.379,-0.229,-2.17,0.73,0.06,1785106378951.4849
-0.876,-0.374,-0.232,-2.35,0.85,-0.12,1785106378951.6953
-0.872,-0.372,-0.235,-3.14,0.95,-0.43,1785106378951.9082
-0.873,-0.373,-0.233,-4.18,1.25,-0.49,1785106378952.1301
-0.875,-0.376,-0.231,-4.61,1.43,-0.52,1785106378952.343
-0.878,-0.379,-0.231,-3.88,1.43,-0.58,1785106378952.5603
-0.883,-0.377,-0.234,-2.84,1.34,-0.55,1785106378952.779
-0.882,-0.37,-0.235,-2.32,1.19,-0.21,1785106378953.012
-0.88,-0.368,-0.231,-2.69,1.13,0.0,1785106378953.223
-0.879,-0.369,-0.232,-3.2,1.16,0.18,1785106378953.4521
-0.88,-0.37,-0.232,-3.33,1.16,0.43,1785106378953.6729
-0.877,-0.373,-0.234,-2.99,1.19,0.7,1785106378953.876
-0.878,-0.372,-0.233,-2.87,1.1,0.89,1785106378954.0898
-0.879,-0.367,-0.232,-3.08,0.85,0.98,1785106378954.292
-0.88,-0.367,-0.234,-3.63,0.85,1.01,1785106378954.534
-0.879,-0.368,-0.233,-4.3,0.82,0.92,1785106378954.7388
-0.88,-0.375,-0.237,-4.91,1.04,0.37,1785106378955.1548
-0.879,-0.375,-0.238,-4.58,1.13,0.24,1785106378955.3599
-0.816,-0.378,-0.197,-16.42,-8.12,8.27,1785106378955.864
-0.819,-0.385,-0.201,-13.61,-7.84,11.6,1785106378956.0718
-0.818,-0.385,-0.21,-11.14,-7.69,14.53,1785106378960.325
-0.821,-0.388,-0.215,-9.7,-7.66,17.09,1785106378965.973
-0.824,-0.398,-0.219,-9.31,-7.26,19.23,1785106378976.344
-0.827,-0.413,-0.224,-9.25,-6.87,21.15,1785106378986.826
-0.831,-0.43,-0.234,-8.94,-6.65,22.77,1785106379000.061
-0.835,-0.444,-0.24,-8.06,-6.38,24.14,1785106379005.6572
-0.836,-0.454,-0.244,-6.84,-6.38,24.93,1785106379016.012
-0.84,-0.465,-0.248,-5.31,-6.41,25.06,1785106379026.4849
-0.844,-0.476,-0.248,-3.85,-6.13,25.06,1785106379036.943
-0.85,-0.489,-0.251,-2.17,-5.98,24.93,1785106379050.2012
-0.855,-0.501,-0.252,0.09,-5.92,24.69,1785106379055.825
-0.859,-0.511,-0.26,1.77,-5.58,23.8,1785106379066.14
-0.863,-0.518,-0.266,1.65,-4.91,22.43,1785106379076.6257
-0.861,-0.532,-0.269,0.34,-3.94,20.29,1785106379087.102
-0.86,-0.549,-0.266,-1.62,-2.81,17.67,1785106379100.373
-0.859,-0.568,-0.256,-2.56,-2.17,14.8,1785106379106.08
-0.86,-0.578,-0.242,-2.35,-1.83,12.09,1785106379116.3
-0.856,-0.585,-0.231,-1.77,-1.71,10.01,1785106379126.802
-0.851,-0.584,-0.222,-1.1,-1.4,7.63,1785106379137.218
-0.846,-0.579,-0.212,-0.64,-1.22,5.58,1785106379150.3958
-0.839,-0.57,-0.204,-0.73,-1.16,3.69,1785106379155.984
-0.833,-0.562,-0.199,-1.4,-1.07,1.53,1785106379166.333
-0.83,-0.547,-0.193,-2.81,-1.34,-0.46,1785106379176.7769
-0.826,-0.536,-0.191,-4.79,-1.53,-2.14,1785106379187.1282
-0.822,-0.53,-0.184,-7.35,-1.59,-3.27,1785106379200.363
-0.822,-0.525,-0.174,-9.67,-1.74,-4.21,1785106379206.052
-0.824,-0.52,-0.167,-11.05,-2.08,-4.82,1785106379216.135
-0.826,-0.515,-0.16,-11.69,-2.99,-5.1,1785106379226.6729
-0.829,-0.511,-0.161,-11.9,-4.06,-4.73,1785106379236.9348
-0.832,-0.497,-0.166,-12.76,-5.19,-4.39,1785106379250.3901
-0.833,-0.475,-0.178,-15.35,-6.5,-3.57,1785106379256.376
-0.835,-0.458,-0.198,-20.78,-7.63,-2.72,1785106379266.241
-0.839,-0.439,-0.201,-30.15,-8.51,-2.41,1785106379276.669
-0.847,-0.426,-0.19,-42.05,-10.28,-1.25,1785106379287.346
-0.86,-0.413,-0.184,-57.74,-13.46,1.01,1785106379300.5261
-0.872,-0.41,-0.195,-78.74,-17.46,3.66,1785106379306.688
-0.879,-0.43,-0.213,-104.13,-21.45,5.58,1785106379316.8582
-0.884,-0.496,-0.228,-130.04,-25.48,6.1,1785106379327.5972
-0.909,-0.625,-0.236,-153.6,-29.27,3.36,1785106379340.862
-0.937,-0.73,-0.238,-174.93,-33.75,-2.84,1785106379346.7222
-0.939,-0.79,-0.258,-191.72,-37.87,-12.97,1785106379357.2942
-0.907,-0.819,-0.321,-208.2,-40.71,-25.45,1785106379370.578
-0.909,-0.896,-0.388,-227.61,-41.57,-36.41,1785106379376.337
-0.938,-1.017,-0.42,-243.17,-39.4,-48.07,1785106379387.288
-0.936,-1.166,-0.416,-248.54,-37.63,-60.37,1785106379400.612
-0.904,-1.321,-0.365,-242.87,-35.4,-72.18,1785106379406.585
-0.891,-1.408,-0.271,-225.56,-32.62,-87.92,1785106379417.2317
-0.92,-1.397,-0.218,-198.07,-32.47,-108.16,1785106379430.478
-0.938,-1.3,-0.242,-170.57,-34.73,-127.51,1785106379436.7039
-0.936,-1.225,-0.294,-151.07,-36.35,-143.16,1785106379447.294
-0.923,-1.237,-0.389,-136.08,-33.97,-155.74,1785106379460.334
-0.947,-1.209,-0.495,-129.12,-29.6,-173.13,1785106379466.76
-0.968,-1.215,-0.518,-128.54,-21.39,-186.65,1785106379479.8037
-0.975,-1.214,-0.491,-123.45,-13.58,-199.38,1785106379485.738
-0.959,-1.179,-0.421,-113.38,-8.67,-209.91,1785106379496.6719
-0.935,-1.138,-0.368,-100.77,-5.83,-218.57,1785106379510.211
-0.941,-1.092,-0.33,-92.44,-2.56,-226.66,1785106379516.255
-0.919,-1.086,-0.336,-88.32,0.24,-231.7,1785106379526.809
-0.886,-1.018,-0.37,-93.26,2.11,-236.3,1785106379537.416
-0.858,-0.949,-0.361,-106.42,6.44,-239.51,1785106379550.679
-0.782,-0.959,-0.416,-120.0,8.58,-241.4,1785106379556.711
-0.755,-0.936,-0.411,-143.19,12.54,-243.57,1785106379567.482
-0.738,-1.003,-0.34,-162.08,17.76,-241.86,1785106379580.681
-0.683,-1.116,-0.331,-165.65,18.19,-241.86,1785106379586.7642
-0.659,-1.093,-0.32,-168.07,17.06,-242.65,1785106379600.106
-0.645,-1.054,-0.348,-164.56,16.36,-239.6,1785106379606.185
-0.611,-0.993,-0.374,-158.39,14.19,-238.04,1785106379617.176
-0.513,-0.935,-0.355,-151.04,12.18,-236.37,1785106379630.368
-0.46,-0.926,-0.409,-136.91,11.81,-233.5,1785106379636.3862
-0.45,-0.835,-0.434,-129.18,13.92,-230.26,1785106379647.388
-0.41,-0.783,-0.468,-124.58,16.69,-224.86,1785106379660.283
-0.393,-0.787,-0.48,-122.14,21.06,-219.31,1785106379666.1912
-0.399,-0.812,-0.447,-118.35,25.27,-212.56,1785106379679.6611
-0.405,-0.855,-0.413,-102.21,28.93,-204.6,1785106379685.613
-0.4,-0.878,-0.46,-72.66,28.99,-197.45,1785106379696.9631
-0.416,-0.828,-0.37,-45.63,26.98,-190.68,1785106379710.144
-0.424,-0.889,-0.444,-19.04,20.54,-182.65,1785106379716.1702
-0.441,-0.836,-0.555,3.72,22.1,-174.38,1785106379726.444
-0.428,-0.741,-0.595,19.29,19.53,-167.82,1785106379737.484
-0.408,-0.641,-0.727,12.21,20.97,-164.1,1785106379750.7788
-0.392,-0.57,-0.742,-17.15,25.64,-160.68,1785106379756.834
-0.382,-0.62,-0.666,-51.39,30.76,-155.83,1785106379767.4282
-0.429,-0.766,-0.522,-72.85,36.1,-151.49,1785106379780.57
-0.473,-0.881,-0.453,-68.36,36.96,-148.81,1785106379786.1812
-0.477,-0.911,-0.42,-49.81,34.64,-144.66,1785106379797.433
-0.466,-0.932,-0.373,-21.76,31.56,-137.39,1785106379810.4639
-0.46,-0.961,-0.313,19.32,25.21,-132.79,1785106379816.792
-0.45,-0.979,-0.278,68.48,14.28,-129.92,1785106379827.465
-0.41,-0.939,-0.289,118.87,1.22,-126.59,1785106379840.659
-0.378,-0.827,-0.339,160.04,-10.99,-123.26,1785106379846.7043
-0.347,-0.621,-0.429,178.72,-22.28,-119.36,1785106379859.946
-0.311,-0.428,-0.571,170.84,-30.49,-115.73,1785106379865.976
-0.281,-0.301,-0.663,134.65,-33.14,-112.16,1785106379876.752
-0.255,-0.255,-0.663,78.86,-30.73,-106.88,1785106379889.9883
-0.241,-0.293,-0.583,20.63,-25.12,-101.5,1785106379896.239
-0.238,-0.362,-0.493,-25.97,-20.75,-97.38,1785106379906.86
-0.247,-0.412,-0.417,-55.88,-18.31,-91.37,1785106379917.466
-0.246,-0.435,-0.389,-69.89,-16.91,-82.71,1785106379930.675
-0.233,-0.429,-0.41,-71.05,-15.29,-72.7,1785106379936.728
-0.231,-0.386,-0.436,-63.6,-13.31,-62.5,1785106379947.237
-0.2,-0.329,-0.507,-53.25,-11.69,-51.24,1785106379960.4202
-0.17,-0.255,-0.582,-45.66,-9.06,-38.79,1785106379966.382
-0.15,-0.187,-0.666,-44.07,-5.1,-25.76,1785106379976.6592
-0.139,-0.167,-0.744,-51.0,-0.21,-13.58,1785106379987.252
-0.139,-0.167,-0.744,-64.61,5.86,-2.59,1785106380000.439
-0.153,-0.191,-0.786,-77.94,11.6,7.69,1785106380006.487
-0.188,-0.21,-0.799,-86.28,16.02,17.21,1785106380016.664
-0.22,-0.223,-0.803,-89.36,18.65,24.6,1785106380027.378
-0.252,-0.233,-0.806,-89.36,18.65,24.6,1785106380040.585
-0.252,-0.247,-0.835,-86.4,20.17,30.79,1785106380046.676
-0.245,-0.26,-0.87,-78.68,20.87,36.26,1785106380057.035
-0.25,-0.259,-0.881,-68.91,21.24,41.32,1785106380070.271
-0.253,-0.283,-0.879,-56.92,21.15,45.23,1785106380076.326
-0.241,-0.313,-0.867,-42.66,20.94,48.37,1785106380086.7961
-0.219,-0.338,-0.849,-25.67,21.3,52.22,1785106380097.383
-0.207,-0.343,-0.82,-8.61,22.19,55.48,1785106380110.6318
-0.207,-0.349,-0.773,7.02,23.68,58.08,1785106380116.655
-0.207,-0.376,-0.732,19.93,25.15,60.15,1785106380126.9219
-0.222,-0.377,-0.699,27.1,27.41,59.85,1785106380140.147
-0.237,-0.396,-0.653,29.33,30.15,59.76,1785106380146.1438
-0.25,-0.447,-0.602,29.24,31.22,58.84,1785106380156.68
-0.229,-0.521,-0.591,28.23,31.19,56.18,1785106380167.275
-0.174,-0.578,-0.621,27.25,31.74,51.73,1785106380180.47
-0.12,-0.629,-0.646,25.27,32.53,46.66,1785106380186.513
-0.09,-0.71,-0.686,21.91,33.78,41.72,1785106380196.959
-0.059,-0.706,-0.683,13.49,33.91,40.01,1785106380210.1948
0.026,-0.641,-0.678,5.22,31.98,43.82,1785106380216.174
0.106,-0.611,-0.729,1.25,32.78,47.98,1785106380226.473
0.14,-0.618,-0.782,-3.91,36.01,52.1,1785106380237.022
0.137,-0.648,-0.817,-9.25,39.52,55.97,1785106380250.279
0.138,-0.67,-0.833,-11.23,42.7,60.21,1785106380256.3179
0.146,-0.689,-0.864,-9.09,46.17,65.83,1785106380266.583
0.14,-0.687,-0.876,-6.84,51.09,72.57,1785106380277.12
0.128,-0.683,-0.878,-3.72,55.67,78.52,1785106380290.3809
0.11,-0.683,-0.877,-0.67,59.76,82.83,1785106380296.37
0.091,-0.666,-0.863,1.77,63.3,87.25,1785106380306.5679
0.095,-0.65,-0.855,5.86,66.29,92.93,1785106380317.114
0.089,-0.636,-0.851,9.74,69.46,98.27,1785106380330.3308
0.058,-0.618,-0.84,11.54,72.91,102.08,1785106380336.3772
0.036,-0.626,-0.84,12.15,76.02,105.08,1785106380346.929
0.022,-0.656,-0.84,13.52,79.01,108.19,1785106380360.165
0.001,-0.699,-0.821,17.55,82.13,111.76,1785106380366.21
-0.024,-0.723,-0.778,24.6,84.38,114.63,1785106380376.888
-0.034,-0.731,-0.751,34.49,85.76,116.76,1785106380390.1382
-0.05,-0.737,-0.735,44.04,87.59,118.35,1785106380396.1921
-0.069,-0.724,-0.706,49.81,89.75,120.21,1785106380406.881
-0.068,-0.708,-0.699,52.61,92.59,122.29,1785106380420.517
-0.073,-0.701,-0.711,52.46,96.62,122.87,1785106380426.183
-0.092,-0.704,-0.71,48.19,101.23,122.32,1785106380436.981
-0.104,-0.717,-0.694,41.75,105.14,121.68,1785106380450.2512
-0.103,-0.74,-0.687,35.0,108.16,121.34,1785106380456.762
-0.103,-0.756,-0.679,28.17,111.12,121.46,1785106380467.1682
-0.12,-0.769,-0.665,23.44,114.05,122.44,1785106380480.4639
-0.17,-0.783,-0.635,21.61,116.28,123.84,1785106380486.502
-0.209,-0.791,-0.603,21.82,117.44,125.64,1785106380497.3782
-0.232,-0.793,-0.593,24.66,118.99,126.77,1785106380510.613
-0.273,-0.786,-0.588,28.75,122.14,127.02,1785106380516.675
-0.325,-0.768,-0.54,33.51,125.89,126.68,1785106380530.007
-0.349,-0.745,-0.452,39.89,128.85,126.8,1785106380536.0562
-0.306,-0.776,-0.432,48.68,130.16,127.69,1785106380547.0369
-0.247,-0.791,-0.474,51.94,131.6,128.18,1785106380560.2468
-0.209,-0.762,-0.544,48.07,135.35,130.89,1785106380566.308
-0.211,-0.738,-0.619,38.79,140.42,134.1,1785106380577.206
-0.22,-0.678,-0.674,22.37,144.23,136.69,1785106380590.515
-0.213,-0.639,-0.721,7.6,147.28,140.02,1785106380596.577
-0.233,-0.651,-0.732,-1.89,149.85,141.85,1785106380607.25
-0.272,-0.719,-0.684,-5.07,150.79,144.29,1785106380620.5151
-0.301,-0.868,-0.611,7.75,148.59,147.43,1785106380626.569
-0.352,-0.953,-0.63,34.61,146.09,148.29,1785106380637.335
-0.339,-0.898,-0.645,51.61,144.78,150.21,1785106380650.5781
-0.318,-0.881,-0.692,61.4,145.48,152.01,1785106380656.7732
-0.332,-0.87,-0.745,61.65,149.05,151.07,1785106380670.01
-0.371,-0.841,-0.787,51.39,153.78,148.32,1785106380676.196
-0.416,-0.867,-0.779,34.52,158.76,145.21,1785106380687.032
-0.451,-0.936,-0.711,15.69,163.0,141.67,1785106380700.257
-0.462,-0.976,-0.608,3.94,164.4,137.58,1785106380706.347
-0.467,-1.011,-0.563,4.43,162.66,133.55,1785106380717.126
-0.459,-1.031,-0.592,11.32,160.86,130.13,1785106380730.4521
-0.454,-1.023,-0.602,19.35,159.31,127.99,1785106380736.1392
-0.447,-1.008,-0.619,27.53,157.9,125.86,1785106380747.157
-0.434,-0.971,-0.624,29.33,157.75,122.32,1785106380760.603
-0.429,-0.949,-0.609,27.31,158.42,117.65,1785106380766.678
-0.432,-0.94,-0.578,26.49,158.82,112.52,1785106380777.584
-0.426,-0.925,-0.547,26.98,158.33,107.3,1785106380790.5337
-0.43,-0.896,-0.536,28.11,157.35,102.39,1785106380796.596
-0.426,-0.874,-0.526,28.75,156.13,99.46,1785106380809.9148
-0.409,-0.861,-0.541,30.15,155.22,96.44,1785106380816.279
-0.408,-0.845,-0.536,29.85,155.19,94.27,1785106380826.869
-0.43,-0.838,-0.491,27.1,155.46,92.87,1785106380840.113
-0.459,-0.83,-0.435,25.64,155.25,92.59,1785106380846.175
-0.433,-0.833,-0.433,29.36,153.2,92.68,1785106380856.9658
-0.391,-0.811,-0.477,35.0,151.4,91.71,1785106380870.134
-0.384,-0.777,-0.476,36.62,150.55,92.65,1785106380876.165
-0.384,-0.773,-0.453,34.21,149.6,93.57,1785106380886.778
-0.375,-0.81,-0.443,31.43,148.59,93.08,1785106380900.039
-0.367,-0.842,-0.45,31.59,148.17,91.8,1785106380906.1199
-0.349,-0.852,-0.472,32.23,147.68,90.58,1785106380916.7712
-0.365,-0.846,-0.474,31.04,147.68,88.75,1785106380927.474
-0.411,-0.834,-0.406,28.6,147.83,87.68,1785106380940.792
-0.399,-0.853,-0.361,27.04,146.31,87.25,1785106380946.783
-0.352,-0.883,-0.372,29.36,144.81,87.04,1785106380957.445
-0.353,-0.905,-0.376,33.6,144.99,87.01,1785106380970.668
-0.393,-0.923,-0.309,34.85,144.78,87.65,1785106380976.7139
-0.394,-0.955,-0.229,38.36,142.77,87.47,1785106380987.4648
-0.362,-0.981,-0.193,48.31,139.23,84.41,1785106381000.658
-0.36,-0.978,-0.134,58.99,135.38,80.48,1785106381006.79
-0.352,-0.963,-0.092,65.07,130.13,76.88,1785106381017.339
-0.331,-0.964,-0.092,65.58,125.1,73.27,1785106381030.598
-0.363,-0.954,-0.039,53.99,121.46,70.35,1785106381036.664
-0.419,-0.932,0.091,30.58,118.2,68.76,1785106381047.336
-0.433,-0.987,0.197,10.16,113.04,65.89,1785106381060.579
-0.424,-1.068,0.253,-0.85,106.2,60.0,1785106381066.6199
-0.377,-1.138,0.326,-3.97,96.71,54.23,1785106381077.011
-0.278,-1.23,0.34,1.83,84.87,48.43,1785106381090.249
-0.184,-1.23,0.25,12.45,72.33,41.02,1785106381096.308
-0.132,-1.098,0.1,23.1,61.25,32.29,1785106381106.6409
-0.146,-0.947,-0.02,25.76,53.71,23.26,1785106381117.2822
-0.226,-0.833,0.005,8.88,48.46,15.99,1785106381130.514
-0.299,-0.8,0.116,-20.11,44.22,13.92,1785106381136.539
-0.311,-0.834,0.221,-42.39,39.16,15.78,1785106381146.925
-0.264,-0.878,0.221,-47.73,30.98,17.15,1785106381160.1128
-0.207,-0.887,0.113,-39.7,22.34,19.47,1785106381166.183
-0.201,-0.857,0.03,-28.23,15.84,23.93,1785106381176.5828
-0.224,-0.813,-0.007,-17.94,9.22,27.92,1785106381187.168
-0.212,-0.762,-0.065,-10.19,1.22,30.52,1785106381200.417
-0.203,-0.696,-0.14,-7.11,-5.68,31.43,1785106381206.49
-0.214,-0.622,-0.194,-12.3,-11.23,31.01,1785106381216.648
-0.238,-0.546,-0.24,-25.42,-15.87,29.15,1785106381227.3018
-0.256,-0.47,-0.26,-43.98,-20.26,25.7,1785106381240.491
-0.254,-0.42,-0.263,-64.82,-25.03,21.06,1785106381246.5261
-0.23,-0.43,-0.305,-84.02,-29.94,16.33,1785106381256.9448
-0.261,-0.446,-0.316,-100.31,-33.45,13.52,1785106381270.206
-0.261,-0.446,-0.316,-110.32,-37.51,14.01,1785106381276.265
-0.303,-0.436,-0.294,-111.88,-42.36,15.02,1785106381286.918
-0.317,-0.433,-0.302,-108.89,-46.33,15.96,1785106381300.1877
-0.343,-0.418,-0.283,-100.68,-50.17,17.49,1785106381306.287
-0.388,-0.422,-0.253,-85.18,-54.23,18.68,1785106381316.8782
-0.437,-0.446,-0.226,-85.18,-54.23,18.68,1785106381327.513
-0.467,-0.47,-0.197,-61.43,-59.54,19.2,1785106381340.7449
-0.466,-0.477,-0.201,-32.35,-67.05,19.5,1785106381346.7178
-0.425,-0.458,-0.289,-5.28,-74.86,21.09,1785106381357.089
-0.363,-0.43,-0.439,11.29,-80.29,25.48,1785106381370.2988
-0.326,-0.403,-0.582,11.87,-81.0,31.19,1785106381376.326
-0.299,-0.414,-0.683,-0.27,-77.39,37.75,1785106381386.6482
-0.284,-0.486,-0.73,-21.0,-70.8,42.12,1785106381397.335
-0.258,-0.569,-0.734,-42.39,-60.3,42.85,1785106381410.5479
-0.219,-0.613,-0.668,-51.82,-48.98,45.08,1785106381416.5508
-0.241,-0.656,-0.591,-43.34,-42.09,47.85,1785106381427.021
-0.318,-0.723,-0.584,-21.94,-38.85,49.38,1785106381440.285
-0.406,-0.78,-0.605,5.95,-38.48,51.7,1785106381446.3098
-0.483,-0.822,-0.636,33.97,-41.78,56.55,1785106381456.727
-0.52,-0.832,-0.66,55.57,-45.17,63.08,1785106381467.333
-0.519,-0.789,-0.647,67.08,-47.03,70.86,1785106381480.557
-0.536,-0.726,-0.625,68.67,-48.89,77.97,1785106381486.566
-0.51,-0.711,-0.549,63.45,-53.9,85.67,1785106381496.985
-0.526,-0.776,-0.617,64.91,-58.6,93.17,1785106381510.2441
-0.596,-0.616,-0.707,46.69,-54.26,90.15,1785106381516.328
-0.599,-0.595,-0.626,8.42,-50.54,97.17,1785106381526.576
-0.618,-0.742,-0.607,-18.83,-49.68,100.1,1785106381537.333
-0.68,-0.786,-0.554,-37.87,-48.74,100.53,1785106381550.591
-0.72,-0.862,-0.543,-39.34,-49.32,102.15,1785106381556.612
-0.757,-0.887,-0.538,-33.66,-51.88,100.92,1785106381567.314
-0.762,-0.865,-0.515,-26.76,-54.9,100.38,1785106381580.5208
-0.747,-0.859,-0.549,-16.88,-57.83,100.44,1785106381586.622
-0.758,-0.835,-0.575,-8.03,-59.94,101.2,1785106381597.29
-0.778,-0.815,-0.596,0.18,-61.37,102.08,1785106381610.455
-0.796,-0.797,-0.613,4.94,-61.77,101.75,1785106381616.065
-0.793,-0.78,-0.623,6.26,-61.19,101.47,1785106381626.955
-0.774,-0.761,-0.624,5.1,-60.24,101.6,1785106381640.1558
-0.765,-0.743,-0.612,2.81,-58.96,101.17,1785106381646.184
-0.776,-0.734,-0.609,0.34,-57.37,99.22,1785106381656.496
-0.793,-0.722,-0.602,-2.11,-55.42,96.44,1785106381667.0798
-0.794,-0.718,-0.589,-4.39,-54.41,94.52,1785106381680.306
-0.781,-0.715,-0.578,-7.57,-53.38,92.78,1785106381686.368
-0.783,-0.706,-0.565,-11.14,-51.52,91.07,1785106381696.569
-0.795,-0.697,-0.553,-12.79,-49.41,89.79,1785106381707.252
-0.824,-0.689,-0.53,-10.32,-47.85,88.02,1785106381720.4949
-0.857,-0.671,-0.489,-5.74,-46.97,85.57,1785106381726.503
-0.879,-0.653,-0.468,0.0,-45.93,83.25,1785106381736.8162
-0.904,-0.647,-0.477,6.38,-44.5,81.73,1785106381747.345
-0.933,-0.643,-0.496,10.8,-42.82,80.39,1785106381760.568
-0.934,-0.66,-0.517,11.93,-41.44,79.1,1785106381766.603
-0.913,-0.677,-0.521,9.31,-40.44,76.91,1785106381776.969
-0.887,-0.691,-0.507,5.77,-39.16,74.65,1785106381790.179
-0.863,-0.699,-0.489,4.24,-37.9,71.72,1785106381796.211
-0.852,-0.706,-0.473,4.52,-37.14,66.35,1785106381806.3591
-0.854,-0.7,-0.478,6.1,-36.41,59.51,1785106381816.928
-0.85,-0.681,-0.492,7.14,-34.97,53.59,1785106381827.538
-0.851,-0.658,-0.496,6.1,-33.51,46.63,1785106381840.7349
-0.883,-0.619,-0.459,-0.37,-33.3,40.56,1785106381846.812
-0.888,-0.66,-0.446,-1.77,-31.19,37.66,1785106381856.952
-0.902,-0.612,-0.43,-2.96,-32.32,29.76,1785106381867.5342
